subjID,experimentName,versionName,sequenceName,url,selected_row,windowWidth,windowHeight,screenWidth,screenHeight,startDate,startTime,trial,stimulus_0,stimulus_1,duration,actual_depth_0,actual_depth_1,discrim_choice,trial_RT,log_fixation,log_sceneDuration1,log_mask1,log_sceneDuration2,log_mask2,experimentTime,totalTime,age,gender
125863,DepthScenes,v2_duration_discrimination,discrim_jsons/j13.json,http://54.235.3.71/FacialAge/BNav_EC2/DepthDuration/v2_depth_discrimination_MTurk/v2_DepthDiscrim_HTML.html#4,4,1366,625,1366,768,0-14-2022,8-23-28,1,depth_discrimination_stimuli/002988_2014-06-15_12-24-20_094959634447_rgbf000150-resize_1/002988_2014-06-15_12-24-20_094959634447_rgbf000150-resize_1-target.png,depth_discrimination_stimuli/001052_2014-06-08_18-24-54_260595134347_rgbf000130-resize_1/001052_2014-06-08_18-24-54_260595134347_rgbf000130-resize_1-target.png,250,4.767,4.1045,0,1565,1002,258,1000,265,483,,880185,50,Woman
125863,DepthScenes,v2_duration_discrimination,discrim_jsons/j13.json,http://54.235.3.71/FacialAge/BNav_EC2/DepthDuration/v2_depth_discrimination_MTurk/v2_DepthDiscrim_HTML.html#4,4,1366,625,1366,768,0-14-2022,8-23-28,2,depth_discrimination_stimuli/000929_2014-06-09_16-33-19_260595134347_rgbf000139-resize_0/000929_2014-06-09_16-33-19_260595134347_rgbf000139-resize_0-target.png,depth_discrimination_stimuli/000457_2014-06-08_16-52-43_260595134347_rgbf000199-resize_1/000457_2014-06-08_16-52-43_260595134347_rgbf000199-resize_1-target.png,1000,2.868,3.649,0,1683,1017,986,1001,999,521,,880185,50,Woman
125863,DepthScenes,v2_duration_discrimination,discrim_jsons/j13.json,http://54.235.3.71/FacialAge/BNav_EC2/DepthDuration/v2_depth_discrimination_MTurk/v2_DepthDiscrim_HTML.html#4,4,1366,625,1366,768,0-14-2022,8-23-28,3,depth_discrimination_stimuli/002549_2014-06-24_13-41-39_094959634447_rgbf000022-resize_3/002549_2014-06-24_13-41-39_094959634447_rgbf000022-resize_3-target.png,depth_discrimination_stimuli/002750_2014-06-22_19-08-03_094959634447_rgbf000094-resize_4/002750_2014-06-22_19-08-03_094959634447_rgbf000094-resize_4-target.png,1000,1.476,2.354,0,1702,1013,992,996,1003,496,,880185,50,Woman
125863,DepthScenes,v2_duration_discrimination,discrim_jsons/j13.json,http://54.235.3.71/FacialAge/BNav_EC2/DepthDuration/v2_depth_discrimination_MTurk/v2_DepthDiscrim_HTML.html#4,4,1366,625,1366,768,0-14-2022,8-23-28,4,depth_discrimination_stimuli/001148_2014-06-17_15-26-42_260595134347_rgbf000129-resize_0/001148_2014-06-17_15-26-42_260595134347_rgbf000129-resize_0-target.png,depth_discrimination_stimuli/000505_2014-06-08_23-03-23_260595134347_rgbf000091-resize_0/000505_2014-06-08_23-03-23_260595134347_rgbf000091-resize_0-target.png,250,4.368,3.3105,1,1382,1010,251,994,250,507,,880185,50,Woman
125863,DepthScenes,v2_duration_discrimination,discrim_jsons/j13.json,http://54.235.3.71/FacialAge/BNav_EC2/DepthDuration/v2_depth_discrimination_MTurk/v2_DepthDiscrim_HTML.html#4,4,1366,625,1366,768,0-14-2022,8-23-28,5,depth_discrimination_stimuli/001110_2014-06-15_17-25-28_260595134347_rgbf000150-resize_1/001110_2014-06-15_17-25-28_260595134347_rgbf000150-resize_1-target.png,depth_discrimination_stimuli/000927_2014-06-09_16-32-30_260595134347_rgbf000123-resize_3/000927_2014-06-09_16-32-30_260595134347_rgbf000123-resize_3-target.png,1000,1.7115,2.6785,0,2186,1014,995,1001,1157,343,,880185,50,Woman
125863,DepthScenes,v2_duration_discrimination,discrim_jsons/j13.json,http://54.235.3.71/FacialAge/BNav_EC2/DepthDuration/v2_depth_discrimination_MTurk/v2_DepthDiscrim_HTML.html#4,4,1366,625,1366,768,0-14-2022,8-23-28,6,depth_discrimination_stimuli/001175_2014-06-17_15-45-55_260595134347_rgbf000129-resize_4/001175_2014-06-17_15-45-55_260595134347_rgbf000129-resize_4-target.png,depth_discrimination_stimuli/003490_2014-05-21_15-50-11_094959634447_rgbf000101-resize_3/003490_2014-05-21_15-50-11_094959634447_rgbf000101-resize_3-target.png,250,4.255,3.6445,1,1797,1007,252,1121,123,511,,880185,50,Woman
125863,DepthScenes,v2_duration_discrimination,discrim_jsons/j13.json,http://54.235.3.71/FacialAge/BNav_EC2/DepthDuration/v2_depth_discrimination_MTurk/v2_DepthDiscrim_HTML.html#4,4,1366,625,1366,768,0-14-2022,8-23-28,7,depth_discrimination_stimuli/001808_2014-06-26_20-50-58_260595134347_rgbf000029-resize_1/001808_2014-06-26_20-50-58_260595134347_rgbf000029-resize_1-target.png,depth_discrimination_stimuli/001815_2014-06-26_20-52-55_260595134347_rgbf000020-resize_0/001815_2014-06-26_20-52-55_260595134347_rgbf000020-resize_0-target.png,1000,4.249,3.3865,0,1751,1016,998,993,1003,500,,880185,50,Woman
125863,DepthScenes,v2_duration_discrimination,discrim_jsons/j13.json,http://54.235.3.71/FacialAge/BNav_EC2/DepthDuration/v2_depth_discrimination_MTurk/v2_DepthDiscrim_HTML.html#4,4,1366,625,1366,768,0-14-2022,8-23-28,8,depth_discrimination_stimuli/001810_2014-06-26_20-51-35_260595134347_rgbf000040-resize_3/001810_2014-06-26_20-51-35_260595134347_rgbf000040-resize_3-target.png,depth_discrimination_stimuli/003010_2014-06-15_12-54-35_094959634447_rgbf000112-resize_0/003010_2014-06-15_12-54-35_094959634447_rgbf000112-resize_0-target.png,1000,2.2525,3.1185,0,1724,1014,989,996,1025,486,,880185,50,Woman
125863,DepthScenes,v2_duration_discrimination,discrim_jsons/j13.json,http://54.235.3.71/FacialAge/BNav_EC2/DepthDuration/v2_depth_discrimination_MTurk/v2_DepthDiscrim_HTML.html#4,4,1366,625,1366,768,0-14-2022,8-23-28,9,depth_discrimination_stimuli/001498_2014-06-19_17-45-14_260595134347_rgbf000129-resize_4/001498_2014-06-19_17-45-14_260595134347_rgbf000129-resize_4-target.png,depth_discrimination_stimuli/001498_2014-06-19_17-45-14_260595134347_rgbf000129-resize_4/001498_2014-06-19_17-45-14_260595134347_rgbf000129-resize_4-target.png,1000,1.4075,1.4075,0,2810,1012,1002,994,994,507,,880185,50,Woman
125863,DepthScenes,v2_duration_discrimination,discrim_jsons/j13.json,http://54.235.3.71/FacialAge/BNav_EC2/DepthDuration/v2_depth_discrimination_MTurk/v2_DepthDiscrim_HTML.html#4,4,1366,625,1366,768,0-14-2022,8-23-28,10,depth_discrimination_stimuli/002118_2014-06-25_20-32-08_260595134347_rgbf000078-resize_1/002118_2014-06-25_20-32-08_260595134347_rgbf000078-resize_1-target.png,depth_discrimination_stimuli/001516_2014-06-20_16-25-09_260595134347_rgbf000076-resize_2/001516_2014-06-20_16-25-09_260595134347_rgbf000076-resize_2-target.png,1000,2.646,1.7445,0,2194,1007,1008,996,999,500,,880185,50,Woman
125863,DepthScenes,v2_duration_discrimination,discrim_jsons/j13.json,http://54.235.3.71/FacialAge/BNav_EC2/DepthDuration/v2_depth_discrimination_MTurk/v2_DepthDiscrim_HTML.html#4,4,1366,625,1366,768,0-14-2022,8-23-28,11,depth_discrimination_stimuli/002964_2014-06-08_17-46-11_094959634447_rgbf000091-resize_4/002964_2014-06-08_17-46-11_094959634447_rgbf000091-resize_4-target.png,depth_discrimination_stimuli/002136_2014-06-25_21-18-03_260595134347_rgbf000109-resize_3/002136_2014-06-25_21-18-03_260595134347_rgbf000109-resize_3-target.png,1000,1.691,1.957,0,2781,1002,1010,1001,998,489,,880185,50,Woman
125863,DepthScenes,v2_duration_discrimination,discrim_jsons/j13.json,http://54.235.3.71/FacialAge/BNav_EC2/DepthDuration/v2_depth_discrimination_MTurk/v2_DepthDiscrim_HTML.html#4,4,1366,625,1366,768,0-14-2022,8-23-28,12,depth_discrimination_stimuli/002788_2014-06-22_19-36-03_094959634447_rgbf000088-resize_2/002788_2014-06-22_19-36-03_094959634447_rgbf000088-resize_2-target.png,depth_discrimination_stimuli/000749_2014-06-08_21-55-06_260595134347_rgbf000070-resize_2/000749_2014-06-08_21-55-06_260595134347_rgbf000070-resize_2-target.png,1000,1.6465,2.331,0,2349,1012,1001,989,1002,517,,880185,50,Woman
125863,DepthScenes,v2_duration_discrimination,discrim_jsons/j13.json,http://54.235.3.71/FacialAge/BNav_EC2/DepthDuration/v2_depth_discrimination_MTurk/v2_DepthDiscrim_HTML.html#4,4,1366,625,1366,768,0-14-2022,8-23-28,13,depth_discrimination_stimuli/001164_2014-06-17_15-35-46_260595134347_rgbf000085-resize_3/001164_2014-06-17_15-35-46_260595134347_rgbf000085-resize_3-target.png,depth_discrimination_stimuli/001136_2014-06-17_15-19-41_260595134347_rgbf000076-resize_3/001136_2014-06-17_15-19-41_260595134347_rgbf000076-resize_3-target.png,1000,2.354,1.8655,0,2795,1016,983,1006,1126,381,,880185,50,Woman
125863,DepthScenes,v2_duration_discrimination,discrim_jsons/j13.json,http://54.235.3.71/FacialAge/BNav_EC2/DepthDuration/v2_depth_discrimination_MTurk/v2_DepthDiscrim_HTML.html#4,4,1366,625,1366,768,0-14-2022,8-23-28,14,depth_discrimination_stimuli/001199_2014-06-17_16-03-48_260595134347_rgbf000077-resize_0/001199_2014-06-17_16-03-48_260595134347_rgbf000077-resize_0-target.png,depth_discrimination_stimuli/000502_2014-06-08_23-02-32_260595134347_rgbf000063-resize_4/000502_2014-06-08_23-02-32_260595134347_rgbf000063-resize_4-target.png,250,3.4375,2.431,1,1375,1013,242,1010,246,490,,880185,50,Woman
125863,DepthScenes,v2_duration_discrimination,discrim_jsons/j13.json,http://54.235.3.71/FacialAge/BNav_EC2/DepthDuration/v2_depth_discrimination_MTurk/v2_DepthDiscrim_HTML.html#4,4,1366,625,1366,768,0-14-2022,8-23-28,15,depth_discrimination_stimuli/000906_2014-06-08_13-35-43_260595134347_rgbf000155-resize_1/000906_2014-06-08_13-35-43_260595134347_rgbf000155-resize_1-target.png,depth_discrimination_stimuli/002805_2014-06-22_19-54-03_094959634447_rgbf000079-resize_1/002805_2014-06-22_19-54-03_094959634447_rgbf000079-resize_1-target.png,1000,2.849,3.144,0,2410,1016,1035,963,996,487,,880185,50,Woman
125863,DepthScenes,v2_duration_discrimination,discrim_jsons/j13.json,http://54.235.3.71/FacialAge/BNav_EC2/DepthDuration/v2_depth_discrimination_MTurk/v2_DepthDiscrim_HTML.html#4,4,1366,625,1366,768,0-14-2022,8-23-28,16,depth_discrimination_stimuli/001150_2014-06-17_15-27-34_260595134347_rgbf000108-resize_2/001150_2014-06-17_15-27-34_260595134347_rgbf000108-resize_2-target.png,depth_discrimination_stimuli/000665_2014-06-09_20-42-35_260595134347_rgbf000110-resize_1/000665_2014-06-09_20-42-35_260595134347_rgbf000110-resize_1-target.png,250,4.0325,3.057,1,1456,1003,258,994,265,488,,880185,50,Woman
125863,DepthScenes,v2_duration_discrimination,discrim_jsons/j13.json,http://54.235.3.71/FacialAge/BNav_EC2/DepthDuration/v2_depth_discrimination_MTurk/v2_DepthDiscrim_HTML.html#4,4,1366,625,1366,768,0-14-2022,8-23-28,17,depth_discrimination_stimuli/002375_2014-06-28_20-13-44_260595134347_rgbf000032-resize_1/002375_2014-06-28_20-13-44_260595134347_rgbf000032-resize_1-target.png,depth_discrimination_stimuli/002657_2014-06-13_15-29-54_094959634447_rgbf000150-resize_1/002657_2014-06-13_15-29-54_094959634447_rgbf000150-resize_1-target.png,1000,4.0175,4.919,1,1605,1013,991,1218,776,501,,880185,50,Woman
125863,DepthScenes,v2_duration_discrimination,discrim_jsons/j13.json,http://54.235.3.71/FacialAge/BNav_EC2/DepthDuration/v2_depth_discrimination_MTurk/v2_DepthDiscrim_HTML.html#4,4,1366,625,1366,768,0-14-2022,8-23-28,18,depth_discrimination_stimuli/001158_2014-06-17_15-32-16_260595134347_rgbf000138-resize_2/001158_2014-06-17_15-32-16_260595134347_rgbf000138-resize_2-target.png,depth_discrimination_stimuli/000556_2014-06-09_22-42-56_260595134347_rgbf000214-resize_1/000556_2014-06-09_22-42-56_260595134347_rgbf000214-resize_1-target.png,1000,4.5315,4.8415,1,1685,1008,992,1002,1012,485,,880185,50,Woman
125863,DepthScenes,v2_duration_discrimination,discrim_jsons/j13.json,http://54.235.3.71/FacialAge/BNav_EC2/DepthDuration/v2_depth_discrimination_MTurk/v2_DepthDiscrim_HTML.html#4,4,1366,625,1366,768,0-14-2022,8-23-28,19,depth_discrimination_stimuli/002639_2014-06-24_14-51-37_094959634447_rgbf000074-resize_4/002639_2014-06-24_14-51-37_094959634447_rgbf000074-resize_4-target.png,depth_discrimination_stimuli/003292_2014-05-14_21-53-49_094959634447_rgbf000100-resize_2/003292_2014-05-14_21-53-49_094959634447_rgbf000100-resize_2-target.png,250,4.0375,3.4815,0,3333,1015,244,994,248,498,,880185,50,Woman
125863,DepthScenes,v2_duration_discrimination,discrim_jsons/j13.json,http://54.235.3.71/FacialAge/BNav_EC2/DepthDuration/v2_depth_discrimination_MTurk/v2_DepthDiscrim_HTML.html#4,4,1366,625,1366,768,0-14-2022,8-23-28,20,depth_discrimination_stimuli/001571_2014-06-20_17-21-32_260595134347_rgbf000089-resize_1/001571_2014-06-20_17-21-32_260595134347_rgbf000089-resize_1-target.png,depth_discrimination_stimuli/002272_2014-06-28_18-53-56_260595134347_rgbf000067-resize_2/002272_2014-06-28_18-53-56_260595134347_rgbf000067-resize_2-target.png,250,1.86,1.138,0,1657,1003,252,997,250,500,,880185,50,Woman
125863,DepthScenes,v2_duration_discrimination,discrim_jsons/j13.json,http://54.235.3.71/FacialAge/BNav_EC2/DepthDuration/v2_depth_discrimination_MTurk/v2_DepthDiscrim_HTML.html#4,4,1366,625,1366,768,0-14-2022,8-23-28,21,depth_discrimination_stimuli/001181_2014-06-17_15-50-57_260595134347_rgbf000106-resize_4/001181_2014-06-17_15-50-57_260595134347_rgbf000106-resize_4-target.png,depth_discrimination_stimuli/000542_2014-06-08_18-27-08_260595134347_rgbf000118-resize_1/000542_2014-06-08_18-27-08_260595134347_rgbf000118-resize_1-target.png,1000,4.149,3,1,2950,1012,1000,998,998,507,,880185,50,Woman
125863,DepthScenes,v2_duration_discrimination,discrim_jsons/j13.json,http://54.235.3.71/FacialAge/BNav_EC2/DepthDuration/v2_depth_discrimination_MTurk/v2_DepthDiscrim_HTML.html#4,4,1366,625,1366,768,0-14-2022,8-23-28,22,depth_discrimination_stimuli/003495_2014-05-21_16-01-51_094959634447_rgbf000100-resize_3/003495_2014-05-21_16-01-51_094959634447_rgbf000100-resize_3-target.png,depth_discrimination_stimuli/001244_2014-06-17_16-47-45_260595134347_rgbf000030-resize_4/001244_2014-06-17_16-47-45_260595134347_rgbf000030-resize_4-target.png,1000,1.6255,2.0425,1,2037,1011,991,1012,992,505,,880185,50,Woman
125863,DepthScenes,v2_duration_discrimination,discrim_jsons/j13.json,http://54.235.3.71/FacialAge/BNav_EC2/DepthDuration/v2_depth_discrimination_MTurk/v2_DepthDiscrim_HTML.html#4,4,1366,625,1366,768,0-14-2022,8-23-28,23,depth_discrimination_stimuli/000787_2014-06-08_22-33-53_260595134347_rgbf000175-resize_1/000787_2014-06-08_22-33-53_260595134347_rgbf000175-resize_1-target.png,depth_discrimination_stimuli/000787_2014-06-08_22-33-53_260595134347_rgbf000175-resize_1/000787_2014-06-08_22-33-53_260595134347_rgbf000175-resize_1-target.png,250,4.784,4.784,0,1331,1007,257,988,253,499,,880185,50,Woman
125863,DepthScenes,v2_duration_discrimination,discrim_jsons/j13.json,http://54.235.3.71/FacialAge/BNav_EC2/DepthDuration/v2_depth_discrimination_MTurk/v2_DepthDiscrim_HTML.html#4,4,1366,625,1366,768,0-14-2022,8-23-28,24,depth_discrimination_stimuli/000493_2014-06-09_21-01-18_260595134347_rgbf000196-resize_3/000493_2014-06-09_21-01-18_260595134347_rgbf000196-resize_3-target.png,depth_discrimination_stimuli/000191_2014-05-12_17-07-38_260595134347_rgbf000199-resize_0/000191_2014-05-12_17-07-38_260595134347_rgbf000199-resize_0-target.png,250,3.44,3.7995,0,1188,1013,243,1009,244,491,,880185,50,Woman
125863,DepthScenes,v2_duration_discrimination,discrim_jsons/j13.json,http://54.235.3.71/FacialAge/BNav_EC2/DepthDuration/v2_depth_discrimination_MTurk/v2_DepthDiscrim_HTML.html#4,4,1366,625,1366,768,0-14-2022,8-23-28,25,depth_discrimination_stimuli/003070_2014-06-15_14-58-27_094959634447_rgbf000150-resize_3/003070_2014-06-15_14-58-27_094959634447_rgbf000150-resize_3-target.png,depth_discrimination_stimuli/000943_2014-06-09_19-31-07_260595134347_rgbf000128-resize_1/000943_2014-06-09_19-31-07_260595134347_rgbf000128-resize_1-target.png,250,2.9415,1.9765,0,1447,1006,271,986,238,505,,880185,50,Woman
125863,DepthScenes,v2_duration_discrimination,discrim_jsons/j13.json,http://54.235.3.71/FacialAge/BNav_EC2/DepthDuration/v2_depth_discrimination_MTurk/v2_DepthDiscrim_HTML.html#4,4,1366,625,1366,768,0-14-2022,8-23-28,26,depth_discrimination_stimuli/000469_2014-06-09_19-42-10_260595134347_rgbf000081-resize_1/000469_2014-06-09_19-42-10_260595134347_rgbf000081-resize_1-target.png,depth_discrimination_stimuli/000483_2014-06-09_20-41-45_260595134347_rgbf000116-resize_4/000483_2014-06-09_20-41-45_260595134347_rgbf000116-resize_4-target.png,250,1.652,1.337,0,2175,1003,247,1067,182,497,,880185,50,Woman
125863,DepthScenes,v2_duration_discrimination,discrim_jsons/j13.json,http://54.235.3.71/FacialAge/BNav_EC2/DepthDuration/v2_depth_discrimination_MTurk/v2_DepthDiscrim_HTML.html#4,4,1366,625,1366,768,0-14-2022,8-23-28,27,depth_discrimination_stimuli/002748_2014-06-22_19-07-22_094959634447_rgbf000078-resize_1/002748_2014-06-22_19-07-22_094959634447_rgbf000078-resize_1-target.png,depth_discrimination_stimuli/002995_2014-06-15_12-31-26_094959634447_rgbf000150-resize_1/002995_2014-06-15_12-31-26_094959634447_rgbf000150-resize_1-target.png,250,4.6705,3.836,0,6949,1007,245,1010,243,504,,880185,50,Woman
125863,DepthScenes,v2_duration_discrimination,discrim_jsons/j13.json,http://54.235.3.71/FacialAge/BNav_EC2/DepthDuration/v2_depth_discrimination_MTurk/v2_DepthDiscrim_HTML.html#4,4,1366,625,1366,768,0-14-2022,8-23-28,28,depth_discrimination_stimuli/001570_2014-06-20_17-21-09_260595134347_rgbf000135-resize_4/001570_2014-06-20_17-21-09_260595134347_rgbf000135-resize_4-target.png,depth_discrimination_stimuli/001392_2014-06-19_16-07-59_260595134347_rgbf000046-resize_1/001392_2014-06-19_16-07-59_260595134347_rgbf000046-resize_1-target.png,250,4.467,4.135,0,4169,1014,246,998,246,500,,880185,50,Woman
125863,DepthScenes,v2_duration_discrimination,discrim_jsons/j13.json,http://54.235.3.71/FacialAge/BNav_EC2/DepthDuration/v2_depth_discrimination_MTurk/v2_DepthDiscrim_HTML.html#4,4,1366,625,1366,768,0-14-2022,8-23-28,29,depth_discrimination_stimuli/000682_2014-06-08_23-14-58_260595134347_rgbf000041-resize_5/000682_2014-06-08_23-14-58_260595134347_rgbf000041-resize_5-target.png,depth_discrimination_stimuli/001650_2014-06-20_12-09-00_260595134347_rgbf000087-resize_3/001650_2014-06-20_12-09-00_260595134347_rgbf000087-resize_3-target.png,1000,2.724,1.9505,0,4209,1015,987,1002,1005,492,,880185,50,Woman
125863,DepthScenes,v2_duration_discrimination,discrim_jsons/j13.json,http://54.235.3.71/FacialAge/BNav_EC2/DepthDuration/v2_depth_discrimination_MTurk/v2_DepthDiscrim_HTML.html#4,4,1366,625,1366,768,0-14-2022,8-23-28,30,depth_discrimination_stimuli/003492_2014-05-21_15-50-55_094959634447_rgbf000828-resize_1/003492_2014-05-21_15-50-55_094959634447_rgbf000828-resize_1-target.png,depth_discrimination_stimuli/002568_2014-06-24_13-59-21_094959634447_rgbf000062-resize_4/002568_2014-06-24_13-59-21_094959634447_rgbf000062-resize_4-target.png,1000,4.06875,3.015,0,5813,1013,988,1013,1001,486,,880185,50,Woman
125863,DepthScenes,v2_duration_discrimination,discrim_jsons/j13.json,http://54.235.3.71/FacialAge/BNav_EC2/DepthDuration/v2_depth_discrimination_MTurk/v2_DepthDiscrim_HTML.html#4,4,1366,625,1366,768,0-14-2022,8-23-28,31,depth_discrimination_stimuli/001029_2014-06-08_13-17-57_260595134347_rgbf000065-resize_1/001029_2014-06-08_13-17-57_260595134347_rgbf000065-resize_1-target.png,depth_discrimination_stimuli/000677_2014-06-08_23-10-32_260595134347_rgbf000158-resize_6/000677_2014-06-08_23-10-32_260595134347_rgbf000158-resize_6-target.png,250,3.0835,3.556,0,3550,1002,253,1002,244,513,,880185,50,Woman
125863,DepthScenes,v2_duration_discrimination,discrim_jsons/j13.json,http://54.235.3.71/FacialAge/BNav_EC2/DepthDuration/v2_depth_discrimination_MTurk/v2_DepthDiscrim_HTML.html#4,4,1366,625,1366,768,0-14-2022,8-23-28,32,depth_discrimination_stimuli/000368_2014-06-09_15-53-01_260595134347_rgbf000155-resize_2/000368_2014-06-09_15-53-01_260595134347_rgbf000155-resize_2-target.png,depth_discrimination_stimuli/002678_2014-06-13_16-15-32_094959634447_rgbf000151-resize_6/002678_2014-06-13_16-15-32_094959634447_rgbf000151-resize_6-target.png,250,2.486,2.183,1,1698,1010,242,1000,259,493,,880185,50,Woman
125863,DepthScenes,v2_duration_discrimination,discrim_jsons/j13.json,http://54.235.3.71/FacialAge/BNav_EC2/DepthDuration/v2_depth_discrimination_MTurk/v2_DepthDiscrim_HTML.html#4,4,1366,625,1366,768,0-14-2022,8-23-28,33,depth_discrimination_stimuli/000692_2014-06-08_13-09-42_260595134347_rgbf000199-resize_2/000692_2014-06-08_13-09-42_260595134347_rgbf000199-resize_2-target.png,depth_discrimination_stimuli/001094_2014-06-15_17-36-00_260595134347_rgbf000205-resize_0/001094_2014-06-15_17-36-00_260595134347_rgbf000205-resize_0-target.png,250,3.661,4.2175,0,1451,1015,243,993,259,503,,880185,50,Woman
125863,DepthScenes,v2_duration_discrimination,discrim_jsons/j13.json,http://54.235.3.71/FacialAge/BNav_EC2/DepthDuration/v2_depth_discrimination_MTurk/v2_DepthDiscrim_HTML.html#4,4,1366,625,1366,768,0-14-2022,8-23-28,34,depth_discrimination_stimuli/002279_2014-06-28_18-55-32_260595134347_rgbf000040-resize_5/002279_2014-06-28_18-55-32_260595134347_rgbf000040-resize_5-target.png,depth_discrimination_stimuli/000635_2014-06-08_16-38-42_260595134347_rgbf000106-resize_1/000635_2014-06-08_16-38-42_260595134347_rgbf000106-resize_1-target.png,250,1.5043333333333,2.074,0,1834,1005,250,1000,249,506,,880185,50,Woman
125863,DepthScenes,v2_duration_discrimination,discrim_jsons/j13.json,http://54.235.3.71/FacialAge/BNav_EC2/DepthDuration/v2_depth_discrimination_MTurk/v2_DepthDiscrim_HTML.html#4,4,1366,625,1366,768,0-14-2022,8-23-28,35,depth_discrimination_stimuli/000447_2014-06-08_16-15-46_260595134347_rgbf000130-resize_1/000447_2014-06-08_16-15-46_260595134347_rgbf000130-resize_1-target.png,depth_discrimination_stimuli/001447_2014-06-19_17-00-32_260595134347_rgbf000082-resize_5/001447_2014-06-19_17-00-32_260595134347_rgbf000082-resize_5-target.png,250,4.479,4.13775,1,3877,1026,227,996,251,495,,880185,50,Woman
125863,DepthScenes,v2_duration_discrimination,discrim_jsons/j13.json,http://54.235.3.71/FacialAge/BNav_EC2/DepthDuration/v2_depth_discrimination_MTurk/v2_DepthDiscrim_HTML.html#4,4,1366,625,1366,768,0-14-2022,8-23-28,36,depth_discrimination_stimuli/002989_2014-06-15_12-25-03_094959634447_rgbf000150-resize_3/002989_2014-06-15_12-25-03_094959634447_rgbf000150-resize_3-target.png,depth_discrimination_stimuli/000866_2014-06-09_20-45-42_260595134347_rgbf000139-resize_1/000866_2014-06-09_20-45-42_260595134347_rgbf000139-resize_1-target.png,250,4.1975,3.2155,0,2837,1004,252,1006,238,523,,880185,50,Woman
125863,DepthScenes,v2_duration_discrimination,discrim_jsons/j13.json,http://54.235.3.71/FacialAge/BNav_EC2/DepthDuration/v2_depth_discrimination_MTurk/v2_DepthDiscrim_HTML.html#4,4,1366,625,1366,768,0-14-2022,8-23-28,37,depth_discrimination_stimuli/000375_2014-06-08_11-17-29_260595134347_rgbf000133-resize_2/000375_2014-06-08_11-17-29_260595134347_rgbf000133-resize_2-target.png,depth_discrimination_stimuli/000375_2014-06-08_11-17-29_260595134347_rgbf000133-resize_2/000375_2014-06-08_11-17-29_260595134347_rgbf000133-resize_2-target.png,1000,4.718,4.718,0,4262,1015,991,1061,946,490,,880185,50,Woman
125863,DepthScenes,v2_duration_discrimination,discrim_jsons/j13.json,http://54.235.3.71/FacialAge/BNav_EC2/DepthDuration/v2_depth_discrimination_MTurk/v2_DepthDiscrim_HTML.html#4,4,1366,625,1366,768,0-14-2022,8-23-28,38,depth_discrimination_stimuli/002213_2014-06-28_18-37-58_260595134347_rgbf000055-resize_1/002213_2014-06-28_18-37-58_260595134347_rgbf000055-resize_1-target.png,depth_discrimination_stimuli/000691_2014-06-08_13-08-50_260595134347_rgbf000132-resize_3/000691_2014-06-08_13-08-50_260595134347_rgbf000132-resize_3-target.png,1000,3.62,4.153,0,2800,1006,994,1002,1001,506,,880185,50,Woman
125863,DepthScenes,v2_duration_discrimination,discrim_jsons/j13.json,http://54.235.3.71/FacialAge/BNav_EC2/DepthDuration/v2_depth_discrimination_MTurk/v2_DepthDiscrim_HTML.html#4,4,1366,625,1366,768,0-14-2022,8-23-28,39,depth_discrimination_stimuli/000720_2014-06-08_18-37-27_260595134347_rgbf000203-resize_4/000720_2014-06-08_18-37-27_260595134347_rgbf000203-resize_4-target.png,depth_discrimination_stimuli/000555_2014-06-09_22-42-23_260595134347_rgbf000037-resize_4/000555_2014-06-09_22-42-23_260595134347_rgbf000037-resize_4-target.png,1000,1.558,1.9765,1,2517,1014,1047,943,1078,423,,880185,50,Woman
125863,DepthScenes,v2_duration_discrimination,discrim_jsons/j13.json,http://54.235.3.71/FacialAge/BNav_EC2/DepthDuration/v2_depth_discrimination_MTurk/v2_DepthDiscrim_HTML.html#4,4,1366,625,1366,768,0-14-2022,8-23-28,40,depth_discrimination_stimuli/000736_2014-06-08_18-24-15_260595134347_rgbf000206-resize_3/000736_2014-06-08_18-24-15_260595134347_rgbf000206-resize_3-target.png,depth_discrimination_stimuli/000137_2014-05-20_17-04-49_260595134347_rgbf000120-resize_1/000137_2014-05-20_17-04-49_260595134347_rgbf000120-resize_1-target.png,250,3.515,3.786,1,5452,1005,246,1001,256,507,,880185,50,Woman
125863,DepthScenes,v2_duration_discrimination,discrim_jsons/j13.json,http://54.235.3.71/FacialAge/BNav_EC2/DepthDuration/v2_depth_discrimination_MTurk/v2_DepthDiscrim_HTML.html#4,4,1366,625,1366,768,0-14-2022,8-23-28,41,depth_discrimination_stimuli/000800_2014-06-08_22-42-09_260595134347_rgbf000095-resize_3/000800_2014-06-08_22-42-09_260595134347_rgbf000095-resize_3-target.png,depth_discrimination_stimuli/002365_2014-06-28_20-11-21_260595134347_rgbf000102-resize_1/002365_2014-06-28_20-11-21_260595134347_rgbf000102-resize_1-target.png,250,2.8,4.013,0,1373,1002,252,995,352,400,,880185,50,Woman
125863,DepthScenes,v2_duration_discrimination,discrim_jsons/j13.json,http://54.235.3.71/FacialAge/BNav_EC2/DepthDuration/v2_depth_discrimination_MTurk/v2_DepthDiscrim_HTML.html#4,4,1366,625,1366,768,0-14-2022,8-23-28,42,depth_discrimination_stimuli/002460_2014-06-28_20-35-43_260595134347_rgbf000028-resize_4/002460_2014-06-28_20-35-43_260595134347_rgbf000028-resize_4-target.png,depth_discrimination_stimuli/002790_2014-06-22_19-36-35_094959634447_rgbf000074-resize_4/002790_2014-06-22_19-36-35_094959634447_rgbf000074-resize_4-target.png,250,2.269,3.512,0,962,1002,245,1000,249,509,,880185,50,Woman
125863,DepthScenes,v2_duration_discrimination,discrim_jsons/j13.json,http://54.235.3.71/FacialAge/BNav_EC2/DepthDuration/v2_depth_discrimination_MTurk/v2_DepthDiscrim_HTML.html#4,4,1366,625,1366,768,0-14-2022,8-23-28,43,depth_discrimination_stimuli/002725_2014-06-22_11-47-51_094959634447_rgbf000070-resize_1/002725_2014-06-22_11-47-51_094959634447_rgbf000070-resize_1-target.png,depth_discrimination_stimuli/002344_2014-06-28_20-06-29_260595134347_rgbf000030-resize_1/002344_2014-06-28_20-06-29_260595134347_rgbf000030-resize_1-target.png,250,2.195,1.5795,0,1019,1002,250,999,371,600,,880185,50,Woman
125863,DepthScenes,v2_duration_discrimination,discrim_jsons/j13.json,http://54.235.3.71/FacialAge/BNav_EC2/DepthDuration/v2_depth_discrimination_MTurk/v2_DepthDiscrim_HTML.html#4,4,1366,625,1366,768,0-14-2022,8-23-28,44,depth_discrimination_stimuli/002445_2014-06-28_20-32-16_260595134347_rgbf000029-resize_4/002445_2014-06-28_20-32-16_260595134347_rgbf000029-resize_4-target.png,depth_discrimination_stimuli/000780_2014-06-08_22-28-29_260595134347_rgbf000126-resize_1/000780_2014-06-08_22-28-29_260595134347_rgbf000126-resize_1-target.png,250,2.5315,3.3825,0,4898,1005,250,999,249,510,,880185,50,Woman
125863,DepthScenes,v2_duration_discrimination,discrim_jsons/j13.json,http://54.235.3.71/FacialAge/BNav_EC2/DepthDuration/v2_depth_discrimination_MTurk/v2_DepthDiscrim_HTML.html#4,4,1366,625,1366,768,0-14-2022,8-23-28,45,depth_discrimination_stimuli/002784_2014-06-22_19-26-30_094959634447_rgbf000083-resize_3/002784_2014-06-22_19-26-30_094959634447_rgbf000083-resize_3-target.png,depth_discrimination_stimuli/001100_2014-06-15_17-46-26_260595134347_rgbf000225-resize_2/001100_2014-06-15_17-46-26_260595134347_rgbf000225-resize_2-target.png,1000,1.8046666666667,2.24,1,3362,1012,1002,994,998,508,,880185,50,Woman
125863,DepthScenes,v2_duration_discrimination,discrim_jsons/j13.json,http://54.235.3.71/FacialAge/BNav_EC2/DepthDuration/v2_depth_discrimination_MTurk/v2_DepthDiscrim_HTML.html#4,4,1366,625,1366,768,0-14-2022,8-23-28,46,depth_discrimination_stimuli/002057_2014-06-24_21-00-13_260595134347_rgbf000120-resize_1/002057_2014-06-24_21-00-13_260595134347_rgbf000120-resize_1-target.png,depth_discrimination_stimuli/000709_2014-06-08_13-51-55_260595134347_rgbf000068-resize_3/000709_2014-06-08_13-51-55_260595134347_rgbf000068-resize_3-target.png,250,2.967,1.803,1,764,1081,170,1001,256,505,,880185,50,Woman
125863,DepthScenes,v2_duration_discrimination,discrim_jsons/j13.json,http://54.235.3.71/FacialAge/BNav_EC2/DepthDuration/v2_depth_discrimination_MTurk/v2_DepthDiscrim_HTML.html#4,4,1366,625,1366,768,0-14-2022,8-23-28,47,depth_discrimination_stimuli/001066_2014-06-08_22-03-20_260595134347_rgbf000066-resize_4/001066_2014-06-08_22-03-20_260595134347_rgbf000066-resize_4-target.png,depth_discrimination_stimuli/000742_2014-06-08_18-48-09_260595134347_rgbf000164-resize_4/000742_2014-06-08_18-48-09_260595134347_rgbf000164-resize_4-target.png,1000,4.233,4.632,1,3132,1002,998,1001,996,499,,880185,50,Woman
125863,DepthScenes,v2_duration_discrimination,discrim_jsons/j13.json,http://54.235.3.71/FacialAge/BNav_EC2/DepthDuration/v2_depth_discrimination_MTurk/v2_DepthDiscrim_HTML.html#4,4,1366,625,1366,768,0-14-2022,8-23-28,48,depth_discrimination_stimuli/000788_2014-06-08_22-34-36_260595134347_rgbf000131-resize_1/000788_2014-06-08_22-34-36_260595134347_rgbf000131-resize_1-target.png,depth_discrimination_stimuli/001235_2014-06-17_16-37-36_260595134347_rgbf000084-resize_4/001235_2014-06-17_16-37-36_260595134347_rgbf000084-resize_4-target.png,250,3.359,3.6605,1,2293,1003,248,1001,253,506,,880185,50,Woman
125863,DepthScenes,v2_duration_discrimination,discrim_jsons/j13.json,http://54.235.3.71/FacialAge/BNav_EC2/DepthDuration/v2_depth_discrimination_MTurk/v2_DepthDiscrim_HTML.html#4,4,1366,625,1366,768,0-14-2022,8-23-28,49,depth_discrimination_stimuli/001055_2014-06-08_18-45-35_260595134347_rgbf000111-resize_4/001055_2014-06-08_18-45-35_260595134347_rgbf000111-resize_4-target.png,depth_discrimination_stimuli/000549_2014-06-08_22-10-24_260595134347_rgbf000247-resize_3/000549_2014-06-08_22-10-24_260595134347_rgbf000247-resize_3-target.png,1000,2.429,1.841,0,2600,1016,986,1015,987,496,,880185,50,Woman
125863,DepthScenes,v2_duration_discrimination,discrim_jsons/j13.json,http://54.235.3.71/FacialAge/BNav_EC2/DepthDuration/v2_depth_discrimination_MTurk/v2_DepthDiscrim_HTML.html#4,4,1366,625,1366,768,0-14-2022,8-23-28,50,depth_discrimination_stimuli/002072_2014-06-24_21-48-06_260595134347_rgbf000115-resize_0/002072_2014-06-24_21-48-06_260595134347_rgbf000115-resize_0-target.png,depth_discrimination_stimuli/002072_2014-06-24_21-48-06_260595134347_rgbf000115-resize_0/002072_2014-06-24_21-48-06_260595134347_rgbf000115-resize_0-target.png,1000,4.702,4.702,0,2718,1002,999,1000,998,501,,880185,50,Woman
125863,DepthScenes,v2_duration_discrimination,discrim_jsons/j13.json,http://54.235.3.71/FacialAge/BNav_EC2/DepthDuration/v2_depth_discrimination_MTurk/v2_DepthDiscrim_HTML.html#4,4,1366,625,1366,768,0-14-2022,8-23-28,51,depth_discrimination_stimuli/000009_2014-05-26_14-32-05_260595134347_rgbf000034-resize_3/000009_2014-05-26_14-32-05_260595134347_rgbf000034-resize_3-target.png,depth_discrimination_stimuli/001828_2014-06-26_21-40-03_260595134347_rgbf000024-resize_0/001828_2014-06-26_21-40-03_260595134347_rgbf000024-resize_0-target.png,250,3.8715,4.826,1,1412,1016,254,996,265,469,,880185,50,Woman
125863,DepthScenes,v2_duration_discrimination,discrim_jsons/j13.json,http://54.235.3.71/FacialAge/BNav_EC2/DepthDuration/v2_depth_discrimination_MTurk/v2_DepthDiscrim_HTML.html#4,4,1366,625,1366,768,0-14-2022,8-23-28,52,depth_discrimination_stimuli/001167_2014-06-17_15-38-07_260595134347_rgbf000108-resize_0/001167_2014-06-17_15-38-07_260595134347_rgbf000108-resize_0-target.png,depth_discrimination_stimuli/003587_2014-05-23_16-48-02_094959634447_rgbf002384-resize_2/003587_2014-05-23_16-48-02_094959634447_rgbf002384-resize_2-target.png,250,1.8505,1.357,0,5013,1005,251,1005,242,504,,880185,50,Woman
125863,DepthScenes,v2_duration_discrimination,discrim_jsons/j13.json,http://54.235.3.71/FacialAge/BNav_EC2/DepthDuration/v2_depth_discrimination_MTurk/v2_DepthDiscrim_HTML.html#4,4,1366,625,1366,768,0-14-2022,8-23-28,53,depth_discrimination_stimuli/000569_2014-06-09_22-51-47_260595134347_rgbf000141-resize_3/000569_2014-06-09_22-51-47_260595134347_rgbf000141-resize_3-target.png,depth_discrimination_stimuli/000569_2014-06-09_22-51-47_260595134347_rgbf000141-resize_3/000569_2014-06-09_22-51-47_260595134347_rgbf000141-resize_3-target.png,1000,4.512,4.512,1,1631,1017,989,1008,1001,496,,880185,50,Woman
125863,DepthScenes,v2_duration_discrimination,discrim_jsons/j13.json,http://54.235.3.71/FacialAge/BNav_EC2/DepthDuration/v2_depth_discrimination_MTurk/v2_DepthDiscrim_HTML.html#4,4,1366,625,1366,768,0-14-2022,8-23-28,54,depth_discrimination_stimuli/001806_2014-06-26_20-50-20_260595134347_rgbf000091-resize_1/001806_2014-06-26_20-50-20_260595134347_rgbf000091-resize_1-target.png,depth_discrimination_stimuli/001617_2014-06-20_11-35-32_260595134347_rgbf000066-resize_1/001617_2014-06-20_11-35-32_260595134347_rgbf000066-resize_1-target.png,250,2.7305,3.791,1,2988,1017,234,1000,248,508,,880185,50,Woman
125863,DepthScenes,v2_duration_discrimination,discrim_jsons/j13.json,http://54.235.3.71/FacialAge/BNav_EC2/DepthDuration/v2_depth_discrimination_MTurk/v2_DepthDiscrim_HTML.html#4,4,1366,625,1366,768,0-14-2022,8-23-28,55,depth_discrimination_stimuli/001724_2014-06-26_19-28-50_260595134347_rgbf000037-resize_7/001724_2014-06-26_19-28-50_260595134347_rgbf000037-resize_7-target.png,depth_discrimination_stimuli/002987_2014-06-08_18-48-20_094959634447_rgbf000022-resize_0/002987_2014-06-08_18-48-20_094959634447_rgbf000022-resize_0-target.png,250,3.827,2.6775,0,2273,1002,250,999,249,500,,880185,50,Woman
125863,DepthScenes,v2_duration_discrimination,discrim_jsons/j13.json,http://54.235.3.71/FacialAge/BNav_EC2/DepthDuration/v2_depth_discrimination_MTurk/v2_DepthDiscrim_HTML.html#4,4,1366,625,1366,768,0-14-2022,8-23-28,56,depth_discrimination_stimuli/000506_2014-06-08_23-21-00_260595134347_rgbf000070-resize_7/000506_2014-06-08_23-21-00_260595134347_rgbf000070-resize_7-target.png,depth_discrimination_stimuli/003079_2014-06-15_15-18-20_094959634447_rgbf000152-resize_8/003079_2014-06-15_15-18-20_094959634447_rgbf000152-resize_8-target.png,1000,4.0585,2.8775,1,3359,1002,1013,986,1002,502,,880185,50,Woman
125863,DepthScenes,v2_duration_discrimination,discrim_jsons/j13.json,http://54.235.3.71/FacialAge/BNav_EC2/DepthDuration/v2_depth_discrimination_MTurk/v2_DepthDiscrim_HTML.html#4,4,1366,625,1366,768,0-14-2022,8-23-28,57,depth_discrimination_stimuli/001133_2014-06-17_14-49-16_260595134347_rgbf000100-resize_0/001133_2014-06-17_14-49-16_260595134347_rgbf000100-resize_0-target.png,depth_discrimination_stimuli/001132_2014-06-17_14-48-54_260595134347_rgbf000100-resize_2/001132_2014-06-17_14-48-54_260595134347_rgbf000100-resize_2-target.png,1000,4.2115,3.753,1,1699,1010,1006,999,987,502,,880185,50,Woman
125863,DepthScenes,v2_duration_discrimination,discrim_jsons/j13.json,http://54.235.3.71/FacialAge/BNav_EC2/DepthDuration/v2_depth_discrimination_MTurk/v2_DepthDiscrim_HTML.html#4,4,1366,625,1366,768,0-14-2022,8-23-28,58,depth_discrimination_stimuli/003288_2014-05-14_21-50-30_094959634447_rgbf000028-resize_3/003288_2014-05-14_21-50-30_094959634447_rgbf000028-resize_3-target.png,depth_discrimination_stimuli/001197_2014-06-17_16-01-50_260595134347_rgbf000103-resize_4/001197_2014-06-17_16-01-50_260595134347_rgbf000103-resize_4-target.png,1000,3.877,3.4025,0,8335,1012,1002,2097,1,475,,880185,50,Woman
125863,DepthScenes,v2_duration_discrimination,discrim_jsons/j13.json,http://54.235.3.71/FacialAge/BNav_EC2/DepthDuration/v2_depth_discrimination_MTurk/v2_DepthDiscrim_HTML.html#4,4,1366,625,1366,768,0-14-2022,8-23-28,59,depth_discrimination_stimuli/000436_2014-06-09_22-25-11_260595134347_rgbf000137-resize_1/000436_2014-06-09_22-25-11_260595134347_rgbf000137-resize_1-target.png,depth_discrimination_stimuli/002444_2014-06-28_20-32-08_260595134347_rgbf000027-resize_0/002444_2014-06-28_20-32-08_260595134347_rgbf000027-resize_0-target.png,1000,4.0705,4.389,1,1574,1003,1020,984,1005,494,,880185,50,Woman
125863,DepthScenes,v2_duration_discrimination,discrim_jsons/j13.json,http://54.235.3.71/FacialAge/BNav_EC2/DepthDuration/v2_depth_discrimination_MTurk/v2_DepthDiscrim_HTML.html#4,4,1366,625,1366,768,0-14-2022,8-23-28,60,depth_discrimination_stimuli/001555_2014-06-20_17-12-10_260595134347_rgbf000065-resize_4/001555_2014-06-20_17-12-10_260595134347_rgbf000065-resize_4-target.png,depth_discrimination_stimuli/000103_2014-05-14_22-01-17_260595134347_rgbf000152-resize_5/000103_2014-05-14_22-01-17_260595134347_rgbf000152-resize_5-target.png,250,1.633,1.993,1,1827,1010,243,1006,248,496,,880185,50,Woman
125863,DepthScenes,v2_duration_discrimination,discrim_jsons/j13.json,http://54.235.3.71/FacialAge/BNav_EC2/DepthDuration/v2_depth_discrimination_MTurk/v2_DepthDiscrim_HTML.html#4,4,1366,625,1366,768,0-14-2022,8-23-28,61,depth_discrimination_stimuli/000758_2014-06-08_22-05-08_260595134347_rgbf000085-resize_0/000758_2014-06-08_22-05-08_260595134347_rgbf000085-resize_0-target.png,depth_discrimination_stimuli/000854_2014-06-09_19-43-13_260595134347_rgbf000066-resize_0/000854_2014-06-09_19-43-13_260595134347_rgbf000066-resize_0-target.png,1000,3.381,3.068,1,3693,1006,997,1010,1000,492,,880185,50,Woman
125863,DepthScenes,v2_duration_discrimination,discrim_jsons/j13.json,http://54.235.3.71/FacialAge/BNav_EC2/DepthDuration/v2_depth_discrimination_MTurk/v2_DepthDiscrim_HTML.html#4,4,1366,625,1366,768,0-14-2022,8-23-28,62,depth_discrimination_stimuli/001417_2014-06-19_16-25-36_260595134347_rgbf000115-resize_5/001417_2014-06-19_16-25-36_260595134347_rgbf000115-resize_5-target.png,depth_discrimination_stimuli/003081_2014-06-15_15-19-16_094959634447_rgbf000150-resize_1/003081_2014-06-15_15-19-16_094959634447_rgbf000150-resize_1-target.png,1000,4.6255,3.9125,0,2204,1007,1000,995,1072,434,,880185,50,Woman
125863,DepthScenes,v2_duration_discrimination,discrim_jsons/j13.json,http://54.235.3.71/FacialAge/BNav_EC2/DepthDuration/v2_depth_discrimination_MTurk/v2_DepthDiscrim_HTML.html#4,4,1366,625,1366,768,0-14-2022,8-23-28,63,depth_discrimination_stimuli/001059_2014-06-08_21-53-27_260595134347_rgbf000061-resize_4/001059_2014-06-08_21-53-27_260595134347_rgbf000061-resize_4-target.png,depth_discrimination_stimuli/001032_2014-06-08_13-23-17_260595134347_rgbf000021-resize_3/001032_2014-06-08_13-23-17_260595134347_rgbf000021-resize_3-target.png,250,2.4185,3.2725,1,1250,1013,251,986,258,501,,880185,50,Woman
125863,DepthScenes,v2_duration_discrimination,discrim_jsons/j13.json,http://54.235.3.71/FacialAge/BNav_EC2/DepthDuration/v2_depth_discrimination_MTurk/v2_DepthDiscrim_HTML.html#4,4,1366,625,1366,768,0-14-2022,8-23-28,64,depth_discrimination_stimuli/002905_2014-06-03_18-04-43_094959634447_rgbf000151-resize_2/002905_2014-06-03_18-04-43_094959634447_rgbf000151-resize_2-target.png,depth_discrimination_stimuli/003423_2014-05-21_10-23-26_094959634447_rgbf002665-resize_2/003423_2014-05-21_10-23-26_094959634447_rgbf002665-resize_2-target.png,250,2.0295,3.2575,1,910,1002,254,1005,241,518,,880185,50,Woman
125863,DepthScenes,v2_duration_discrimination,discrim_jsons/j13.json,http://54.235.3.71/FacialAge/BNav_EC2/DepthDuration/v2_depth_discrimination_MTurk/v2_DepthDiscrim_HTML.html#4,4,1366,625,1366,768,0-14-2022,8-23-28,65,depth_discrimination_stimuli/001092_2014-06-15_17-34-58_260595134347_rgbf000171-resize_3/001092_2014-06-15_17-34-58_260595134347_rgbf000171-resize_3-target.png,depth_discrimination_stimuli/002545_2014-06-24_13-38-53_094959634447_rgbf000080-resize_4/002545_2014-06-24_13-38-53_094959634447_rgbf000080-resize_4-target.png,1000,2.6935,1.9205,1,1814,1003,1000,1006,1002,499,,880185,50,Woman
125863,DepthScenes,v2_duration_discrimination,discrim_jsons/j13.json,http://54.235.3.71/FacialAge/BNav_EC2/DepthDuration/v2_depth_discrimination_MTurk/v2_DepthDiscrim_HTML.html#4,4,1366,625,1366,768,0-14-2022,8-23-28,66,depth_discrimination_stimuli/000739_2014-06-08_18-45-58_260595134347_rgbf000068-resize_1/000739_2014-06-08_18-45-58_260595134347_rgbf000068-resize_1-target.png,depth_discrimination_stimuli/000734_2014-06-08_17-39-11_260595134347_rgbf000128-resize_2/000734_2014-06-08_17-39-11_260595134347_rgbf000128-resize_2-target.png,1000,3.534,4.098,0,1501,1006,1001,1004,1002,483,,880185,50,Woman
125863,DepthScenes,v2_duration_discrimination,discrim_jsons/j13.json,http://54.235.3.71/FacialAge/BNav_EC2/DepthDuration/v2_depth_discrimination_MTurk/v2_DepthDiscrim_HTML.html#4,4,1366,625,1366,768,0-14-2022,8-23-28,67,depth_discrimination_stimuli/000773_2014-06-08_22-24-54_260595134347_rgbf000093-resize_1/000773_2014-06-08_22-24-54_260595134347_rgbf000093-resize_1-target.png,depth_discrimination_stimuli/002414_2014-06-28_20-24-58_260595134347_rgbf000067-resize_4/002414_2014-06-28_20-24-58_260595134347_rgbf000067-resize_4-target.png,250,4.973,4.363,1,920,1008,247,999,259,488,,880185,50,Woman
125863,DepthScenes,v2_duration_discrimination,discrim_jsons/j13.json,http://54.235.3.71/FacialAge/BNav_EC2/DepthDuration/v2_depth_discrimination_MTurk/v2_DepthDiscrim_HTML.html#4,4,1366,625,1366,768,0-14-2022,8-23-28,68,depth_discrimination_stimuli/002043_2014-06-24_20-29-38_260595134347_rgbf000039-resize_4/002043_2014-06-24_20-29-38_260595134347_rgbf000039-resize_4-target.png,depth_discrimination_stimuli/003048_2014-06-15_13-49-43_094959634447_rgbf000150-resize_1/003048_2014-06-15_13-49-43_094959634447_rgbf000150-resize_1-target.png,250,2.8435,4.0035,1,904,1001,249,1001,248,500,,880185,50,Woman
125863,DepthScenes,v2_duration_discrimination,discrim_jsons/j13.json,http://54.235.3.71/FacialAge/BNav_EC2/DepthDuration/v2_depth_discrimination_MTurk/v2_DepthDiscrim_HTML.html#4,4,1366,625,1366,768,0-14-2022,8-23-28,69,depth_discrimination_stimuli/002305_2014-06-28_19-56-50_260595134347_rgbf000102-resize_7/002305_2014-06-28_19-56-50_260595134347_rgbf000102-resize_7-target.png,depth_discrimination_stimuli/000735_2014-06-08_18-23-50_260595134347_rgbf000163-resize_2/000735_2014-06-08_18-23-50_260595134347_rgbf000163-resize_2-target.png,250,4.8725,4.1695,0,3300,1003,248,1000,458,494,,880185,50,Woman
125863,DepthScenes,v2_duration_discrimination,discrim_jsons/j13.json,http://54.235.3.71/FacialAge/BNav_EC2/DepthDuration/v2_depth_discrimination_MTurk/v2_DepthDiscrim_HTML.html#4,4,1366,625,1366,768,0-14-2022,8-23-28,70,depth_discrimination_stimuli/000486_2014-06-09_20-47-20_260595134347_rgbf000143-resize_2/000486_2014-06-09_20-47-20_260595134347_rgbf000143-resize_2-target.png,depth_discrimination_stimuli/003083_2014-06-15_15-21-03_094959634447_rgbf000063-resize_1/003083_2014-06-15_15-21-03_094959634447_rgbf000063-resize_1-target.png,1000,4.8325,4.1405,1,1684,1002,1008,1791,196,500,,880185,50,Woman
125863,DepthScenes,v2_duration_discrimination,discrim_jsons/j13.json,http://54.235.3.71/FacialAge/BNav_EC2/DepthDuration/v2_depth_discrimination_MTurk/v2_DepthDiscrim_HTML.html#4,4,1366,625,1366,768,0-14-2022,8-23-28,71,depth_discrimination_stimuli/001016_2014-06-09_16-16-10_260595134347_rgbf000112-resize_5/001016_2014-06-09_16-16-10_260595134347_rgbf000112-resize_5-target.png,depth_discrimination_stimuli/002340_2014-06-28_20-05-46_260595134347_rgbf000113-resize_0/002340_2014-06-28_20-05-46_260595134347_rgbf000113-resize_0-target.png,250,1.6565,2.4735,0,1542,1042,215,992,251,498,,880185,50,Woman
125863,DepthScenes,v2_duration_discrimination,discrim_jsons/j13.json,http://54.235.3.71/FacialAge/BNav_EC2/DepthDuration/v2_depth_discrimination_MTurk/v2_DepthDiscrim_HTML.html#4,4,1366,625,1366,768,0-14-2022,8-23-28,72,depth_discrimination_stimuli/000642_2014-06-08_16-59-25_260595134347_rgbf000098-resize_2/000642_2014-06-08_16-59-25_260595134347_rgbf000098-resize_2-target.png,depth_discrimination_stimuli/002425_2014-06-28_20-27-29_260595134347_rgbf000031-resize_8/002425_2014-06-28_20-27-29_260595134347_rgbf000031-resize_8-target.png,250,2.8815,3.896,0,1311,1011,256,1012,229,490,,880185,50,Woman
125863,DepthScenes,v2_duration_discrimination,discrim_jsons/j13.json,http://54.235.3.71/FacialAge/BNav_EC2/DepthDuration/v2_depth_discrimination_MTurk/v2_DepthDiscrim_HTML.html#4,4,1366,625,1366,768,0-14-2022,8-23-28,73,depth_discrimination_stimuli/001264_2014-06-16_16-10-23_260595134347_rgbf000109-resize_1/001264_2014-06-16_16-10-23_260595134347_rgbf000109-resize_1-target.png,depth_discrimination_stimuli/002139_2014-06-25_21-19-37_260595134347_rgbf000124-resize_2/002139_2014-06-25_21-19-37_260595134347_rgbf000124-resize_2-target.png,250,2.9665,2.107,0,4478,1016,246,990,259,504,,880185,50,Woman
125863,DepthScenes,v2_duration_discrimination,discrim_jsons/j13.json,http://54.235.3.71/FacialAge/BNav_EC2/DepthDuration/v2_depth_discrimination_MTurk/v2_DepthDiscrim_HTML.html#4,4,1366,625,1366,768,0-14-2022,8-23-28,74,depth_discrimination_stimuli/001170_2014-06-17_15-43-44_260595134347_rgbf000096-resize_6/001170_2014-06-17_15-43-44_260595134347_rgbf000096-resize_6-target.png,depth_discrimination_stimuli/001170_2014-06-17_15-43-44_260595134347_rgbf000096-resize_6/001170_2014-06-17_15-43-44_260595134347_rgbf000096-resize_6-target.png,250,1.191,1.191,1,11784,1008,244,1004,245,504,,880185,50,Woman
125863,DepthScenes,v2_duration_discrimination,discrim_jsons/j13.json,http://54.235.3.71/FacialAge/BNav_EC2/DepthDuration/v2_depth_discrimination_MTurk/v2_DepthDiscrim_HTML.html#4,4,1366,625,1366,768,0-14-2022,8-23-28,75,depth_discrimination_stimuli/002153_2014-06-25_21-27-18_260595134347_rgbf000038-resize_5/002153_2014-06-25_21-27-18_260595134347_rgbf000038-resize_5-target.png,depth_discrimination_stimuli/002660_2014-06-13_15-44-18_094959634447_rgbf001878-resize_2/002660_2014-06-13_15-44-18_094959634447_rgbf001878-resize_2-target.png,250,2.505,3.576,1,3468,1003,261,1749,0,1,,880185,50,Woman
125863,DepthScenes,v2_duration_discrimination,discrim_jsons/j13.json,http://54.235.3.71/FacialAge/BNav_EC2/DepthDuration/v2_depth_discrimination_MTurk/v2_DepthDiscrim_HTML.html#4,4,1366,625,1366,768,0-14-2022,8-23-28,76,depth_discrimination_stimuli/002630_2014-06-24_14-47-50_094959634447_rgbf000055-resize_1/002630_2014-06-24_14-47-50_094959634447_rgbf000055-resize_1-target.png,depth_discrimination_stimuli/002758_2014-06-22_19-11-20_094959634447_rgbf000128-resize_1/002758_2014-06-22_19-11-20_094959634447_rgbf000128-resize_1-target.png,1000,3.0095,2.555,0,2267,1007,1016,980,997,503,,880185,50,Woman
125863,DepthScenes,v2_duration_discrimination,discrim_jsons/j13.json,http://54.235.3.71/FacialAge/BNav_EC2/DepthDuration/v2_depth_discrimination_MTurk/v2_DepthDiscrim_HTML.html#4,4,1366,625,1366,768,0-14-2022,8-23-28,77,depth_discrimination_stimuli/003534_2014-05-22_15-06-10_094959634447_rgbf000102-resize_4/003534_2014-05-22_15-06-10_094959634447_rgbf000102-resize_4-target.png,depth_discrimination_stimuli/002637_2014-06-24_14-51-13_094959634447_rgbf000066-resize_4/002637_2014-06-24_14-51-13_094959634447_rgbf000066-resize_4-target.png,1000,1.426,1.9955,1,2057,1017,983,999,1000,501,,880185,50,Woman
125863,DepthScenes,v2_duration_discrimination,discrim_jsons/j13.json,http://54.235.3.71/FacialAge/BNav_EC2/DepthDuration/v2_depth_discrimination_MTurk/v2_DepthDiscrim_HTML.html#4,4,1366,625,1366,768,0-14-2022,8-23-28,78,depth_discrimination_stimuli/003546_2014-05-22_15-48-53_094959634447_rgbf004816-resize_3/003546_2014-05-22_15-48-53_094959634447_rgbf004816-resize_3-target.png,depth_discrimination_stimuli/001532_2014-06-20_16-50-41_260595134347_rgbf000081-resize_4/001532_2014-06-20_16-50-41_260595134347_rgbf000081-resize_4-target.png,1000,2.62625,1.5758333333333,1,2306,1003,1000,1108,743,500,,880185,50,Woman
125863,DepthScenes,v2_duration_discrimination,discrim_jsons/j13.json,http://54.235.3.71/FacialAge/BNav_EC2/DepthDuration/v2_depth_discrimination_MTurk/v2_DepthDiscrim_HTML.html#4,4,1366,625,1366,768,0-14-2022,8-23-28,79,depth_discrimination_stimuli/001056_2014-06-08_18-46-44_260595134347_rgbf000068-resize_0/001056_2014-06-08_18-46-44_260595134347_rgbf000068-resize_0-target.png,depth_discrimination_stimuli/002199_2014-06-28_18-33-56_260595134347_rgbf000074-resize_0/002199_2014-06-28_18-33-56_260595134347_rgbf000074-resize_0-target.png,1000,2.6625,1.996,1,1911,1012,988,1001,999,501,,880185,50,Woman
125863,DepthScenes,v2_duration_discrimination,discrim_jsons/j13.json,http://54.235.3.71/FacialAge/BNav_EC2/DepthDuration/v2_depth_discrimination_MTurk/v2_DepthDiscrim_HTML.html#4,4,1366,625,1366,768,0-14-2022,8-23-28,80,depth_discrimination_stimuli/003621_2014-05-23_18-06-08_094959634447_rgbf000101-resize_1/003621_2014-05-23_18-06-08_094959634447_rgbf000101-resize_1-target.png,depth_discrimination_stimuli/001584_2014-06-20_11-07-43_260595134347_rgbf000002-resize_1/001584_2014-06-20_11-07-43_260595134347_rgbf000002-resize_1-target.png,250,3.9835,3.53,1,2126,1004,247,1000,249,500,,880185,50,Woman
125863,DepthScenes,v2_duration_discrimination,discrim_jsons/j13.json,http://54.235.3.71/FacialAge/BNav_EC2/DepthDuration/v2_depth_discrimination_MTurk/v2_DepthDiscrim_HTML.html#4,4,1366,625,1366,768,0-14-2022,8-23-28,81,depth_discrimination_stimuli/002663_2014-06-13_15-50-26_094959634447_rgbf000075-resize_1/002663_2014-06-13_15-50-26_094959634447_rgbf000075-resize_1-target.png,depth_discrimination_stimuli/000409_2014-06-04_19-23-33_260595134347_rgbf000067-resize_0/000409_2014-06-04_19-23-33_260595134347_rgbf000067-resize_0-target.png,1000,4.7495,3.7335,0,2449,1002,1478,1000,526,503,,880185,50,Woman
125863,DepthScenes,v2_duration_discrimination,discrim_jsons/j13.json,http://54.235.3.71/FacialAge/BNav_EC2/DepthDuration/v2_depth_discrimination_MTurk/v2_DepthDiscrim_HTML.html#4,4,1366,625,1366,768,0-14-2022,8-23-28,82,depth_discrimination_stimuli/002763_2014-06-22_19-13-10_094959634447_rgbf000075-resize_4/002763_2014-06-22_19-13-10_094959634447_rgbf000075-resize_4-target.png,depth_discrimination_stimuli/002209_2014-06-28_18-36-10_260595134347_rgbf000051-resize_1/002209_2014-06-28_18-36-10_260595134347_rgbf000051-resize_1-target.png,1000,1.68375,2.057,1,4467,1003,1004,1001,1000,494,,880185,50,Woman
125863,DepthScenes,v2_duration_discrimination,discrim_jsons/j13.json,http://54.235.3.71/FacialAge/BNav_EC2/DepthDuration/v2_depth_discrimination_MTurk/v2_DepthDiscrim_HTML.html#4,4,1366,625,1366,768,0-14-2022,8-23-28,83,depth_discrimination_stimuli/000810_2014-06-08_17-20-01_260595134347_rgbf000105-resize_0/000810_2014-06-08_17-20-01_260595134347_rgbf000105-resize_0-target.png,depth_discrimination_stimuli/001214_2014-06-17_16-13-55_260595134347_rgbf000111-resize_0/001214_2014-06-17_16-13-55_260595134347_rgbf000111-resize_0-target.png,250,1.4865,2.6505,0,2927,1003,258,993,246,501,,880185,50,Woman
125863,DepthScenes,v2_duration_discrimination,discrim_jsons/j13.json,http://54.235.3.71/FacialAge/BNav_EC2/DepthDuration/v2_depth_discrimination_MTurk/v2_DepthDiscrim_HTML.html#4,4,1366,625,1366,768,0-14-2022,8-23-28,84,depth_discrimination_stimuli/000470_2014-06-09_19-42-40_260595134347_rgbf000094-resize_1/000470_2014-06-09_19-42-40_260595134347_rgbf000094-resize_1-target.png,depth_discrimination_stimuli/000109_2014-05-14_23-41-52_260595134347_rgbf000035-resize_9/000109_2014-05-14_23-41-52_260595134347_rgbf000035-resize_9-target.png,1000,1.831,1.3545,0,2348,1008,1007,999,988,588,,880185,50,Woman
125863,DepthScenes,v2_duration_discrimination,discrim_jsons/j13.json,http://54.235.3.71/FacialAge/BNav_EC2/DepthDuration/v2_depth_discrimination_MTurk/v2_DepthDiscrim_HTML.html#4,4,1366,625,1366,768,0-14-2022,8-23-28,85,depth_discrimination_stimuli/001449_2014-06-19_17-01-27_260595134347_rgbf000116-resize_2/001449_2014-06-19_17-01-27_260595134347_rgbf000116-resize_2-target.png,depth_discrimination_stimuli/001450_2014-06-19_17-02-03_260595134347_rgbf000203-resize_4/001450_2014-06-19_17-02-03_260595134347_rgbf000203-resize_4-target.png,250,3.452,4.0106666666667,0,2751,1005,255,993,251,499,,880185,50,Woman
125863,DepthScenes,v2_duration_discrimination,discrim_jsons/j13.json,http://54.235.3.71/FacialAge/BNav_EC2/DepthDuration/v2_depth_discrimination_MTurk/v2_DepthDiscrim_HTML.html#4,4,1366,625,1366,768,0-14-2022,8-23-28,86,depth_discrimination_stimuli/002039_2014-06-24_20-22-38_260595134347_rgbf000084-resize_1/002039_2014-06-24_20-22-38_260595134347_rgbf000084-resize_1-target.png,depth_discrimination_stimuli/002103_2014-06-25_20-00-40_260595134347_rgbf000049-resize_0/002103_2014-06-25_20-00-40_260595134347_rgbf000049-resize_0-target.png,1000,4.408,4.105,0,2704,1021,978,1000,1000,500,,880185,50,Woman
125863,DepthScenes,v2_duration_discrimination,discrim_jsons/j13.json,http://54.235.3.71/FacialAge/BNav_EC2/DepthDuration/v2_depth_discrimination_MTurk/v2_DepthDiscrim_HTML.html#4,4,1366,625,1366,768,0-14-2022,8-23-28,87,depth_discrimination_stimuli/000917_2014-06-09_22-45-29_260595134347_rgbf000149-resize_3/000917_2014-06-09_22-45-29_260595134347_rgbf000149-resize_3-target.png,depth_discrimination_stimuli/002323_2014-06-28_20-01-54_260595134347_rgbf000051-resize_4/002323_2014-06-28_20-01-54_260595134347_rgbf000051-resize_4-target.png,1000,4.1865,3.731,0,2404,1010,1188,813,998,494,,880185,50,Woman
125863,DepthScenes,v2_duration_discrimination,discrim_jsons/j13.json,http://54.235.3.71/FacialAge/BNav_EC2/DepthDuration/v2_depth_discrimination_MTurk/v2_DepthDiscrim_HTML.html#4,4,1366,625,1366,768,0-14-2022,8-23-28,88,depth_discrimination_stimuli/001188_2014-06-17_15-54-10_260595134347_rgbf000090-resize_2/001188_2014-06-17_15-54-10_260595134347_rgbf000090-resize_2-target.png,depth_discrimination_stimuli/002464_2014-06-28_20-36-57_260595134347_rgbf000029-resize_0/002464_2014-06-28_20-36-57_260595134347_rgbf000029-resize_0-target.png,250,2.744,3.9525,1,1224,1002,251,997,248,501,,880185,50,Woman
125863,DepthScenes,v2_duration_discrimination,discrim_jsons/j13.json,http://54.235.3.71/FacialAge/BNav_EC2/DepthDuration/v2_depth_discrimination_MTurk/v2_DepthDiscrim_HTML.html#4,4,1366,625,1366,768,0-14-2022,8-23-28,89,depth_discrimination_stimuli/000636_2014-06-08_16-39-02_260595134347_rgbf000108-resize_4/000636_2014-06-08_16-39-02_260595134347_rgbf000108-resize_4-target.png,depth_discrimination_stimuli/000521_2014-06-08_13-34-35_260595134347_rgbf000191-resize_2/000521_2014-06-08_13-34-35_260595134347_rgbf000191-resize_2-target.png,1000,2.682,3.0385,1,1679,1016,1000,994,998,494,,880185,50,Woman
125863,DepthScenes,v2_duration_discrimination,discrim_jsons/j13.json,http://54.235.3.71/FacialAge/BNav_EC2/DepthDuration/v2_depth_discrimination_MTurk/v2_DepthDiscrim_HTML.html#4,4,1366,625,1366,768,0-14-2022,8-23-28,90,depth_discrimination_stimuli/002509_2014-06-24_13-19-22_094959634447_rgbf000077-resize_0/002509_2014-06-24_13-19-22_094959634447_rgbf000077-resize_0-target.png,depth_discrimination_stimuli/003338_2014-05-20_11-01-23_094959634447_rgbf000051-resize_6/003338_2014-05-20_11-01-23_094959634447_rgbf000051-resize_6-target.png,1000,1.3065,1.693,1,1547,1003,1012,993,998,496,,880185,50,Woman
125863,DepthScenes,v2_duration_discrimination,discrim_jsons/j13.json,http://54.235.3.71/FacialAge/BNav_EC2/DepthDuration/v2_depth_discrimination_MTurk/v2_DepthDiscrim_HTML.html#4,4,1366,625,1366,768,0-14-2022,8-23-28,91,depth_discrimination_stimuli/001540_2014-06-20_17-01-05_260595134347_rgbf000086-resize_2/001540_2014-06-20_17-01-05_260595134347_rgbf000086-resize_2-target.png,depth_discrimination_stimuli/001540_2014-06-20_17-01-05_260595134347_rgbf000086-resize_2/001540_2014-06-20_17-01-05_260595134347_rgbf000086-resize_2-target.png,250,1.459,1.459,0,1661,1012,249,993,260,495,,880185,50,Woman
125863,DepthScenes,v2_duration_discrimination,discrim_jsons/j13.json,http://54.235.3.71/FacialAge/BNav_EC2/DepthDuration/v2_depth_discrimination_MTurk/v2_DepthDiscrim_HTML.html#4,4,1366,625,1366,768,0-14-2022,8-23-28,92,depth_discrimination_stimuli/000753_2014-06-08_21-57-44_260595134347_rgbf000123-resize_3/000753_2014-06-08_21-57-44_260595134347_rgbf000123-resize_3-target.png,depth_discrimination_stimuli/000830_2014-06-04_19-49-31_260595134347_rgbf000096-resize_2/000830_2014-06-04_19-49-31_260595134347_rgbf000096-resize_2-target.png,250,1.916,2.6353333333333,0,1848,1015,331,918,249,493,,880185,50,Woman
125863,DepthScenes,v2_duration_discrimination,discrim_jsons/j13.json,http://54.235.3.71/FacialAge/BNav_EC2/DepthDuration/v2_depth_discrimination_MTurk/v2_DepthDiscrim_HTML.html#4,4,1366,625,1366,768,0-14-2022,8-23-28,93,depth_discrimination_stimuli/000878_2014-06-08_22-52-45_260595134347_rgbf000045-resize_2/000878_2014-06-08_22-52-45_260595134347_rgbf000045-resize_2-target.png,depth_discrimination_stimuli/002953_2014-06-08_17-32-18_094959634447_rgbf000059-resize_5/002953_2014-06-08_17-32-18_094959634447_rgbf000059-resize_5-target.png,1000,2.092,1.551,0,6950,1001,998,1001,1016,489,,880185,50,Woman
125863,DepthScenes,v2_duration_discrimination,discrim_jsons/j13.json,http://54.235.3.71/FacialAge/BNav_EC2/DepthDuration/v2_depth_discrimination_MTurk/v2_DepthDiscrim_HTML.html#4,4,1366,625,1366,768,0-14-2022,8-23-28,94,depth_discrimination_stimuli/001222_2014-06-17_16-24-06_260595134347_rgbf000073-resize_0/001222_2014-06-17_16-24-06_260595134347_rgbf000073-resize_0-target.png,depth_discrimination_stimuli/001222_2014-06-17_16-24-06_260595134347_rgbf000073-resize_0/001222_2014-06-17_16-24-06_260595134347_rgbf000073-resize_0-target.png,250,1.4385,1.4385,1,804,1014,248,1003,248,489,,880185,50,Woman
125863,DepthScenes,v2_duration_discrimination,discrim_jsons/j13.json,http://54.235.3.71/FacialAge/BNav_EC2/DepthDuration/v2_depth_discrimination_MTurk/v2_DepthDiscrim_HTML.html#4,4,1366,625,1366,768,0-14-2022,8-23-28,95,depth_discrimination_stimuli/003228_2014-05-14_13-42-35_094959634447_rgbf000101-resize_1/003228_2014-05-14_13-42-35_094959634447_rgbf000101-resize_1-target.png,depth_discrimination_stimuli/002600_2014-06-24_14-27-04_094959634447_rgbf000074-resize_2/002600_2014-06-24_14-27-04_094959634447_rgbf000074-resize_2-target.png,1000,1.968,2.7575,1,2454,1015,999,998,992,498,,880185,50,Woman
125863,DepthScenes,v2_duration_discrimination,discrim_jsons/j13.json,http://54.235.3.71/FacialAge/BNav_EC2/DepthDuration/v2_depth_discrimination_MTurk/v2_DepthDiscrim_HTML.html#4,4,1366,625,1366,768,0-14-2022,8-23-28,96,depth_discrimination_stimuli/000522_2014-06-08_13-35-06_260595134347_rgbf000244-resize_1/000522_2014-06-08_13-35-06_260595134347_rgbf000244-resize_1-target.png,depth_discrimination_stimuli/002949_2014-06-26_15-57-42_094959634447_rgbf000079-resize_1/002949_2014-06-26_15-57-42_094959634447_rgbf000079-resize_1-target.png,250,2.3715,1.8915,1,1710,1014,248,996,246,508,,880185,50,Woman
125863,DepthScenes,v2_duration_discrimination,discrim_jsons/j13.json,http://54.235.3.71/FacialAge/BNav_EC2/DepthDuration/v2_depth_discrimination_MTurk/v2_DepthDiscrim_HTML.html#4,4,1366,625,1366,768,0-14-2022,8-23-28,97,depth_discrimination_stimuli/003069_2014-06-15_14-57-50_094959634447_rgbf000150-resize_4/003069_2014-06-15_14-57-50_094959634447_rgbf000150-resize_4-target.png,depth_discrimination_stimuli/002700_2014-06-22_11-27-02_094959634447_rgbf000124-resize_3/002700_2014-06-22_11-27-02_094959634447_rgbf000124-resize_3-target.png,1000,4.208,3.301,1,2458,1003,1039,966,991,509,,880185,50,Woman
125863,DepthScenes,v2_duration_discrimination,discrim_jsons/j13.json,http://54.235.3.71/FacialAge/BNav_EC2/DepthDuration/v2_depth_discrimination_MTurk/v2_DepthDiscrim_HTML.html#4,4,1366,625,1366,768,0-14-2022,8-23-28,98,depth_discrimination_stimuli/002570_2014-06-24_13-59-54_094959634447_rgbf000059-resize_0/002570_2014-06-24_13-59-54_094959634447_rgbf000059-resize_0-target.png,depth_discrimination_stimuli/002467_2014-06-28_20-38-07_260595134347_rgbf000026-resize_2/002467_2014-06-28_20-38-07_260595134347_rgbf000026-resize_2-target.png,1000,4.037,4.742,1,1776,1013,992,1013,992,505,,880185,50,Woman
125863,DepthScenes,v2_duration_discrimination,discrim_jsons/j13.json,http://54.235.3.71/FacialAge/BNav_EC2/DepthDuration/v2_depth_discrimination_MTurk/v2_DepthDiscrim_HTML.html#4,4,1366,625,1366,768,0-14-2022,8-23-28,99,depth_discrimination_stimuli/002875_2014-06-01_15-19-00_094959634447_rgbf000151-resize_1/002875_2014-06-01_15-19-00_094959634447_rgbf000151-resize_1-target.png,depth_discrimination_stimuli/001011_2014-06-08_23-18-54_260595134347_rgbf000044-resize_4/001011_2014-06-08_23-18-54_260595134347_rgbf000044-resize_4-target.png,1000,1.9675,2.473,1,1736,1008,995,1000,998,507,,880185,50,Woman
125863,DepthScenes,v2_duration_discrimination,discrim_jsons/j13.json,http://54.235.3.71/FacialAge/BNav_EC2/DepthDuration/v2_depth_discrimination_MTurk/v2_DepthDiscrim_HTML.html#4,4,1366,625,1366,768,0-14-2022,8-23-28,100,depth_discrimination_stimuli/000414_2014-06-04_19-49-13_260595134347_rgbf000044-resize_0/000414_2014-06-04_19-49-13_260595134347_rgbf000044-resize_0-target.png,depth_discrimination_stimuli/003129_2014-05-12_10-48-10_094959634447_rgbf000100-resize_0/003129_2014-05-12_10-48-10_094959634447_rgbf000100-resize_0-target.png,250,4.329,4.9305,1,1038,1004,259,998,238,513,,880185,50,Woman
125863,DepthScenes,v2_duration_discrimination,discrim_jsons/j13.json,http://54.235.3.71/FacialAge/BNav_EC2/DepthDuration/v2_depth_discrimination_MTurk/v2_DepthDiscrim_HTML.html#4,4,1366,625,1366,768,0-14-2022,8-23-28,101,depth_discrimination_stimuli/002579_2014-06-24_14-08-03_094959634447_rgbf000061-resize_2/002579_2014-06-24_14-08-03_094959634447_rgbf000061-resize_2-target.png,depth_discrimination_stimuli/002468_2014-06-28_20-38-39_260595134347_rgbf000045-resize_1/002468_2014-06-28_20-38-39_260595134347_rgbf000045-resize_1-target.png,250,2.223125,1.956,1,929,1005,249,1009,246,511,,880185,50,Woman
125863,DepthScenes,v2_duration_discrimination,discrim_jsons/j13.json,http://54.235.3.71/FacialAge/BNav_EC2/DepthDuration/v2_depth_discrimination_MTurk/v2_DepthDiscrim_HTML.html#4,4,1366,625,1366,768,0-14-2022,8-23-28,102,depth_discrimination_stimuli/003092_2014-06-24_21-01-49_094959634447_rgbf000049-resize_2/003092_2014-06-24_21-01-49_094959634447_rgbf000049-resize_2-target.png,depth_discrimination_stimuli/000869_2014-06-09_20-50-18_260595134347_rgbf000060-resize_3/000869_2014-06-09_20-50-18_260595134347_rgbf000060-resize_3-target.png,1000,1.666,2.266,1,1623,1003,1000,1000,998,502,,880185,50,Woman
125863,DepthScenes,v2_duration_discrimination,discrim_jsons/j13.json,http://54.235.3.71/FacialAge/BNav_EC2/DepthDuration/v2_depth_discrimination_MTurk/v2_DepthDiscrim_HTML.html#4,4,1366,625,1366,768,0-14-2022,8-23-28,102,,,,,,,1623,1003,1000,1000,998,502,,880185,50,Woman
