subjID,experimentName,versionName,sequenceName,url,selected_row,windowWidth,windowHeight,screenWidth,screenHeight,startDate,startTime,trial,stimulus_0,stimulus_1,duration,actual_depth_0,actual_depth_1,discrim_choice,trial_RT,log_fixation,log_sceneDuration1,log_mask1,log_sceneDuration2,log_mask2,experimentTime,totalTime,age,gender
286742,DepthScenes,v2_duration_discrimination,discrim_jsons/v2_shuffled_g0_rotated.json,http://54.210.137.18/DepthDuration/v2_depth_discrimination_MTurk/v2_DepthDiscrim_HTML.html#3,3,1366,768,1366,768,10-16-2021,10-14-55,1,depth_discrimination_stimuli/000109_2014-05-14_23-41-52_260595134347_rgbf000035-resize_9/000109_2014-05-14_23-41-52_260595134347_rgbf000035-resize_9-target.png,depth_discrimination_stimuli/001618_2014-06-20_11-37-31_260595134347_rgbf000027-resize_3/001618_2014-06-20_11-37-31_260595134347_rgbf000027-resize_3-target.png,250,1.3545,1.8725,1,1277,1008,248,1003,244,499,,616889,69,Woman
286742,DepthScenes,v2_duration_discrimination,discrim_jsons/v2_shuffled_g0_rotated.json,http://54.210.137.18/DepthDuration/v2_depth_discrimination_MTurk/v2_DepthDiscrim_HTML.html#3,3,1366,768,1366,768,10-16-2021,10-14-55,2,depth_discrimination_stimuli/000502_2014-06-08_23-02-32_260595134347_rgbf000063-resize_4/000502_2014-06-08_23-02-32_260595134347_rgbf000063-resize_4-target.png,depth_discrimination_stimuli/001092_2014-06-15_17-34-58_260595134347_rgbf000171-resize_3/001092_2014-06-15_17-34-58_260595134347_rgbf000171-resize_3-target.png,1000,2.431,2.6935,1,2061,1015,986,1011,989,508,,616889,69,Woman
286742,DepthScenes,v2_duration_discrimination,discrim_jsons/v2_shuffled_g0_rotated.json,http://54.210.137.18/DepthDuration/v2_depth_discrimination_MTurk/v2_DepthDiscrim_HTML.html#3,3,1366,768,1366,768,10-16-2021,10-14-55,3,depth_discrimination_stimuli/000953_2014-06-08_11-42-19_260595134347_rgbf000083-resize_0/000953_2014-06-08_11-42-19_260595134347_rgbf000083-resize_0-target.png,depth_discrimination_stimuli/000953_2014-06-08_11-42-19_260595134347_rgbf000083-resize_0/000953_2014-06-08_11-42-19_260595134347_rgbf000083-resize_0-target.png,250,1.369,1.369,3,1619,1005,248,1000,260,489,,616889,69,Woman
286742,DepthScenes,v2_duration_discrimination,discrim_jsons/v2_shuffled_g0_rotated.json,http://54.210.137.18/DepthDuration/v2_depth_discrimination_MTurk/v2_DepthDiscrim_HTML.html#3,3,1366,768,1366,768,10-16-2021,10-14-55,4,depth_discrimination_stimuli/000742_2014-06-08_18-48-09_260595134347_rgbf000164-resize_4/000742_2014-06-08_18-48-09_260595134347_rgbf000164-resize_4-target.png,depth_discrimination_stimuli/003083_2014-06-15_15-21-03_094959634447_rgbf000063-resize_1/003083_2014-06-15_15-21-03_094959634447_rgbf000063-resize_1-target.png,250,4.632,4.1405,0,1516,1005,256,997,255,487,,616889,69,Woman
286742,DepthScenes,v2_duration_discrimination,discrim_jsons/v2_shuffled_g0_rotated.json,http://54.210.137.18/DepthDuration/v2_depth_discrimination_MTurk/v2_DepthDiscrim_HTML.html#3,3,1366,768,1366,768,10-16-2021,10-14-55,5,depth_discrimination_stimuli/000943_2014-06-09_19-31-07_260595134347_rgbf000128-resize_1/000943_2014-06-09_19-31-07_260595134347_rgbf000128-resize_1-target.png,depth_discrimination_stimuli/001532_2014-06-20_16-50-41_260595134347_rgbf000081-resize_4/001532_2014-06-20_16-50-41_260595134347_rgbf000081-resize_4-target.png,1000,1.9765,1.5758333333333,1,2038,1015,988,1008,1002,488,,616889,69,Woman
286742,DepthScenes,v2_duration_discrimination,discrim_jsons/v2_shuffled_g0_rotated.json,http://54.210.137.18/DepthDuration/v2_depth_discrimination_MTurk/v2_DepthDiscrim_HTML.html#3,3,1366,768,1366,768,10-16-2021,10-14-55,6,depth_discrimination_stimuli/001056_2014-06-08_18-46-44_260595134347_rgbf000068-resize_0/001056_2014-06-08_18-46-44_260595134347_rgbf000068-resize_0-target.png,depth_discrimination_stimuli/000749_2014-06-08_21-55-06_260595134347_rgbf000070-resize_2/000749_2014-06-08_21-55-06_260595134347_rgbf000070-resize_2-target.png,1000,2.6625,2.331,1,1788,1005,1007,996,1003,496,,616889,69,Woman
286742,DepthScenes,v2_duration_discrimination,discrim_jsons/v2_shuffled_g0_rotated.json,http://54.210.137.18/DepthDuration/v2_depth_discrimination_MTurk/v2_DepthDiscrim_HTML.html#3,3,1366,768,1366,768,10-16-2021,10-14-55,7,depth_discrimination_stimuli/000869_2014-06-09_20-50-18_260595134347_rgbf000060-resize_3/000869_2014-06-09_20-50-18_260595134347_rgbf000060-resize_3-target.png,depth_discrimination_stimuli/000800_2014-06-08_22-42-09_260595134347_rgbf000095-resize_3/000800_2014-06-08_22-42-09_260595134347_rgbf000095-resize_3-target.png,1000,2.266,2.8,0,2044,1010,999,999,999,502,,616889,69,Woman
286742,DepthScenes,v2_duration_discrimination,discrim_jsons/v2_shuffled_g0_rotated.json,http://54.210.137.18/DepthDuration/v2_depth_discrimination_MTurk/v2_DepthDiscrim_HTML.html#3,3,1366,768,1366,768,10-16-2021,10-14-55,8,depth_discrimination_stimuli/002444_2014-06-28_20-32-08_260595134347_rgbf000027-resize_0/002444_2014-06-28_20-32-08_260595134347_rgbf000027-resize_0-target.png,depth_discrimination_stimuli/002103_2014-06-25_20-00-40_260595134347_rgbf000049-resize_0/002103_2014-06-25_20-00-40_260595134347_rgbf000049-resize_0-target.png,250,4.389,4.105,0,1899,1008,242,1015,250,499,,616889,69,Woman
286742,DepthScenes,v2_duration_discrimination,discrim_jsons/v2_shuffled_g0_rotated.json,http://54.210.137.18/DepthDuration/v2_depth_discrimination_MTurk/v2_DepthDiscrim_HTML.html#3,3,1366,768,1366,768,10-16-2021,10-14-55,9,depth_discrimination_stimuli/001011_2014-06-08_23-18-54_260595134347_rgbf000044-resize_4/001011_2014-06-08_23-18-54_260595134347_rgbf000044-resize_4-target.png,depth_discrimination_stimuli/002043_2014-06-24_20-29-38_260595134347_rgbf000039-resize_4/002043_2014-06-24_20-29-38_260595134347_rgbf000039-resize_4-target.png,250,2.473,2.8435,1,1309,1022,229,1013,265,469,,616889,69,Woman
286742,DepthScenes,v2_duration_discrimination,discrim_jsons/v2_shuffled_g0_rotated.json,http://54.210.137.18/DepthDuration/v2_depth_discrimination_MTurk/v2_DepthDiscrim_HTML.html#3,3,1366,768,1366,768,10-16-2021,10-14-55,10,depth_discrimination_stimuli/000454_2014-06-08_16-37-28_260595134347_rgbf000048-resize_2/000454_2014-06-08_16-37-28_260595134347_rgbf000048-resize_2-target.png,depth_discrimination_stimuli/000454_2014-06-08_16-37-28_260595134347_rgbf000048-resize_2/000454_2014-06-08_16-37-28_260595134347_rgbf000048-resize_2-target.png,1000,1.213,1.213,3,2022,1005,996,1010,992,498,,616889,69,Woman
286742,DepthScenes,v2_duration_discrimination,discrim_jsons/v2_shuffled_g0_rotated.json,http://54.210.137.18/DepthDuration/v2_depth_discrimination_MTurk/v2_DepthDiscrim_HTML.html#3,3,1366,768,1366,768,10-16-2021,10-14-55,11,depth_discrimination_stimuli/002039_2014-06-24_20-22-38_260595134347_rgbf000084-resize_1/002039_2014-06-24_20-22-38_260595134347_rgbf000084-resize_1-target.png,depth_discrimination_stimuli/000691_2014-06-08_13-08-50_260595134347_rgbf000132-resize_3/000691_2014-06-08_13-08-50_260595134347_rgbf000132-resize_3-target.png,1000,4.408,4.153,0,1708,1016,994,1004,996,505,,616889,69,Woman
286742,DepthScenes,v2_duration_discrimination,discrim_jsons/v2_shuffled_g0_rotated.json,http://54.210.137.18/DepthDuration/v2_depth_discrimination_MTurk/v2_DepthDiscrim_HTML.html#3,3,1366,768,1366,768,10-16-2021,10-14-55,12,depth_discrimination_stimuli/000709_2014-06-08_13-51-55_260595134347_rgbf000068-resize_3/000709_2014-06-08_13-51-55_260595134347_rgbf000068-resize_3-target.png,depth_discrimination_stimuli/003587_2014-05-23_16-48-02_094959634447_rgbf002384-resize_2/003587_2014-05-23_16-48-02_094959634447_rgbf002384-resize_2-target.png,1000,1.803,1.357,1,2286,1005,1000,999,998,501,,616889,69,Woman
286742,DepthScenes,v2_duration_discrimination,discrim_jsons/v2_shuffled_g0_rotated.json,http://54.210.137.18/DepthDuration/v2_depth_discrimination_MTurk/v2_DepthDiscrim_HTML.html#3,3,1366,768,1366,768,10-16-2021,10-14-55,13,depth_discrimination_stimuli/002905_2014-06-03_18-04-43_094959634447_rgbf000151-resize_2/002905_2014-06-03_18-04-43_094959634447_rgbf000151-resize_2-target.png,depth_discrimination_stimuli/002340_2014-06-28_20-05-46_260595134347_rgbf000113-resize_0/002340_2014-06-28_20-05-46_260595134347_rgbf000113-resize_0-target.png,1000,2.0295,2.4735,0,2744,1013,991,1006,992,508,,616889,69,Woman
286742,DepthScenes,v2_duration_discrimination,discrim_jsons/v2_shuffled_g0_rotated.json,http://54.210.137.18/DepthDuration/v2_depth_discrimination_MTurk/v2_DepthDiscrim_HTML.html#3,3,1366,768,1366,768,10-16-2021,10-14-55,14,depth_discrimination_stimuli/000409_2014-06-04_19-23-33_260595134347_rgbf000067-resize_0/000409_2014-06-04_19-23-33_260595134347_rgbf000067-resize_0-target.png,depth_discrimination_stimuli/000493_2014-06-09_21-01-18_260595134347_rgbf000196-resize_3/000493_2014-06-09_21-01-18_260595134347_rgbf000196-resize_3-target.png,250,3.7335,3.44,0,1643,1013,241,1000,256,492,,616889,69,Woman
286742,DepthScenes,v2_duration_discrimination,discrim_jsons/v2_shuffled_g0_rotated.json,http://54.210.137.18/DepthDuration/v2_depth_discrimination_MTurk/v2_DepthDiscrim_HTML.html#3,3,1366,768,1366,768,10-16-2021,10-14-55,15,depth_discrimination_stimuli/002675_2014-06-13_16-08-49_094959634447_rgbf000151-resize_2/002675_2014-06-13_16-08-49_094959634447_rgbf000151-resize_2-target.png,depth_discrimination_stimuli/002675_2014-06-13_16-08-49_094959634447_rgbf000151-resize_2/002675_2014-06-13_16-08-49_094959634447_rgbf000151-resize_2-target.png,1000,4.5065,4.5065,3,2036,1007,996,998,1001,498,,616889,69,Woman
286742,DepthScenes,v2_duration_discrimination,discrim_jsons/v2_shuffled_g0_rotated.json,http://54.210.137.18/DepthDuration/v2_depth_discrimination_MTurk/v2_DepthDiscrim_HTML.html#3,3,1366,768,1366,768,10-16-2021,10-14-55,16,depth_discrimination_stimuli/001016_2014-06-09_16-16-10_260595134347_rgbf000112-resize_5/001016_2014-06-09_16-16-10_260595134347_rgbf000112-resize_5-target.png,depth_discrimination_stimuli/002199_2014-06-28_18-33-56_260595134347_rgbf000074-resize_0/002199_2014-06-28_18-33-56_260595134347_rgbf000074-resize_0-target.png,250,1.6565,1.996,1,1315,1011,252,997,250,496,,616889,69,Woman
286742,DepthScenes,v2_duration_discrimination,discrim_jsons/v2_shuffled_g0_rotated.json,http://54.210.137.18/DepthDuration/v2_depth_discrimination_MTurk/v2_DepthDiscrim_HTML.html#3,3,1366,768,1366,768,10-16-2021,10-14-55,17,depth_discrimination_stimuli/000470_2014-06-09_19-42-40_260595134347_rgbf000094-resize_1/000470_2014-06-09_19-42-40_260595134347_rgbf000094-resize_1-target.png,depth_discrimination_stimuli/002953_2014-06-08_17-32-18_094959634447_rgbf000059-resize_5/002953_2014-06-08_17-32-18_094959634447_rgbf000059-resize_5-target.png,250,1.831,1.551,0,1455,1002,254,1007,236,512,,616889,69,Woman
286742,DepthScenes,v2_duration_discrimination,discrim_jsons/v2_shuffled_g0_rotated.json,http://54.210.137.18/DepthDuration/v2_depth_discrimination_MTurk/v2_DepthDiscrim_HTML.html#3,3,1366,768,1366,768,10-16-2021,10-14-55,18,depth_discrimination_stimuli/000569_2014-06-09_22-51-47_260595134347_rgbf000141-resize_3/000569_2014-06-09_22-51-47_260595134347_rgbf000141-resize_3-target.png,depth_discrimination_stimuli/000569_2014-06-09_22-51-47_260595134347_rgbf000141-resize_3/000569_2014-06-09_22-51-47_260595134347_rgbf000141-resize_3-target.png,250,4.512,4.512,3,1609,1011,251,1001,246,499,,616889,69,Woman
286742,DepthScenes,v2_duration_discrimination,discrim_jsons/v2_shuffled_g0_rotated.json,http://54.210.137.18/DepthDuration/v2_depth_discrimination_MTurk/v2_DepthDiscrim_HTML.html#3,3,1366,768,1366,768,10-16-2021,10-14-55,19,depth_discrimination_stimuli/001055_2014-06-08_18-45-35_260595134347_rgbf000111-resize_4/001055_2014-06-08_18-45-35_260595134347_rgbf000111-resize_4-target.png,depth_discrimination_stimuli/000929_2014-06-09_16-33-19_260595134347_rgbf000139-resize_0/000929_2014-06-09_16-33-19_260595134347_rgbf000139-resize_0-target.png,1000,2.429,2.868,1,2245,1008,994,1001,997,510,,616889,69,Woman
286742,DepthScenes,v2_duration_discrimination,discrim_jsons/v2_shuffled_g0_rotated.json,http://54.210.137.18/DepthDuration/v2_depth_discrimination_MTurk/v2_DepthDiscrim_HTML.html#3,3,1366,768,1366,768,10-16-2021,10-14-55,20,depth_discrimination_stimuli/001164_2014-06-17_15-35-46_260595134347_rgbf000085-resize_3/001164_2014-06-17_15-35-46_260595134347_rgbf000085-resize_3-target.png,depth_discrimination_stimuli/002118_2014-06-25_20-32-08_260595134347_rgbf000078-resize_1/002118_2014-06-25_20-32-08_260595134347_rgbf000078-resize_1-target.png,1000,2.354,2.646,1,2718,1002,1001,1030,967,513,,616889,69,Woman
286742,DepthScenes,v2_duration_discrimination,discrim_jsons/v2_shuffled_g0_rotated.json,http://54.210.137.18/DepthDuration/v2_depth_discrimination_MTurk/v2_DepthDiscrim_HTML.html#3,3,1366,768,1366,768,10-16-2021,10-14-55,21,depth_discrimination_stimuli/000866_2014-06-09_20-45-42_260595134347_rgbf000139-resize_1/000866_2014-06-09_20-45-42_260595134347_rgbf000139-resize_1-target.png,depth_discrimination_stimuli/003490_2014-05-21_15-50-11_094959634447_rgbf000101-resize_3/003490_2014-05-21_15-50-11_094959634447_rgbf000101-resize_3-target.png,1000,3.2155,3.6445,0,2249,1033,979,998,1004,494,,616889,69,Woman
286742,DepthScenes,v2_duration_discrimination,discrim_jsons/v2_shuffled_g0_rotated.json,http://54.210.137.18/DepthDuration/v2_depth_discrimination_MTurk/v2_DepthDiscrim_HTML.html#3,3,1366,768,1366,768,10-16-2021,10-14-55,22,depth_discrimination_stimuli/001584_2014-06-20_11-07-43_260595134347_rgbf000002-resize_1/001584_2014-06-20_11-07-43_260595134347_rgbf000002-resize_1-target.png,depth_discrimination_stimuli/002805_2014-06-22_19-54-03_094959634447_rgbf000079-resize_1/002805_2014-06-22_19-54-03_094959634447_rgbf000079-resize_1-target.png,250,3.53,3.144,1,1402,1016,237,1002,258,499,,616889,69,Woman
286742,DepthScenes,v2_duration_discrimination,discrim_jsons/v2_shuffled_g0_rotated.json,http://54.210.137.18/DepthDuration/v2_depth_discrimination_MTurk/v2_DepthDiscrim_HTML.html#3,3,1366,768,1366,768,10-16-2021,10-14-55,23,depth_discrimination_stimuli/002414_2014-06-28_20-24-58_260595134347_rgbf000067-resize_4/002414_2014-06-28_20-24-58_260595134347_rgbf000067-resize_4-target.png,depth_discrimination_stimuli/001450_2014-06-19_17-02-03_260595134347_rgbf000203-resize_4/001450_2014-06-19_17-02-03_260595134347_rgbf000203-resize_4-target.png,250,4.363,4.0106666666667,0,1388,1014,243,998,250,504,,616889,69,Woman
286742,DepthScenes,v2_duration_discrimination,discrim_jsons/v2_shuffled_g0_rotated.json,http://54.210.137.18/DepthDuration/v2_depth_discrimination_MTurk/v2_DepthDiscrim_HTML.html#3,3,1366,768,1366,768,10-16-2021,10-14-55,24,depth_discrimination_stimuli/002072_2014-06-24_21-48-06_260595134347_rgbf000115-resize_0/002072_2014-06-24_21-48-06_260595134347_rgbf000115-resize_0-target.png,depth_discrimination_stimuli/002072_2014-06-24_21-48-06_260595134347_rgbf000115-resize_0/002072_2014-06-24_21-48-06_260595134347_rgbf000115-resize_0-target.png,250,4.702,4.702,3,1261,1017,244,994,253,499,,616889,69,Woman
286742,DepthScenes,v2_duration_discrimination,discrim_jsons/v2_shuffled_g0_rotated.json,http://54.210.137.18/DepthDuration/v2_depth_discrimination_MTurk/v2_DepthDiscrim_HTML.html#3,3,1366,768,1366,768,10-16-2021,10-14-55,25,depth_discrimination_stimuli/001498_2014-06-19_17-45-14_260595134347_rgbf000129-resize_4/001498_2014-06-19_17-45-14_260595134347_rgbf000129-resize_4-target.png,depth_discrimination_stimuli/001498_2014-06-19_17-45-14_260595134347_rgbf000129-resize_4/001498_2014-06-19_17-45-14_260595134347_rgbf000129-resize_4-target.png,1000,1.4075,1.4075,3,2108,1007,991,997,1000,498,,616889,69,Woman
286742,DepthScenes,v2_duration_discrimination,discrim_jsons/v2_shuffled_g0_rotated.json,http://54.210.137.18/DepthDuration/v2_depth_discrimination_MTurk/v2_DepthDiscrim_HTML.html#3,3,1366,768,1366,768,10-16-2021,10-14-55,26,depth_discrimination_stimuli/002949_2014-06-26_15-57-42_094959634447_rgbf000079-resize_1/002949_2014-06-26_15-57-42_094959634447_rgbf000079-resize_1-target.png,depth_discrimination_stimuli/003495_2014-05-21_16-01-51_094959634447_rgbf000100-resize_3/003495_2014-05-21_16-01-51_094959634447_rgbf000100-resize_3-target.png,250,1.8915,1.6255,1,1548,1007,249,998,251,499,,616889,69,Woman
286742,DepthScenes,v2_duration_discrimination,discrim_jsons/v2_shuffled_g0_rotated.json,http://54.210.137.18/DepthDuration/v2_depth_discrimination_MTurk/v2_DepthDiscrim_HTML.html#3,3,1366,768,1366,768,10-16-2021,10-14-55,27,depth_discrimination_stimuli/001136_2014-06-17_15-19-41_260595134347_rgbf000076-resize_3/001136_2014-06-17_15-19-41_260595134347_rgbf000076-resize_3-target.png,depth_discrimination_stimuli/002549_2014-06-24_13-41-39_094959634447_rgbf000022-resize_3/002549_2014-06-24_13-41-39_094959634447_rgbf000022-resize_3-target.png,1000,1.8655,1.476,1,2199,1018,999,999,1000,498,,616889,69,Woman
286742,DepthScenes,v2_duration_discrimination,discrim_jsons/v2_shuffled_g0_rotated.json,http://54.210.137.18/DepthDuration/v2_depth_discrimination_MTurk/v2_DepthDiscrim_HTML.html#3,3,1366,768,1366,768,10-16-2021,10-14-55,28,depth_discrimination_stimuli/002509_2014-06-24_13-19-22_094959634447_rgbf000077-resize_0/002509_2014-06-24_13-19-22_094959634447_rgbf000077-resize_0-target.png,depth_discrimination_stimuli/000549_2014-06-08_22-10-24_260595134347_rgbf000247-resize_3/000549_2014-06-08_22-10-24_260595134347_rgbf000247-resize_3-target.png,1000,1.3065,1.841,1,1596,1016,1008,987,1002,500,,616889,69,Woman
286742,DepthScenes,v2_duration_discrimination,discrim_jsons/v2_shuffled_g0_rotated.json,http://54.210.137.18/DepthDuration/v2_depth_discrimination_MTurk/v2_DepthDiscrim_HTML.html#3,3,1366,768,1366,768,10-16-2021,10-14-55,29,depth_discrimination_stimuli/000542_2014-06-08_18-27-08_260595134347_rgbf000118-resize_1/000542_2014-06-08_18-27-08_260595134347_rgbf000118-resize_1-target.png,depth_discrimination_stimuli/003292_2014-05-14_21-53-49_094959634447_rgbf000100-resize_2/003292_2014-05-14_21-53-49_094959634447_rgbf000100-resize_2-target.png,1000,3,3.4815,0,1732,1019,996,988,1011,487,,616889,69,Woman
286742,DepthScenes,v2_duration_discrimination,discrim_jsons/v2_shuffled_g0_rotated.json,http://54.210.137.18/DepthDuration/v2_depth_discrimination_MTurk/v2_DepthDiscrim_HTML.html#3,3,1366,768,1366,768,10-16-2021,10-14-55,30,depth_discrimination_stimuli/001148_2014-06-17_15-26-42_260595134347_rgbf000129-resize_0/001148_2014-06-17_15-26-42_260595134347_rgbf000129-resize_0-target.png,depth_discrimination_stimuli/000556_2014-06-09_22-42-56_260595134347_rgbf000214-resize_1/000556_2014-06-09_22-42-56_260595134347_rgbf000214-resize_1-target.png,1000,4.368,4.8415,1,2500,1012,993,1004,1005,497,,616889,69,Woman
286742,DepthScenes,v2_duration_discrimination,discrim_jsons/v2_shuffled_g0_rotated.json,http://54.210.137.18/DepthDuration/v2_depth_discrimination_MTurk/v2_DepthDiscrim_HTML.html#3,3,1366,768,1366,768,10-16-2021,10-14-55,31,depth_discrimination_stimuli/001181_2014-06-17_15-50-57_260595134347_rgbf000106-resize_4/001181_2014-06-17_15-50-57_260595134347_rgbf000106-resize_4-target.png,depth_discrimination_stimuli/001158_2014-06-17_15-32-16_260595134347_rgbf000138-resize_2/001158_2014-06-17_15-32-16_260595134347_rgbf000138-resize_2-target.png,250,4.149,4.5315,1,1446,1002,260,988,248,513,,616889,69,Woman
286742,DepthScenes,v2_duration_discrimination,discrim_jsons/v2_shuffled_g0_rotated.json,http://54.210.137.18/DepthDuration/v2_depth_discrimination_MTurk/v2_DepthDiscrim_HTML.html#3,3,1366,768,1366,768,10-16-2021,10-14-55,32,depth_discrimination_stimuli/001235_2014-06-17_16-37-36_260595134347_rgbf000084-resize_4/001235_2014-06-17_16-37-36_260595134347_rgbf000084-resize_4-target.png,depth_discrimination_stimuli/001197_2014-06-17_16-01-50_260595134347_rgbf000103-resize_4/001197_2014-06-17_16-01-50_260595134347_rgbf000103-resize_4-target.png,250,3.6605,3.4025,1,1585,1003,247,1015,234,514,,616889,69,Woman
286742,DepthScenes,v2_duration_discrimination,discrim_jsons/v2_shuffled_g0_rotated.json,http://54.210.137.18/DepthDuration/v2_depth_discrimination_MTurk/v2_DepthDiscrim_HTML.html#3,3,1366,768,1366,768,10-16-2021,10-14-55,33,depth_discrimination_stimuli/001032_2014-06-08_13-23-17_260595134347_rgbf000021-resize_3/001032_2014-06-08_13-23-17_260595134347_rgbf000021-resize_3-target.png,depth_discrimination_stimuli/002323_2014-06-28_20-01-54_260595134347_rgbf000051-resize_4/002323_2014-06-28_20-01-54_260595134347_rgbf000051-resize_4-target.png,250,3.2725,3.731,0,1234,1009,255,998,247,509,,616889,69,Woman
286742,DepthScenes,v2_duration_discrimination,discrim_jsons/v2_shuffled_g0_rotated.json,http://54.210.137.18/DepthDuration/v2_depth_discrimination_MTurk/v2_DepthDiscrim_HTML.html#3,3,1366,768,1366,768,10-16-2021,10-14-55,34,depth_discrimination_stimuli/003395_2014-05-20_15-39-18_094959634447_rgbf000101-resize_0/003395_2014-05-20_15-39-18_094959634447_rgbf000101-resize_0-target.png,depth_discrimination_stimuli/003395_2014-05-20_15-39-18_094959634447_rgbf000101-resize_0/003395_2014-05-20_15-39-18_094959634447_rgbf000101-resize_0-target.png,1000,4.835,4.835,3,1955,1014,1000,996,996,507,,616889,69,Woman
286742,DepthScenes,v2_duration_discrimination,discrim_jsons/v2_shuffled_g0_rotated.json,http://54.210.137.18/DepthDuration/v2_depth_discrimination_MTurk/v2_DepthDiscrim_HTML.html#3,3,1366,768,1366,768,10-16-2021,10-14-55,35,depth_discrimination_stimuli/001170_2014-06-17_15-43-44_260595134347_rgbf000096-resize_6/001170_2014-06-17_15-43-44_260595134347_rgbf000096-resize_6-target.png,depth_discrimination_stimuli/001170_2014-06-17_15-43-44_260595134347_rgbf000096-resize_6/001170_2014-06-17_15-43-44_260595134347_rgbf000096-resize_6-target.png,250,1.191,1.191,3,1241,1003,257,1000,245,505,,616889,69,Woman
286742,DepthScenes,v2_duration_discrimination,discrim_jsons/v2_shuffled_g0_rotated.json,http://54.210.137.18/DepthDuration/v2_depth_discrimination_MTurk/v2_DepthDiscrim_HTML.html#3,3,1366,768,1366,768,10-16-2021,10-14-55,36,depth_discrimination_stimuli/000137_2014-05-20_17-04-49_260595134347_rgbf000120-resize_1/000137_2014-05-20_17-04-49_260595134347_rgbf000120-resize_1-target.png,depth_discrimination_stimuli/003423_2014-05-21_10-23-26_094959634447_rgbf002665-resize_2/003423_2014-05-21_10-23-26_094959634447_rgbf002665-resize_2-target.png,250,3.786,3.2575,0,1396,1002,257,993,253,502,,616889,69,Woman
286742,DepthScenes,v2_duration_discrimination,discrim_jsons/v2_shuffled_g0_rotated.json,http://54.210.137.18/DepthDuration/v2_depth_discrimination_MTurk/v2_DepthDiscrim_HTML.html#3,3,1366,768,1366,768,10-16-2021,10-14-55,37,depth_discrimination_stimuli/002678_2014-06-13_16-15-32_094959634447_rgbf000151-resize_6/002678_2014-06-13_16-15-32_094959634447_rgbf000151-resize_6-target.png,depth_discrimination_stimuli/000927_2014-06-09_16-32-30_260595134347_rgbf000123-resize_3/000927_2014-06-09_16-32-30_260595134347_rgbf000123-resize_3-target.png,250,2.183,2.6785,0,1583,1008,250,996,251,497,,616889,69,Woman
286742,DepthScenes,v2_duration_discrimination,discrim_jsons/v2_shuffled_g0_rotated.json,http://54.210.137.18/DepthDuration/v2_depth_discrimination_MTurk/v2_DepthDiscrim_HTML.html#3,3,1366,768,1366,768,10-16-2021,10-14-55,38,depth_discrimination_stimuli/002748_2014-06-22_19-07-22_094959634447_rgbf000078-resize_1/002748_2014-06-22_19-07-22_094959634447_rgbf000078-resize_1-target.png,depth_discrimination_stimuli/001808_2014-06-26_20-50-58_260595134347_rgbf000029-resize_1/001808_2014-06-26_20-50-58_260595134347_rgbf000029-resize_1-target.png,250,4.6705,4.249,0,1390,1003,259,1000,243,517,,616889,69,Woman
286742,DepthScenes,v2_duration_discrimination,discrim_jsons/v2_shuffled_g0_rotated.json,http://54.210.137.18/DepthDuration/v2_depth_discrimination_MTurk/v2_DepthDiscrim_HTML.html#3,3,1366,768,1366,768,10-16-2021,10-14-55,39,depth_discrimination_stimuli/001133_2014-06-17_14-49-16_260595134347_rgbf000100-resize_0/001133_2014-06-17_14-49-16_260595134347_rgbf000100-resize_0-target.png,depth_discrimination_stimuli/002467_2014-06-28_20-38-07_260595134347_rgbf000026-resize_2/002467_2014-06-28_20-38-07_260595134347_rgbf000026-resize_2-target.png,250,4.2115,4.742,0,1594,1006,257,1014,226,502,,616889,69,Woman
286742,DepthScenes,v2_duration_discrimination,discrim_jsons/v2_shuffled_g0_rotated.json,http://54.210.137.18/DepthDuration/v2_depth_discrimination_MTurk/v2_DepthDiscrim_HTML.html#3,3,1366,768,1366,768,10-16-2021,10-14-55,40,depth_discrimination_stimuli/003081_2014-06-15_15-19-16_094959634447_rgbf000150-resize_1/003081_2014-06-15_15-19-16_094959634447_rgbf000150-resize_1-target.png,depth_discrimination_stimuli/002660_2014-06-13_15-44-18_094959634447_rgbf001878-resize_2/002660_2014-06-13_15-44-18_094959634447_rgbf001878-resize_2-target.png,1000,3.9125,3.576,1,1966,1006,1007,997,1003,499,,616889,69,Woman
286742,DepthScenes,v2_duration_discrimination,discrim_jsons/v2_shuffled_g0_rotated.json,http://54.210.137.18/DepthDuration/v2_depth_discrimination_MTurk/v2_DepthDiscrim_HTML.html#3,3,1366,768,1366,768,10-16-2021,10-14-55,40,,,,,,,1966,1006,1007,997,1003,499,,616889,69,Woman
