subjID,experimentName,versionName,sequenceName,url,selected_row,windowWidth,windowHeight,screenWidth,screenHeight,startDate,startTime,trial,stimulus_0,stimulus_1,duration,actual_depth_0,actual_depth_1,discrim_choice,trial_RT,log_fixation,log_sceneDuration1,log_mask1,log_sceneDuration2,log_mask2,experimentTime,totalTime,age,gender
374289,DepthScenes,v2_duration_discrimination,discrim_jsons/v2_shuffled_g0.json,http://54.210.137.18/DepthDuration/v2_depth_discrimination_MTurk/v2_DepthDiscrim_HTML.html#4,4,1536,960,1536,960,10-16-2021,11-12-29,1,depth_discrimination_stimuli/002043_2014-06-24_20-29-38_260595134347_rgbf000039-resize_4/002043_2014-06-24_20-29-38_260595134347_rgbf000039-resize_4-target.png,depth_discrimination_stimuli/001011_2014-06-08_23-18-54_260595134347_rgbf000044-resize_4/001011_2014-06-08_23-18-54_260595134347_rgbf000044-resize_4-target.png,250,2.8435,2.473,0,1201,1008,248,1001,257,499,,1167233,50,Woman
374289,DepthScenes,v2_duration_discrimination,discrim_jsons/v2_shuffled_g0.json,http://54.210.137.18/DepthDuration/v2_depth_discrimination_MTurk/v2_DepthDiscrim_HTML.html#4,4,1536,960,1536,960,10-16-2021,11-12-29,2,depth_discrimination_stimuli/000953_2014-06-08_11-42-19_260595134347_rgbf000083-resize_0/000953_2014-06-08_11-42-19_260595134347_rgbf000083-resize_0-target.png,depth_discrimination_stimuli/000953_2014-06-08_11-42-19_260595134347_rgbf000083-resize_0/000953_2014-06-08_11-42-19_260595134347_rgbf000083-resize_0-target.png,250,1.369,1.369,3,1784,1006,257,989,248,502,,1167233,50,Woman
374289,DepthScenes,v2_duration_discrimination,discrim_jsons/v2_shuffled_g0.json,http://54.210.137.18/DepthDuration/v2_depth_discrimination_MTurk/v2_DepthDiscrim_HTML.html#4,4,1536,960,1536,960,10-16-2021,11-12-29,3,depth_discrimination_stimuli/003083_2014-06-15_15-21-03_094959634447_rgbf000063-resize_1/003083_2014-06-15_15-21-03_094959634447_rgbf000063-resize_1-target.png,depth_discrimination_stimuli/000742_2014-06-08_18-48-09_260595134347_rgbf000164-resize_4/000742_2014-06-08_18-48-09_260595134347_rgbf000164-resize_4-target.png,250,4.1405,4.632,0,1437,1002,252,1007,242,499,,1167233,50,Woman
374289,DepthScenes,v2_duration_discrimination,discrim_jsons/v2_shuffled_g0.json,http://54.210.137.18/DepthDuration/v2_depth_discrimination_MTurk/v2_DepthDiscrim_HTML.html#4,4,1536,960,1536,960,10-16-2021,11-12-29,4,depth_discrimination_stimuli/001092_2014-06-15_17-34-58_260595134347_rgbf000171-resize_3/001092_2014-06-15_17-34-58_260595134347_rgbf000171-resize_3-target.png,depth_discrimination_stimuli/000502_2014-06-08_23-02-32_260595134347_rgbf000063-resize_4/000502_2014-06-08_23-02-32_260595134347_rgbf000063-resize_4-target.png,1000,2.6935,2.431,0,1835,1004,998,1003,1000,503,,1167233,50,Woman
374289,DepthScenes,v2_duration_discrimination,discrim_jsons/v2_shuffled_g0.json,http://54.210.137.18/DepthDuration/v2_depth_discrimination_MTurk/v2_DepthDiscrim_HTML.html#4,4,1536,960,1536,960,10-16-2021,11-12-29,5,depth_discrimination_stimuli/001532_2014-06-20_16-50-41_260595134347_rgbf000081-resize_4/001532_2014-06-20_16-50-41_260595134347_rgbf000081-resize_4-target.png,depth_discrimination_stimuli/000943_2014-06-09_19-31-07_260595134347_rgbf000128-resize_1/000943_2014-06-09_19-31-07_260595134347_rgbf000128-resize_1-target.png,1000,1.5758333333333,1.9765,1,2358,1007,998,1011,987,500,,1167233,50,Woman
374289,DepthScenes,v2_duration_discrimination,discrim_jsons/v2_shuffled_g0.json,http://54.210.137.18/DepthDuration/v2_depth_discrimination_MTurk/v2_DepthDiscrim_HTML.html#4,4,1536,960,1536,960,10-16-2021,11-12-29,6,depth_discrimination_stimuli/002103_2014-06-25_20-00-40_260595134347_rgbf000049-resize_0/002103_2014-06-25_20-00-40_260595134347_rgbf000049-resize_0-target.png,depth_discrimination_stimuli/002444_2014-06-28_20-32-08_260595134347_rgbf000027-resize_0/002444_2014-06-28_20-32-08_260595134347_rgbf000027-resize_0-target.png,250,4.105,4.389,0,1535,1013,251,999,241,501,,1167233,50,Woman
374289,DepthScenes,v2_duration_discrimination,discrim_jsons/v2_shuffled_g0.json,http://54.210.137.18/DepthDuration/v2_depth_discrimination_MTurk/v2_DepthDiscrim_HTML.html#4,4,1536,960,1536,960,10-16-2021,11-12-29,7,depth_discrimination_stimuli/000800_2014-06-08_22-42-09_260595134347_rgbf000095-resize_3/000800_2014-06-08_22-42-09_260595134347_rgbf000095-resize_3-target.png,depth_discrimination_stimuli/000869_2014-06-09_20-50-18_260595134347_rgbf000060-resize_3/000869_2014-06-09_20-50-18_260595134347_rgbf000060-resize_3-target.png,1000,2.8,2.266,1,2318,1012,1003,990,1000,506,,1167233,50,Woman
374289,DepthScenes,v2_duration_discrimination,discrim_jsons/v2_shuffled_g0.json,http://54.210.137.18/DepthDuration/v2_depth_discrimination_MTurk/v2_DepthDiscrim_HTML.html#4,4,1536,960,1536,960,10-16-2021,11-12-29,8,depth_discrimination_stimuli/001618_2014-06-20_11-37-31_260595134347_rgbf000027-resize_3/001618_2014-06-20_11-37-31_260595134347_rgbf000027-resize_3-target.png,depth_discrimination_stimuli/000109_2014-05-14_23-41-52_260595134347_rgbf000035-resize_9/000109_2014-05-14_23-41-52_260595134347_rgbf000035-resize_9-target.png,250,1.8725,1.3545,0,1691,1004,249,1023,231,504,,1167233,50,Woman
374289,DepthScenes,v2_duration_discrimination,discrim_jsons/v2_shuffled_g0.json,http://54.210.137.18/DepthDuration/v2_depth_discrimination_MTurk/v2_DepthDiscrim_HTML.html#4,4,1536,960,1536,960,10-16-2021,11-12-29,9,depth_discrimination_stimuli/000454_2014-06-08_16-37-28_260595134347_rgbf000048-resize_2/000454_2014-06-08_16-37-28_260595134347_rgbf000048-resize_2-target.png,depth_discrimination_stimuli/000454_2014-06-08_16-37-28_260595134347_rgbf000048-resize_2/000454_2014-06-08_16-37-28_260595134347_rgbf000048-resize_2-target.png,1000,1.213,1.213,3,1980,1006,999,1003,995,499,,1167233,50,Woman
374289,DepthScenes,v2_duration_discrimination,discrim_jsons/v2_shuffled_g0.json,http://54.210.137.18/DepthDuration/v2_depth_discrimination_MTurk/v2_DepthDiscrim_HTML.html#4,4,1536,960,1536,960,10-16-2021,11-12-29,10,depth_discrimination_stimuli/000749_2014-06-08_21-55-06_260595134347_rgbf000070-resize_2/000749_2014-06-08_21-55-06_260595134347_rgbf000070-resize_2-target.png,depth_discrimination_stimuli/001056_2014-06-08_18-46-44_260595134347_rgbf000068-resize_0/001056_2014-06-08_18-46-44_260595134347_rgbf000068-resize_0-target.png,1000,2.331,2.6625,0,2175,1010,1003,988,1015,486,,1167233,50,Woman
374289,DepthScenes,v2_duration_discrimination,discrim_jsons/v2_shuffled_g0.json,http://54.210.137.18/DepthDuration/v2_depth_discrimination_MTurk/v2_DepthDiscrim_HTML.html#4,4,1536,960,1536,960,10-16-2021,11-12-29,11,depth_discrimination_stimuli/002199_2014-06-28_18-33-56_260595134347_rgbf000074-resize_0/002199_2014-06-28_18-33-56_260595134347_rgbf000074-resize_0-target.png,depth_discrimination_stimuli/001016_2014-06-09_16-16-10_260595134347_rgbf000112-resize_5/001016_2014-06-09_16-16-10_260595134347_rgbf000112-resize_5-target.png,250,1.996,1.6565,0,1775,1007,246,998,249,500,,1167233,50,Woman
374289,DepthScenes,v2_duration_discrimination,discrim_jsons/v2_shuffled_g0.json,http://54.210.137.18/DepthDuration/v2_depth_discrimination_MTurk/v2_DepthDiscrim_HTML.html#4,4,1536,960,1536,960,10-16-2021,11-12-29,12,depth_discrimination_stimuli/002118_2014-06-25_20-32-08_260595134347_rgbf000078-resize_1/002118_2014-06-25_20-32-08_260595134347_rgbf000078-resize_1-target.png,depth_discrimination_stimuli/001164_2014-06-17_15-35-46_260595134347_rgbf000085-resize_3/001164_2014-06-17_15-35-46_260595134347_rgbf000085-resize_3-target.png,1000,2.646,2.354,0,2128,1009,991,1028,983,497,,1167233,50,Woman
374289,DepthScenes,v2_duration_discrimination,discrim_jsons/v2_shuffled_g0.json,http://54.210.137.18/DepthDuration/v2_depth_discrimination_MTurk/v2_DepthDiscrim_HTML.html#4,4,1536,960,1536,960,10-16-2021,11-12-29,13,depth_discrimination_stimuli/002953_2014-06-08_17-32-18_094959634447_rgbf000059-resize_5/002953_2014-06-08_17-32-18_094959634447_rgbf000059-resize_5-target.png,depth_discrimination_stimuli/000470_2014-06-09_19-42-40_260595134347_rgbf000094-resize_1/000470_2014-06-09_19-42-40_260595134347_rgbf000094-resize_1-target.png,250,1.551,1.831,1,1533,1002,250,1009,248,496,,1167233,50,Woman
374289,DepthScenes,v2_duration_discrimination,discrim_jsons/v2_shuffled_g0.json,http://54.210.137.18/DepthDuration/v2_depth_discrimination_MTurk/v2_DepthDiscrim_HTML.html#4,4,1536,960,1536,960,10-16-2021,11-12-29,14,depth_discrimination_stimuli/000929_2014-06-09_16-33-19_260595134347_rgbf000139-resize_0/000929_2014-06-09_16-33-19_260595134347_rgbf000139-resize_0-target.png,depth_discrimination_stimuli/001055_2014-06-08_18-45-35_260595134347_rgbf000111-resize_4/001055_2014-06-08_18-45-35_260595134347_rgbf000111-resize_4-target.png,1000,2.868,2.429,0,2058,1002,1000,1012,1011,488,,1167233,50,Woman
374289,DepthScenes,v2_duration_discrimination,discrim_jsons/v2_shuffled_g0.json,http://54.210.137.18/DepthDuration/v2_depth_discrimination_MTurk/v2_DepthDiscrim_HTML.html#4,4,1536,960,1536,960,10-16-2021,11-12-29,15,depth_discrimination_stimuli/000493_2014-06-09_21-01-18_260595134347_rgbf000196-resize_3/000493_2014-06-09_21-01-18_260595134347_rgbf000196-resize_3-target.png,depth_discrimination_stimuli/000409_2014-06-04_19-23-33_260595134347_rgbf000067-resize_0/000409_2014-06-04_19-23-33_260595134347_rgbf000067-resize_0-target.png,250,3.44,3.7335,0,1609,1004,261,991,248,502,,1167233,50,Woman
374289,DepthScenes,v2_duration_discrimination,discrim_jsons/v2_shuffled_g0.json,http://54.210.137.18/DepthDuration/v2_depth_discrimination_MTurk/v2_DepthDiscrim_HTML.html#4,4,1536,960,1536,960,10-16-2021,11-12-29,16,depth_discrimination_stimuli/000569_2014-06-09_22-51-47_260595134347_rgbf000141-resize_3/000569_2014-06-09_22-51-47_260595134347_rgbf000141-resize_3-target.png,depth_discrimination_stimuli/000569_2014-06-09_22-51-47_260595134347_rgbf000141-resize_3/000569_2014-06-09_22-51-47_260595134347_rgbf000141-resize_3-target.png,250,4.512,4.512,3,1935,1012,246,999,246,503,,1167233,50,Woman
374289,DepthScenes,v2_duration_discrimination,discrim_jsons/v2_shuffled_g0.json,http://54.210.137.18/DepthDuration/v2_depth_discrimination_MTurk/v2_DepthDiscrim_HTML.html#4,4,1536,960,1536,960,10-16-2021,11-12-29,17,depth_discrimination_stimuli/003587_2014-05-23_16-48-02_094959634447_rgbf002384-resize_2/003587_2014-05-23_16-48-02_094959634447_rgbf002384-resize_2-target.png,depth_discrimination_stimuli/000709_2014-06-08_13-51-55_260595134347_rgbf000068-resize_3/000709_2014-06-08_13-51-55_260595134347_rgbf000068-resize_3-target.png,1000,1.357,1.803,0,2141,1007,1015,980,1007,495,,1167233,50,Woman
374289,DepthScenes,v2_duration_discrimination,discrim_jsons/v2_shuffled_g0.json,http://54.210.137.18/DepthDuration/v2_depth_discrimination_MTurk/v2_DepthDiscrim_HTML.html#4,4,1536,960,1536,960,10-16-2021,11-12-29,18,depth_discrimination_stimuli/002675_2014-06-13_16-08-49_094959634447_rgbf000151-resize_2/002675_2014-06-13_16-08-49_094959634447_rgbf000151-resize_2-target.png,depth_discrimination_stimuli/002675_2014-06-13_16-08-49_094959634447_rgbf000151-resize_2/002675_2014-06-13_16-08-49_094959634447_rgbf000151-resize_2-target.png,1000,4.5065,4.5065,3,1997,1003,1020,987,992,528,,1167233,50,Woman
374289,DepthScenes,v2_duration_discrimination,discrim_jsons/v2_shuffled_g0.json,http://54.210.137.18/DepthDuration/v2_depth_discrimination_MTurk/v2_DepthDiscrim_HTML.html#4,4,1536,960,1536,960,10-16-2021,11-12-29,19,depth_discrimination_stimuli/002340_2014-06-28_20-05-46_260595134347_rgbf000113-resize_0/002340_2014-06-28_20-05-46_260595134347_rgbf000113-resize_0-target.png,depth_discrimination_stimuli/002905_2014-06-03_18-04-43_094959634447_rgbf000151-resize_2/002905_2014-06-03_18-04-43_094959634447_rgbf000151-resize_2-target.png,1000,2.4735,2.0295,1,2188,1005,997,1003,999,507,,1167233,50,Woman
374289,DepthScenes,v2_duration_discrimination,discrim_jsons/v2_shuffled_g0.json,http://54.210.137.18/DepthDuration/v2_depth_discrimination_MTurk/v2_DepthDiscrim_HTML.html#4,4,1536,960,1536,960,10-16-2021,11-12-29,20,depth_discrimination_stimuli/000691_2014-06-08_13-08-50_260595134347_rgbf000132-resize_3/000691_2014-06-08_13-08-50_260595134347_rgbf000132-resize_3-target.png,depth_discrimination_stimuli/002039_2014-06-24_20-22-38_260595134347_rgbf000084-resize_1/002039_2014-06-24_20-22-38_260595134347_rgbf000084-resize_1-target.png,1000,4.153,4.408,0,1870,1005,1008,1002,987,505,,1167233,50,Woman
374289,DepthScenes,v2_duration_discrimination,discrim_jsons/v2_shuffled_g0.json,http://54.210.137.18/DepthDuration/v2_depth_discrimination_MTurk/v2_DepthDiscrim_HTML.html#4,4,1536,960,1536,960,10-16-2021,11-12-29,21,depth_discrimination_stimuli/000549_2014-06-08_22-10-24_260595134347_rgbf000247-resize_3/000549_2014-06-08_22-10-24_260595134347_rgbf000247-resize_3-target.png,depth_discrimination_stimuli/002509_2014-06-24_13-19-22_094959634447_rgbf000077-resize_0/002509_2014-06-24_13-19-22_094959634447_rgbf000077-resize_0-target.png,1000,1.841,1.3065,0,2050,1002,1000,1013,988,512,,1167233,50,Woman
374289,DepthScenes,v2_duration_discrimination,discrim_jsons/v2_shuffled_g0.json,http://54.210.137.18/DepthDuration/v2_depth_discrimination_MTurk/v2_DepthDiscrim_HTML.html#4,4,1536,960,1536,960,10-16-2021,11-12-29,22,depth_discrimination_stimuli/003495_2014-05-21_16-01-51_094959634447_rgbf000100-resize_3/003495_2014-05-21_16-01-51_094959634447_rgbf000100-resize_3-target.png,depth_discrimination_stimuli/002949_2014-06-26_15-57-42_094959634447_rgbf000079-resize_1/002949_2014-06-26_15-57-42_094959634447_rgbf000079-resize_1-target.png,250,1.6255,1.8915,0,1921,1003,263,993,253,489,,1167233,50,Woman
374289,DepthScenes,v2_duration_discrimination,discrim_jsons/v2_shuffled_g0.json,http://54.210.137.18/DepthDuration/v2_depth_discrimination_MTurk/v2_DepthDiscrim_HTML.html#4,4,1536,960,1536,960,10-16-2021,11-12-29,23,depth_discrimination_stimuli/001498_2014-06-19_17-45-14_260595134347_rgbf000129-resize_4/001498_2014-06-19_17-45-14_260595134347_rgbf000129-resize_4-target.png,depth_discrimination_stimuli/001498_2014-06-19_17-45-14_260595134347_rgbf000129-resize_4/001498_2014-06-19_17-45-14_260595134347_rgbf000129-resize_4-target.png,1000,1.4075,1.4075,3,1865,1015,993,994,1001,496,,1167233,50,Woman
374289,DepthScenes,v2_duration_discrimination,discrim_jsons/v2_shuffled_g0.json,http://54.210.137.18/DepthDuration/v2_depth_discrimination_MTurk/v2_DepthDiscrim_HTML.html#4,4,1536,960,1536,960,10-16-2021,11-12-29,24,depth_discrimination_stimuli/003490_2014-05-21_15-50-11_094959634447_rgbf000101-resize_3/003490_2014-05-21_15-50-11_094959634447_rgbf000101-resize_3-target.png,depth_discrimination_stimuli/000866_2014-06-09_20-45-42_260595134347_rgbf000139-resize_1/000866_2014-06-09_20-45-42_260595134347_rgbf000139-resize_1-target.png,1000,3.6445,3.2155,1,2030,1007,1016,994,989,500,,1167233,50,Woman
374289,DepthScenes,v2_duration_discrimination,discrim_jsons/v2_shuffled_g0.json,http://54.210.137.18/DepthDuration/v2_depth_discrimination_MTurk/v2_DepthDiscrim_HTML.html#4,4,1536,960,1536,960,10-16-2021,11-12-29,25,depth_discrimination_stimuli/002072_2014-06-24_21-48-06_260595134347_rgbf000115-resize_0/002072_2014-06-24_21-48-06_260595134347_rgbf000115-resize_0-target.png,depth_discrimination_stimuli/002072_2014-06-24_21-48-06_260595134347_rgbf000115-resize_0/002072_2014-06-24_21-48-06_260595134347_rgbf000115-resize_0-target.png,250,4.702,4.702,3,1594,1002,254,1001,248,506,,1167233,50,Woman
374289,DepthScenes,v2_duration_discrimination,discrim_jsons/v2_shuffled_g0.json,http://54.210.137.18/DepthDuration/v2_depth_discrimination_MTurk/v2_DepthDiscrim_HTML.html#4,4,1536,960,1536,960,10-16-2021,11-12-29,26,depth_discrimination_stimuli/002805_2014-06-22_19-54-03_094959634447_rgbf000079-resize_1/002805_2014-06-22_19-54-03_094959634447_rgbf000079-resize_1-target.png,depth_discrimination_stimuli/001584_2014-06-20_11-07-43_260595134347_rgbf000002-resize_1/001584_2014-06-20_11-07-43_260595134347_rgbf000002-resize_1-target.png,250,3.144,3.53,1,1664,1010,241,1011,251,492,,1167233,50,Woman
374289,DepthScenes,v2_duration_discrimination,discrim_jsons/v2_shuffled_g0.json,http://54.210.137.18/DepthDuration/v2_depth_discrimination_MTurk/v2_DepthDiscrim_HTML.html#4,4,1536,960,1536,960,10-16-2021,11-12-29,27,depth_discrimination_stimuli/003292_2014-05-14_21-53-49_094959634447_rgbf000100-resize_2/003292_2014-05-14_21-53-49_094959634447_rgbf000100-resize_2-target.png,depth_discrimination_stimuli/000542_2014-06-08_18-27-08_260595134347_rgbf000118-resize_1/000542_2014-06-08_18-27-08_260595134347_rgbf000118-resize_1-target.png,1000,3.4815,3,0,2280,1013,1002,992,1004,493,,1167233,50,Woman
374289,DepthScenes,v2_duration_discrimination,discrim_jsons/v2_shuffled_g0.json,http://54.210.137.18/DepthDuration/v2_depth_discrimination_MTurk/v2_DepthDiscrim_HTML.html#4,4,1536,960,1536,960,10-16-2021,11-12-29,28,depth_discrimination_stimuli/002549_2014-06-24_13-41-39_094959634447_rgbf000022-resize_3/002549_2014-06-24_13-41-39_094959634447_rgbf000022-resize_3-target.png,depth_discrimination_stimuli/001136_2014-06-17_15-19-41_260595134347_rgbf000076-resize_3/001136_2014-06-17_15-19-41_260595134347_rgbf000076-resize_3-target.png,1000,1.476,1.8655,0,1979,1010,1001,1003,995,495,,1167233,50,Woman
374289,DepthScenes,v2_duration_discrimination,discrim_jsons/v2_shuffled_g0.json,http://54.210.137.18/DepthDuration/v2_depth_discrimination_MTurk/v2_DepthDiscrim_HTML.html#4,4,1536,960,1536,960,10-16-2021,11-12-29,29,depth_discrimination_stimuli/000556_2014-06-09_22-42-56_260595134347_rgbf000214-resize_1/000556_2014-06-09_22-42-56_260595134347_rgbf000214-resize_1-target.png,depth_discrimination_stimuli/001148_2014-06-17_15-26-42_260595134347_rgbf000129-resize_0/001148_2014-06-17_15-26-42_260595134347_rgbf000129-resize_0-target.png,1000,4.8415,4.368,0,2125,1001,1007,998,1007,501,,1167233,50,Woman
374289,DepthScenes,v2_duration_discrimination,discrim_jsons/v2_shuffled_g0.json,http://54.210.137.18/DepthDuration/v2_depth_discrimination_MTurk/v2_DepthDiscrim_HTML.html#4,4,1536,960,1536,960,10-16-2021,11-12-29,30,depth_discrimination_stimuli/001450_2014-06-19_17-02-03_260595134347_rgbf000203-resize_4/001450_2014-06-19_17-02-03_260595134347_rgbf000203-resize_4-target.png,depth_discrimination_stimuli/002414_2014-06-28_20-24-58_260595134347_rgbf000067-resize_4/002414_2014-06-28_20-24-58_260595134347_rgbf000067-resize_4-target.png,250,4.0106666666667,4.363,0,1579,1014,250,988,255,501,,1167233,50,Woman
374289,DepthScenes,v2_duration_discrimination,discrim_jsons/v2_shuffled_g0.json,http://54.210.137.18/DepthDuration/v2_depth_discrimination_MTurk/v2_DepthDiscrim_HTML.html#4,4,1536,960,1536,960,10-16-2021,11-12-29,31,depth_discrimination_stimuli/000927_2014-06-09_16-32-30_260595134347_rgbf000123-resize_3/000927_2014-06-09_16-32-30_260595134347_rgbf000123-resize_3-target.png,depth_discrimination_stimuli/002678_2014-06-13_16-15-32_094959634447_rgbf000151-resize_6/002678_2014-06-13_16-15-32_094959634447_rgbf000151-resize_6-target.png,250,2.6785,2.183,0,2077,1014,243,1013,238,494,,1167233,50,Woman
374289,DepthScenes,v2_duration_discrimination,discrim_jsons/v2_shuffled_g0.json,http://54.210.137.18/DepthDuration/v2_depth_discrimination_MTurk/v2_DepthDiscrim_HTML.html#4,4,1536,960,1536,960,10-16-2021,11-12-29,32,depth_discrimination_stimuli/003423_2014-05-21_10-23-26_094959634447_rgbf002665-resize_2/003423_2014-05-21_10-23-26_094959634447_rgbf002665-resize_2-target.png,depth_discrimination_stimuli/000137_2014-05-20_17-04-49_260595134347_rgbf000120-resize_1/000137_2014-05-20_17-04-49_260595134347_rgbf000120-resize_1-target.png,250,3.2575,3.786,1,1653,1002,263,999,241,508,,1167233,50,Woman
374289,DepthScenes,v2_duration_discrimination,discrim_jsons/v2_shuffled_g0.json,http://54.210.137.18/DepthDuration/v2_depth_discrimination_MTurk/v2_DepthDiscrim_HTML.html#4,4,1536,960,1536,960,10-16-2021,11-12-29,33,depth_discrimination_stimuli/001158_2014-06-17_15-32-16_260595134347_rgbf000138-resize_2/001158_2014-06-17_15-32-16_260595134347_rgbf000138-resize_2-target.png,depth_discrimination_stimuli/001181_2014-06-17_15-50-57_260595134347_rgbf000106-resize_4/001181_2014-06-17_15-50-57_260595134347_rgbf000106-resize_4-target.png,250,4.5315,4.149,1,1308,1029,230,1018,231,493,,1167233,50,Woman
374289,DepthScenes,v2_duration_discrimination,discrim_jsons/v2_shuffled_g0.json,http://54.210.137.18/DepthDuration/v2_depth_discrimination_MTurk/v2_DepthDiscrim_HTML.html#4,4,1536,960,1536,960,10-16-2021,11-12-29,34,depth_discrimination_stimuli/002467_2014-06-28_20-38-07_260595134347_rgbf000026-resize_2/002467_2014-06-28_20-38-07_260595134347_rgbf000026-resize_2-target.png,depth_discrimination_stimuli/001133_2014-06-17_14-49-16_260595134347_rgbf000100-resize_0/001133_2014-06-17_14-49-16_260595134347_rgbf000100-resize_0-target.png,250,4.742,4.2115,0,1364,1012,248,997,255,497,,1167233,50,Woman
374289,DepthScenes,v2_duration_discrimination,discrim_jsons/v2_shuffled_g0.json,http://54.210.137.18/DepthDuration/v2_depth_discrimination_MTurk/v2_DepthDiscrim_HTML.html#4,4,1536,960,1536,960,10-16-2021,11-12-29,35,depth_discrimination_stimuli/001197_2014-06-17_16-01-50_260595134347_rgbf000103-resize_4/001197_2014-06-17_16-01-50_260595134347_rgbf000103-resize_4-target.png,depth_discrimination_stimuli/001235_2014-06-17_16-37-36_260595134347_rgbf000084-resize_4/001235_2014-06-17_16-37-36_260595134347_rgbf000084-resize_4-target.png,250,3.4025,3.6605,1,1567,1013,241,1008,245,497,,1167233,50,Woman
374289,DepthScenes,v2_duration_discrimination,discrim_jsons/v2_shuffled_g0.json,http://54.210.137.18/DepthDuration/v2_depth_discrimination_MTurk/v2_DepthDiscrim_HTML.html#4,4,1536,960,1536,960,10-16-2021,11-12-29,36,depth_discrimination_stimuli/001170_2014-06-17_15-43-44_260595134347_rgbf000096-resize_6/001170_2014-06-17_15-43-44_260595134347_rgbf000096-resize_6-target.png,depth_discrimination_stimuli/001170_2014-06-17_15-43-44_260595134347_rgbf000096-resize_6/001170_2014-06-17_15-43-44_260595134347_rgbf000096-resize_6-target.png,250,1.191,1.191,3,1685,1014,247,996,246,515,,1167233,50,Woman
374289,DepthScenes,v2_duration_discrimination,discrim_jsons/v2_shuffled_g0.json,http://54.210.137.18/DepthDuration/v2_depth_discrimination_MTurk/v2_DepthDiscrim_HTML.html#4,4,1536,960,1536,960,10-16-2021,11-12-29,37,depth_discrimination_stimuli/002323_2014-06-28_20-01-54_260595134347_rgbf000051-resize_4/002323_2014-06-28_20-01-54_260595134347_rgbf000051-resize_4-target.png,depth_discrimination_stimuli/001032_2014-06-08_13-23-17_260595134347_rgbf000021-resize_3/001032_2014-06-08_13-23-17_260595134347_rgbf000021-resize_3-target.png,250,3.731,3.2725,0,1397,1004,248,1000,256,503,,1167233,50,Woman
374289,DepthScenes,v2_duration_discrimination,discrim_jsons/v2_shuffled_g0.json,http://54.210.137.18/DepthDuration/v2_depth_discrimination_MTurk/v2_DepthDiscrim_HTML.html#4,4,1536,960,1536,960,10-16-2021,11-12-29,38,depth_discrimination_stimuli/001808_2014-06-26_20-50-58_260595134347_rgbf000029-resize_1/001808_2014-06-26_20-50-58_260595134347_rgbf000029-resize_1-target.png,depth_discrimination_stimuli/002748_2014-06-22_19-07-22_094959634447_rgbf000078-resize_1/002748_2014-06-22_19-07-22_094959634447_rgbf000078-resize_1-target.png,250,4.249,4.6705,0,1942,1014,248,999,249,518,,1167233,50,Woman
374289,DepthScenes,v2_duration_discrimination,discrim_jsons/v2_shuffled_g0.json,http://54.210.137.18/DepthDuration/v2_depth_discrimination_MTurk/v2_DepthDiscrim_HTML.html#4,4,1536,960,1536,960,10-16-2021,11-12-29,39,depth_discrimination_stimuli/002660_2014-06-13_15-44-18_094959634447_rgbf001878-resize_2/002660_2014-06-13_15-44-18_094959634447_rgbf001878-resize_2-target.png,depth_discrimination_stimuli/003081_2014-06-15_15-19-16_094959634447_rgbf000150-resize_1/003081_2014-06-15_15-19-16_094959634447_rgbf000150-resize_1-target.png,1000,3.576,3.9125,0,2200,1006,1024,982,989,501,,1167233,50,Woman
374289,DepthScenes,v2_duration_discrimination,discrim_jsons/v2_shuffled_g0.json,http://54.210.137.18/DepthDuration/v2_depth_discrimination_MTurk/v2_DepthDiscrim_HTML.html#4,4,1536,960,1536,960,10-16-2021,11-12-29,40,depth_discrimination_stimuli/003395_2014-05-20_15-39-18_094959634447_rgbf000101-resize_0/003395_2014-05-20_15-39-18_094959634447_rgbf000101-resize_0-target.png,depth_discrimination_stimuli/003395_2014-05-20_15-39-18_094959634447_rgbf000101-resize_0/003395_2014-05-20_15-39-18_094959634447_rgbf000101-resize_0-target.png,1000,4.835,4.835,3,2142,1031,979,997,1003,490,,1167233,50,Woman
374289,DepthScenes,v2_duration_discrimination,discrim_jsons/v2_shuffled_g0.json,http://54.210.137.18/DepthDuration/v2_depth_discrimination_MTurk/v2_DepthDiscrim_HTML.html#4,4,1536,960,1536,960,10-16-2021,11-12-29,40,,,,,,,2142,1031,979,997,1003,490,,1167233,50,Woman
