subjID,experimentName,versionName,sequenceName,url,selected_row,windowWidth,windowHeight,screenWidth,screenHeight,startDate,startTime,trial,stimulus_0,stimulus_1,duration,actual_depth_0,actual_depth_1,discrim_choice,trial_RT,log_fixation,log_sceneDuration1,log_mask1,log_sceneDuration2,log_mask2,experimentTime,totalTime,age,gender
587621,DepthScenes,v2_duration_discrimination,discrim_jsons/v2_shuffled_g0_dr.json,http://18.212.73.137/DepthDuration/v2_depth_discrimination_MTurk/v2_DepthDiscrim_HTML.html#1,1,1355,659,1366,768,10-23-2021,20-6-41,1,depth_discrimination_stimuli/001618_2014-06-20_11-37-31_260595134347_rgbf000027-resize_3/001618_2014-06-20_11-37-31_260595134347_rgbf000027-resize_3-target.png,depth_discrimination_stimuli/000109_2014-05-14_23-41-52_260595134347_rgbf000035-resize_9/000109_2014-05-14_23-41-52_260595134347_rgbf000035-resize_9-target.png,1000,1.8725,1.3545,3,3416,1002,1005,1005,991,510,,449963,34,Woman
587621,DepthScenes,v2_duration_discrimination,discrim_jsons/v2_shuffled_g0_dr.json,http://18.212.73.137/DepthDuration/v2_depth_discrimination_MTurk/v2_DepthDiscrim_HTML.html#1,1,1355,659,1366,768,10-23-2021,20-6-41,2,depth_discrimination_stimuli/002103_2014-06-25_20-00-40_260595134347_rgbf000049-resize_0/002103_2014-06-25_20-00-40_260595134347_rgbf000049-resize_0-target.png,depth_discrimination_stimuli/002444_2014-06-28_20-32-08_260595134347_rgbf000027-resize_0/002444_2014-06-28_20-32-08_260595134347_rgbf000027-resize_0-target.png,1000,4.105,4.389,0,1971,1002,1008,1002,998,500,,449963,34,Woman
587621,DepthScenes,v2_duration_discrimination,discrim_jsons/v2_shuffled_g0_dr.json,http://18.212.73.137/DepthDuration/v2_depth_discrimination_MTurk/v2_DepthDiscrim_HTML.html#1,1,1355,659,1366,768,10-23-2021,20-6-41,3,depth_discrimination_stimuli/000800_2014-06-08_22-42-09_260595134347_rgbf000095-resize_3/000800_2014-06-08_22-42-09_260595134347_rgbf000095-resize_3-target.png,depth_discrimination_stimuli/000869_2014-06-09_20-50-18_260595134347_rgbf000060-resize_3/000869_2014-06-09_20-50-18_260595134347_rgbf000060-resize_3-target.png,250,2.8,2.266,0,1318,1006,246,1002,247,510,,449963,34,Woman
587621,DepthScenes,v2_duration_discrimination,discrim_jsons/v2_shuffled_g0_dr.json,http://18.212.73.137/DepthDuration/v2_depth_discrimination_MTurk/v2_DepthDiscrim_HTML.html#1,1,1355,659,1366,768,10-23-2021,20-6-41,4,depth_discrimination_stimuli/001092_2014-06-15_17-34-58_260595134347_rgbf000171-resize_3/001092_2014-06-15_17-34-58_260595134347_rgbf000171-resize_3-target.png,depth_discrimination_stimuli/000502_2014-06-08_23-02-32_260595134347_rgbf000063-resize_4/000502_2014-06-08_23-02-32_260595134347_rgbf000063-resize_4-target.png,250,2.6935,2.431,0,1192,1012,248,1005,248,494,,449963,34,Woman
587621,DepthScenes,v2_duration_discrimination,discrim_jsons/v2_shuffled_g0_dr.json,http://18.212.73.137/DepthDuration/v2_depth_discrimination_MTurk/v2_DepthDiscrim_HTML.html#1,1,1355,659,1366,768,10-23-2021,20-6-41,5,depth_discrimination_stimuli/000953_2014-06-08_11-42-19_260595134347_rgbf000083-resize_0/000953_2014-06-08_11-42-19_260595134347_rgbf000083-resize_0-target.png,depth_discrimination_stimuli/000953_2014-06-08_11-42-19_260595134347_rgbf000083-resize_0/000953_2014-06-08_11-42-19_260595134347_rgbf000083-resize_0-target.png,250,1.369,1.369,3,1040,1005,248,1007,248,495,,449963,34,Woman
587621,DepthScenes,v2_duration_discrimination,discrim_jsons/v2_shuffled_g0_dr.json,http://18.212.73.137/DepthDuration/v2_depth_discrimination_MTurk/v2_DepthDiscrim_HTML.html#1,1,1355,659,1366,768,10-23-2021,20-6-41,6,depth_discrimination_stimuli/003083_2014-06-15_15-21-03_094959634447_rgbf000063-resize_1/003083_2014-06-15_15-21-03_094959634447_rgbf000063-resize_1-target.png,depth_discrimination_stimuli/000742_2014-06-08_18-48-09_260595134347_rgbf000164-resize_4/000742_2014-06-08_18-48-09_260595134347_rgbf000164-resize_4-target.png,1000,4.1405,4.632,1,2046,1014,990,1002,1001,496,,449963,34,Woman
587621,DepthScenes,v2_duration_discrimination,discrim_jsons/v2_shuffled_g0_dr.json,http://18.212.73.137/DepthDuration/v2_depth_discrimination_MTurk/v2_DepthDiscrim_HTML.html#1,1,1355,659,1366,768,10-23-2021,20-6-41,7,depth_discrimination_stimuli/000749_2014-06-08_21-55-06_260595134347_rgbf000070-resize_2/000749_2014-06-08_21-55-06_260595134347_rgbf000070-resize_2-target.png,depth_discrimination_stimuli/001056_2014-06-08_18-46-44_260595134347_rgbf000068-resize_0/001056_2014-06-08_18-46-44_260595134347_rgbf000068-resize_0-target.png,250,2.331,2.6625,0,1730,1005,247,1005,246,511,,449963,34,Woman
587621,DepthScenes,v2_duration_discrimination,discrim_jsons/v2_shuffled_g0_dr.json,http://18.212.73.137/DepthDuration/v2_depth_discrimination_MTurk/v2_DepthDiscrim_HTML.html#1,1,1355,659,1366,768,10-23-2021,20-6-41,8,depth_discrimination_stimuli/002043_2014-06-24_20-29-38_260595134347_rgbf000039-resize_4/002043_2014-06-24_20-29-38_260595134347_rgbf000039-resize_4-target.png,depth_discrimination_stimuli/001011_2014-06-08_23-18-54_260595134347_rgbf000044-resize_4/001011_2014-06-08_23-18-54_260595134347_rgbf000044-resize_4-target.png,1000,2.8435,2.473,0,3450,1001,1006,1003,1003,496,,449963,34,Woman
587621,DepthScenes,v2_duration_discrimination,discrim_jsons/v2_shuffled_g0_dr.json,http://18.212.73.137/DepthDuration/v2_depth_discrimination_MTurk/v2_DepthDiscrim_HTML.html#1,1,1355,659,1366,768,10-23-2021,20-6-41,9,depth_discrimination_stimuli/000454_2014-06-08_16-37-28_260595134347_rgbf000048-resize_2/000454_2014-06-08_16-37-28_260595134347_rgbf000048-resize_2-target.png,depth_discrimination_stimuli/000454_2014-06-08_16-37-28_260595134347_rgbf000048-resize_2/000454_2014-06-08_16-37-28_260595134347_rgbf000048-resize_2-target.png,1000,1.213,1.213,3,1829,1016,993,1001,1005,495,,449963,34,Woman
587621,DepthScenes,v2_duration_discrimination,discrim_jsons/v2_shuffled_g0_dr.json,http://18.212.73.137/DepthDuration/v2_depth_discrimination_MTurk/v2_DepthDiscrim_HTML.html#1,1,1355,659,1366,768,10-23-2021,20-6-41,10,depth_discrimination_stimuli/001532_2014-06-20_16-50-41_260595134347_rgbf000081-resize_4/001532_2014-06-20_16-50-41_260595134347_rgbf000081-resize_4-target.png,depth_discrimination_stimuli/000943_2014-06-09_19-31-07_260595134347_rgbf000128-resize_1/000943_2014-06-09_19-31-07_260595134347_rgbf000128-resize_1-target.png,250,1.5758333333333,1.9765,0,1838,1014,246,1002,247,495,,449963,34,Woman
587621,DepthScenes,v2_duration_discrimination,discrim_jsons/v2_shuffled_g0_dr.json,http://18.212.73.137/DepthDuration/v2_depth_discrimination_MTurk/v2_DepthDiscrim_HTML.html#1,1,1355,659,1366,768,10-23-2021,20-6-41,11,depth_discrimination_stimuli/002340_2014-06-28_20-05-46_260595134347_rgbf000113-resize_0/002340_2014-06-28_20-05-46_260595134347_rgbf000113-resize_0-target.png,depth_discrimination_stimuli/002905_2014-06-03_18-04-43_094959634447_rgbf000151-resize_2/002905_2014-06-03_18-04-43_094959634447_rgbf000151-resize_2-target.png,250,2.4735,2.0295,3,2779,1005,247,1005,248,496,,449963,34,Woman
587621,DepthScenes,v2_duration_discrimination,discrim_jsons/v2_shuffled_g0_dr.json,http://18.212.73.137/DepthDuration/v2_depth_discrimination_MTurk/v2_DepthDiscrim_HTML.html#1,1,1355,659,1366,768,10-23-2021,20-6-41,12,depth_discrimination_stimuli/000691_2014-06-08_13-08-50_260595134347_rgbf000132-resize_3/000691_2014-06-08_13-08-50_260595134347_rgbf000132-resize_3-target.png,depth_discrimination_stimuli/002039_2014-06-24_20-22-38_260595134347_rgbf000084-resize_1/002039_2014-06-24_20-22-38_260595134347_rgbf000084-resize_1-target.png,250,4.153,4.408,0,1213,1009,246,1004,247,509,,449963,34,Woman
587621,DepthScenes,v2_duration_discrimination,discrim_jsons/v2_shuffled_g0_dr.json,http://18.212.73.137/DepthDuration/v2_depth_discrimination_MTurk/v2_DepthDiscrim_HTML.html#1,1,1355,659,1366,768,10-23-2021,20-6-41,13,depth_discrimination_stimuli/000569_2014-06-09_22-51-47_260595134347_rgbf000141-resize_3/000569_2014-06-09_22-51-47_260595134347_rgbf000141-resize_3-target.png,depth_discrimination_stimuli/000569_2014-06-09_22-51-47_260595134347_rgbf000141-resize_3/000569_2014-06-09_22-51-47_260595134347_rgbf000141-resize_3-target.png,250,4.512,4.512,3,1143,1015,246,989,261,496,,449963,34,Woman
587621,DepthScenes,v2_duration_discrimination,discrim_jsons/v2_shuffled_g0_dr.json,http://18.212.73.137/DepthDuration/v2_depth_discrimination_MTurk/v2_DepthDiscrim_HTML.html#1,1,1355,659,1366,768,10-23-2021,20-6-41,14,depth_discrimination_stimuli/003587_2014-05-23_16-48-02_094959634447_rgbf002384-resize_2/003587_2014-05-23_16-48-02_094959634447_rgbf002384-resize_2-target.png,depth_discrimination_stimuli/000709_2014-06-08_13-51-55_260595134347_rgbf000068-resize_3/000709_2014-06-08_13-51-55_260595134347_rgbf000068-resize_3-target.png,250,1.357,1.803,0,1168,1007,246,1004,246,511,,449963,34,Woman
587621,DepthScenes,v2_duration_discrimination,discrim_jsons/v2_shuffled_g0_dr.json,http://18.212.73.137/DepthDuration/v2_depth_discrimination_MTurk/v2_DepthDiscrim_HTML.html#1,1,1355,659,1366,768,10-23-2021,20-6-41,15,depth_discrimination_stimuli/002199_2014-06-28_18-33-56_260595134347_rgbf000074-resize_0/002199_2014-06-28_18-33-56_260595134347_rgbf000074-resize_0-target.png,depth_discrimination_stimuli/001016_2014-06-09_16-16-10_260595134347_rgbf000112-resize_5/001016_2014-06-09_16-16-10_260595134347_rgbf000112-resize_5-target.png,1000,1.996,1.6565,0,3235,1012,1002,990,1004,494,,449963,34,Woman
587621,DepthScenes,v2_duration_discrimination,discrim_jsons/v2_shuffled_g0_dr.json,http://18.212.73.137/DepthDuration/v2_depth_discrimination_MTurk/v2_DepthDiscrim_HTML.html#1,1,1355,659,1366,768,10-23-2021,20-6-41,16,depth_discrimination_stimuli/000493_2014-06-09_21-01-18_260595134347_rgbf000196-resize_3/000493_2014-06-09_21-01-18_260595134347_rgbf000196-resize_3-target.png,depth_discrimination_stimuli/000409_2014-06-04_19-23-33_260595134347_rgbf000067-resize_0/000409_2014-06-04_19-23-33_260595134347_rgbf000067-resize_0-target.png,1000,3.44,3.7335,0,2615,1001,1006,1005,988,510,,449963,34,Woman
587621,DepthScenes,v2_duration_discrimination,discrim_jsons/v2_shuffled_g0_dr.json,http://18.212.73.137/DepthDuration/v2_depth_discrimination_MTurk/v2_DepthDiscrim_HTML.html#1,1,1355,659,1366,768,10-23-2021,20-6-41,17,depth_discrimination_stimuli/002953_2014-06-08_17-32-18_094959634447_rgbf000059-resize_5/002953_2014-06-08_17-32-18_094959634447_rgbf000059-resize_5-target.png,depth_discrimination_stimuli/000470_2014-06-09_19-42-40_260595134347_rgbf000094-resize_1/000470_2014-06-09_19-42-40_260595134347_rgbf000094-resize_1-target.png,1000,1.551,1.831,0,2169,1014,990,1007,1005,494,,449963,34,Woman
587621,DepthScenes,v2_duration_discrimination,discrim_jsons/v2_shuffled_g0_dr.json,http://18.212.73.137/DepthDuration/v2_depth_discrimination_MTurk/v2_DepthDiscrim_HTML.html#1,1,1355,659,1366,768,10-23-2021,20-6-41,18,depth_discrimination_stimuli/000929_2014-06-09_16-33-19_260595134347_rgbf000139-resize_0/000929_2014-06-09_16-33-19_260595134347_rgbf000139-resize_0-target.png,depth_discrimination_stimuli/001055_2014-06-08_18-45-35_260595134347_rgbf000111-resize_4/001055_2014-06-08_18-45-35_260595134347_rgbf000111-resize_4-target.png,250,2.868,2.429,0,1389,1012,247,1003,246,494,,449963,34,Woman
587621,DepthScenes,v2_duration_discrimination,discrim_jsons/v2_shuffled_g0_dr.json,http://18.212.73.137/DepthDuration/v2_depth_discrimination_MTurk/v2_DepthDiscrim_HTML.html#1,1,1355,659,1366,768,10-23-2021,20-6-41,19,depth_discrimination_stimuli/002118_2014-06-25_20-32-08_260595134347_rgbf000078-resize_1/002118_2014-06-25_20-32-08_260595134347_rgbf000078-resize_1-target.png,depth_discrimination_stimuli/001164_2014-06-17_15-35-46_260595134347_rgbf000085-resize_3/001164_2014-06-17_15-35-46_260595134347_rgbf000085-resize_3-target.png,250,2.646,2.354,0,1479,1004,261,987,261,495,,449963,34,Woman
587621,DepthScenes,v2_duration_discrimination,discrim_jsons/v2_shuffled_g0_dr.json,http://18.212.73.137/DepthDuration/v2_depth_discrimination_MTurk/v2_DepthDiscrim_HTML.html#1,1,1355,659,1366,768,10-23-2021,20-6-41,20,depth_discrimination_stimuli/002675_2014-06-13_16-08-49_094959634447_rgbf000151-resize_2/002675_2014-06-13_16-08-49_094959634447_rgbf000151-resize_2-target.png,depth_discrimination_stimuli/002675_2014-06-13_16-08-49_094959634447_rgbf000151-resize_2/002675_2014-06-13_16-08-49_094959634447_rgbf000151-resize_2-target.png,1000,4.5065,4.5065,3,3830,1006,1002,1002,1003,495,,449963,34,Woman
587621,DepthScenes,v2_duration_discrimination,discrim_jsons/v2_shuffled_g0_dr.json,http://18.212.73.137/DepthDuration/v2_depth_discrimination_MTurk/v2_DepthDiscrim_HTML.html#1,1,1355,659,1366,768,10-23-2021,20-6-41,21,depth_discrimination_stimuli/000556_2014-06-09_22-42-56_260595134347_rgbf000214-resize_1/000556_2014-06-09_22-42-56_260595134347_rgbf000214-resize_1-target.png,depth_discrimination_stimuli/001148_2014-06-17_15-26-42_260595134347_rgbf000129-resize_0/001148_2014-06-17_15-26-42_260595134347_rgbf000129-resize_0-target.png,250,4.8415,4.368,1,1232,1015,248,988,261,495,,449963,34,Woman
587621,DepthScenes,v2_duration_discrimination,discrim_jsons/v2_shuffled_g0_dr.json,http://18.212.73.137/DepthDuration/v2_depth_discrimination_MTurk/v2_DepthDiscrim_HTML.html#1,1,1355,659,1366,768,10-23-2021,20-6-41,22,depth_discrimination_stimuli/002805_2014-06-22_19-54-03_094959634447_rgbf000079-resize_1/002805_2014-06-22_19-54-03_094959634447_rgbf000079-resize_1-target.png,depth_discrimination_stimuli/001584_2014-06-20_11-07-43_260595134347_rgbf000002-resize_1/001584_2014-06-20_11-07-43_260595134347_rgbf000002-resize_1-target.png,1000,3.144,3.53,1,1954,1006,1003,1005,1001,495,,449963,34,Woman
587621,DepthScenes,v2_duration_discrimination,discrim_jsons/v2_shuffled_g0_dr.json,http://18.212.73.137/DepthDuration/v2_depth_discrimination_MTurk/v2_DepthDiscrim_HTML.html#1,1,1355,659,1366,768,10-23-2021,20-6-41,23,depth_discrimination_stimuli/000549_2014-06-08_22-10-24_260595134347_rgbf000247-resize_3/000549_2014-06-08_22-10-24_260595134347_rgbf000247-resize_3-target.png,depth_discrimination_stimuli/002509_2014-06-24_13-19-22_094959634447_rgbf000077-resize_0/002509_2014-06-24_13-19-22_094959634447_rgbf000077-resize_0-target.png,250,1.841,1.3065,0,1148,1010,246,1004,246,508,,449963,34,Woman
587621,DepthScenes,v2_duration_discrimination,discrim_jsons/v2_shuffled_g0_dr.json,http://18.212.73.137/DepthDuration/v2_depth_discrimination_MTurk/v2_DepthDiscrim_HTML.html#1,1,1355,659,1366,768,10-23-2021,20-6-41,24,depth_discrimination_stimuli/001450_2014-06-19_17-02-03_260595134347_rgbf000203-resize_4/001450_2014-06-19_17-02-03_260595134347_rgbf000203-resize_4-target.png,depth_discrimination_stimuli/002414_2014-06-28_20-24-58_260595134347_rgbf000067-resize_4/002414_2014-06-28_20-24-58_260595134347_rgbf000067-resize_4-target.png,1000,4.0106666666667,4.363,0,1988,1009,1004,989,999,512,,449963,34,Woman
587621,DepthScenes,v2_duration_discrimination,discrim_jsons/v2_shuffled_g0_dr.json,http://18.212.73.137/DepthDuration/v2_depth_discrimination_MTurk/v2_DepthDiscrim_HTML.html#1,1,1355,659,1366,768,10-23-2021,20-6-41,25,depth_discrimination_stimuli/003495_2014-05-21_16-01-51_094959634447_rgbf000100-resize_3/003495_2014-05-21_16-01-51_094959634447_rgbf000100-resize_3-target.png,depth_discrimination_stimuli/002949_2014-06-26_15-57-42_094959634447_rgbf000079-resize_1/002949_2014-06-26_15-57-42_094959634447_rgbf000079-resize_1-target.png,1000,1.6255,1.8915,0,2061,1002,1004,1000,998,509,,449963,34,Woman
587621,DepthScenes,v2_duration_discrimination,discrim_jsons/v2_shuffled_g0_dr.json,http://18.212.73.137/DepthDuration/v2_depth_discrimination_MTurk/v2_DepthDiscrim_HTML.html#1,1,1355,659,1366,768,10-23-2021,20-6-41,26,depth_discrimination_stimuli/001498_2014-06-19_17-45-14_260595134347_rgbf000129-resize_4/001498_2014-06-19_17-45-14_260595134347_rgbf000129-resize_4-target.png,depth_discrimination_stimuli/001498_2014-06-19_17-45-14_260595134347_rgbf000129-resize_4/001498_2014-06-19_17-45-14_260595134347_rgbf000129-resize_4-target.png,1000,1.4075,1.4075,3,1984,1006,1003,1001,1001,497,,449963,34,Woman
587621,DepthScenes,v2_duration_discrimination,discrim_jsons/v2_shuffled_g0_dr.json,http://18.212.73.137/DepthDuration/v2_depth_discrimination_MTurk/v2_DepthDiscrim_HTML.html#1,1,1355,659,1366,768,10-23-2021,20-6-41,27,depth_discrimination_stimuli/002549_2014-06-24_13-41-39_094959634447_rgbf000022-resize_3/002549_2014-06-24_13-41-39_094959634447_rgbf000022-resize_3-target.png,depth_discrimination_stimuli/001136_2014-06-17_15-19-41_260595134347_rgbf000076-resize_3/001136_2014-06-17_15-19-41_260595134347_rgbf000076-resize_3-target.png,250,1.476,1.8655,0,1686,1014,247,991,262,494,,449963,34,Woman
587621,DepthScenes,v2_duration_discrimination,discrim_jsons/v2_shuffled_g0_dr.json,http://18.212.73.137/DepthDuration/v2_depth_discrimination_MTurk/v2_DepthDiscrim_HTML.html#1,1,1355,659,1366,768,10-23-2021,20-6-41,28,depth_discrimination_stimuli/003490_2014-05-21_15-50-11_094959634447_rgbf000101-resize_3/003490_2014-05-21_15-50-11_094959634447_rgbf000101-resize_3-target.png,depth_discrimination_stimuli/000866_2014-06-09_20-45-42_260595134347_rgbf000139-resize_1/000866_2014-06-09_20-45-42_260595134347_rgbf000139-resize_1-target.png,250,3.6445,3.2155,0,1347,1015,246,990,261,495,,449963,34,Woman
587621,DepthScenes,v2_duration_discrimination,discrim_jsons/v2_shuffled_g0_dr.json,http://18.212.73.137/DepthDuration/v2_depth_discrimination_MTurk/v2_DepthDiscrim_HTML.html#1,1,1355,659,1366,768,10-23-2021,20-6-41,29,depth_discrimination_stimuli/003292_2014-05-14_21-53-49_094959634447_rgbf000100-resize_2/003292_2014-05-14_21-53-49_094959634447_rgbf000100-resize_2-target.png,depth_discrimination_stimuli/000542_2014-06-08_18-27-08_260595134347_rgbf000118-resize_1/000542_2014-06-08_18-27-08_260595134347_rgbf000118-resize_1-target.png,250,3.4815,3,0,1231,1016,245,1000,246,507,,449963,34,Woman
587621,DepthScenes,v2_duration_discrimination,discrim_jsons/v2_shuffled_g0_dr.json,http://18.212.73.137/DepthDuration/v2_depth_discrimination_MTurk/v2_DepthDiscrim_HTML.html#1,1,1355,659,1366,768,10-23-2021,20-6-41,30,depth_discrimination_stimuli/002072_2014-06-24_21-48-06_260595134347_rgbf000115-resize_0/002072_2014-06-24_21-48-06_260595134347_rgbf000115-resize_0-target.png,depth_discrimination_stimuli/002072_2014-06-24_21-48-06_260595134347_rgbf000115-resize_0/002072_2014-06-24_21-48-06_260595134347_rgbf000115-resize_0-target.png,250,4.702,4.702,3,1250,1002,262,989,247,510,,449963,34,Woman
587621,DepthScenes,v2_duration_discrimination,discrim_jsons/v2_shuffled_g0_dr.json,http://18.212.73.137/DepthDuration/v2_depth_discrimination_MTurk/v2_DepthDiscrim_HTML.html#1,1,1355,659,1366,768,10-23-2021,20-6-41,31,depth_discrimination_stimuli/000927_2014-06-09_16-32-30_260595134347_rgbf000123-resize_3/000927_2014-06-09_16-32-30_260595134347_rgbf000123-resize_3-target.png,depth_discrimination_stimuli/002678_2014-06-13_16-15-32_094959634447_rgbf000151-resize_6/002678_2014-06-13_16-15-32_094959634447_rgbf000151-resize_6-target.png,1000,2.6785,2.183,1,1907,1002,1006,1002,990,510,,449963,34,Woman
587621,DepthScenes,v2_duration_discrimination,discrim_jsons/v2_shuffled_g0_dr.json,http://18.212.73.137/DepthDuration/v2_depth_discrimination_MTurk/v2_DepthDiscrim_HTML.html#1,1,1355,659,1366,768,10-23-2021,20-6-41,32,depth_discrimination_stimuli/002660_2014-06-13_15-44-18_094959634447_rgbf001878-resize_2/002660_2014-06-13_15-44-18_094959634447_rgbf001878-resize_2-target.png,depth_discrimination_stimuli/003081_2014-06-15_15-19-16_094959634447_rgbf000150-resize_1/003081_2014-06-15_15-19-16_094959634447_rgbf000150-resize_1-target.png,250,3.576,3.9125,0,1358,1012,246,1004,247,496,,449963,34,Woman
587621,DepthScenes,v2_duration_discrimination,discrim_jsons/v2_shuffled_g0_dr.json,http://18.212.73.137/DepthDuration/v2_depth_discrimination_MTurk/v2_DepthDiscrim_HTML.html#1,1,1355,659,1366,768,10-23-2021,20-6-41,33,depth_discrimination_stimuli/001158_2014-06-17_15-32-16_260595134347_rgbf000138-resize_2/001158_2014-06-17_15-32-16_260595134347_rgbf000138-resize_2-target.png,depth_discrimination_stimuli/001181_2014-06-17_15-50-57_260595134347_rgbf000106-resize_4/001181_2014-06-17_15-50-57_260595134347_rgbf000106-resize_4-target.png,1000,4.5315,4.149,0,1870,1016,990,1003,1002,493,,449963,34,Woman
587621,DepthScenes,v2_duration_discrimination,discrim_jsons/v2_shuffled_g0_dr.json,http://18.212.73.137/DepthDuration/v2_depth_discrimination_MTurk/v2_DepthDiscrim_HTML.html#1,1,1355,659,1366,768,10-23-2021,20-6-41,34,depth_discrimination_stimuli/002467_2014-06-28_20-38-07_260595134347_rgbf000026-resize_2/002467_2014-06-28_20-38-07_260595134347_rgbf000026-resize_2-target.png,depth_discrimination_stimuli/001133_2014-06-17_14-49-16_260595134347_rgbf000100-resize_0/001133_2014-06-17_14-49-16_260595134347_rgbf000100-resize_0-target.png,1000,4.742,4.2115,0,2660,1012,990,1005,1005,493,,449963,34,Woman
587621,DepthScenes,v2_duration_discrimination,discrim_jsons/v2_shuffled_g0_dr.json,http://18.212.73.137/DepthDuration/v2_depth_discrimination_MTurk/v2_DepthDiscrim_HTML.html#1,1,1355,659,1366,768,10-23-2021,20-6-41,35,depth_discrimination_stimuli/001170_2014-06-17_15-43-44_260595134347_rgbf000096-resize_6/001170_2014-06-17_15-43-44_260595134347_rgbf000096-resize_6-target.png,depth_discrimination_stimuli/001170_2014-06-17_15-43-44_260595134347_rgbf000096-resize_6/001170_2014-06-17_15-43-44_260595134347_rgbf000096-resize_6-target.png,250,1.191,1.191,3,1210,1001,262,990,262,494,,449963,34,Woman
587621,DepthScenes,v2_duration_discrimination,discrim_jsons/v2_shuffled_g0_dr.json,http://18.212.73.137/DepthDuration/v2_depth_discrimination_MTurk/v2_DepthDiscrim_HTML.html#1,1,1355,659,1366,768,10-23-2021,20-6-41,36,depth_discrimination_stimuli/003423_2014-05-21_10-23-26_094959634447_rgbf002665-resize_2/003423_2014-05-21_10-23-26_094959634447_rgbf002665-resize_2-target.png,depth_discrimination_stimuli/000137_2014-05-20_17-04-49_260595134347_rgbf000120-resize_1/000137_2014-05-20_17-04-49_260595134347_rgbf000120-resize_1-target.png,1000,3.2575,3.786,1,1902,1015,1000,990,1007,492,,449963,34,Woman
587621,DepthScenes,v2_duration_discrimination,discrim_jsons/v2_shuffled_g0_dr.json,http://18.212.73.137/DepthDuration/v2_depth_discrimination_MTurk/v2_DepthDiscrim_HTML.html#1,1,1355,659,1366,768,10-23-2021,20-6-41,37,depth_discrimination_stimuli/001197_2014-06-17_16-01-50_260595134347_rgbf000103-resize_4/001197_2014-06-17_16-01-50_260595134347_rgbf000103-resize_4-target.png,depth_discrimination_stimuli/001235_2014-06-17_16-37-36_260595134347_rgbf000084-resize_4/001235_2014-06-17_16-37-36_260595134347_rgbf000084-resize_4-target.png,1000,3.4025,3.6605,1,3482,1014,1002,985,1003,510,,449963,34,Woman
587621,DepthScenes,v2_duration_discrimination,discrim_jsons/v2_shuffled_g0_dr.json,http://18.212.73.137/DepthDuration/v2_depth_discrimination_MTurk/v2_DepthDiscrim_HTML.html#1,1,1355,659,1366,768,10-23-2021,20-6-41,38,depth_discrimination_stimuli/003395_2014-05-20_15-39-18_094959634447_rgbf000101-resize_0/003395_2014-05-20_15-39-18_094959634447_rgbf000101-resize_0-target.png,depth_discrimination_stimuli/003395_2014-05-20_15-39-18_094959634447_rgbf000101-resize_0/003395_2014-05-20_15-39-18_094959634447_rgbf000101-resize_0-target.png,1000,4.835,4.835,3,2278,1012,1001,991,1005,495,,449963,34,Woman
587621,DepthScenes,v2_duration_discrimination,discrim_jsons/v2_shuffled_g0_dr.json,http://18.212.73.137/DepthDuration/v2_depth_discrimination_MTurk/v2_DepthDiscrim_HTML.html#1,1,1355,659,1366,768,10-23-2021,20-6-41,39,depth_discrimination_stimuli/001808_2014-06-26_20-50-58_260595134347_rgbf000029-resize_1/001808_2014-06-26_20-50-58_260595134347_rgbf000029-resize_1-target.png,depth_discrimination_stimuli/002748_2014-06-22_19-07-22_094959634447_rgbf000078-resize_1/002748_2014-06-22_19-07-22_094959634447_rgbf000078-resize_1-target.png,1000,4.249,4.6705,0,2074,1008,1003,1003,987,508,,449963,34,Woman
587621,DepthScenes,v2_duration_discrimination,discrim_jsons/v2_shuffled_g0_dr.json,http://18.212.73.137/DepthDuration/v2_depth_discrimination_MTurk/v2_DepthDiscrim_HTML.html#1,1,1355,659,1366,768,10-23-2021,20-6-41,40,depth_discrimination_stimuli/002323_2014-06-28_20-01-54_260595134347_rgbf000051-resize_4/002323_2014-06-28_20-01-54_260595134347_rgbf000051-resize_4-target.png,depth_discrimination_stimuli/001032_2014-06-08_13-23-17_260595134347_rgbf000021-resize_3/001032_2014-06-08_13-23-17_260595134347_rgbf000021-resize_3-target.png,1000,3.731,3.2725,0,2693,1010,1004,987,1002,510,,449963,34,Woman
587621,DepthScenes,v2_duration_discrimination,discrim_jsons/v2_shuffled_g0_dr.json,http://18.212.73.137/DepthDuration/v2_depth_discrimination_MTurk/v2_DepthDiscrim_HTML.html#1,1,1355,659,1366,768,10-23-2021,20-6-41,40,,,,,,,2693,1010,1004,987,1002,510,,449963,34,Woman
