,subjID,experimentName,versionName,sequenceName,url,selected_row,windowWidth,windowHeight,screenWidth,screenHeight,startDate,startTime,trial,stimulus_0,stimulus_1,duration,actual_depth_0,actual_depth_1,depth_difference,kinect_answer,discrim_choice,trial_RT,log_fixation,log_sceneDuration1,log_mask1,log_sceneDuration2,log_mask2,experimentTime,totalTime,age,gender
301,701929.0,DepthScenes,v2_duration_discrimination,discrim_jsons/Discrim1000_randls_24.json,http://54.173.230.142/FacialAge/BNav_EC2/DepthDuration/v2_depth_discrimination_MTurk/v2_DepthDiscrim_HTML.html#72,72.0,2560.0,1440.0,2560.0,1440.0,0-26-2022,8-51-4,2.0,depth_discrimination_stimuli/001570_2014-06-20_17-21-09_260595134347_rgbf000135-resize_4/001570_2014-06-20_17-21-09_260595134347_rgbf000135-resize_4-target.png,depth_discrimination_stimuli/001392_2014-06-19_16-07-59_260595134347_rgbf000046-resize_1/001392_2014-06-19_16-07-59_260595134347_rgbf000046-resize_1-target.png,1000.0,4.467,4.135,0.33199999999999985,depth_discrimination_stimuli/001392_2014-06-19_16-07-59_260595134347_rgbf000046-resize_1/001392_2014-06-19_16-07-59_260595134347_rgbf000046-resize_1-target.png,1.0,1896.0,1013.0,987.0,1003.0,1003.0,495.0,,1019446,38,Man
302,701929.0,DepthScenes,v2_duration_discrimination,discrim_jsons/Discrim1000_randls_24.json,http://54.173.230.142/FacialAge/BNav_EC2/DepthDuration/v2_depth_discrimination_MTurk/v2_DepthDiscrim_HTML.html#72,72.0,2560.0,1440.0,2560.0,1440.0,0-26-2022,8-51-4,3.0,depth_discrimination_stimuli/001555_2014-06-20_17-12-10_260595134347_rgbf000065-resize_4/001555_2014-06-20_17-12-10_260595134347_rgbf000065-resize_4-target.png,depth_discrimination_stimuli/000103_2014-05-14_22-01-17_260595134347_rgbf000152-resize_5/000103_2014-05-14_22-01-17_260595134347_rgbf000152-resize_5-target.png,1000.0,1.633,1.993,0.3600000000000001,depth_discrimination_stimuli/001555_2014-06-20_17-12-10_260595134347_rgbf000065-resize_4/001555_2014-06-20_17-12-10_260595134347_rgbf000065-resize_4-target.png,0.0,1988.0,1008.0,1004.0,998.0,1000.0,493.0,,1019446,38,Man
304,701929.0,DepthScenes,v2_duration_discrimination,discrim_jsons/Discrim1000_randls_24.json,http://54.173.230.142/FacialAge/BNav_EC2/DepthDuration/v2_depth_discrimination_MTurk/v2_DepthDiscrim_HTML.html#72,72.0,2560.0,1440.0,2560.0,1440.0,0-26-2022,8-51-4,5.0,depth_discrimination_stimuli/001066_2014-06-08_22-03-20_260595134347_rgbf000066-resize_4/001066_2014-06-08_22-03-20_260595134347_rgbf000066-resize_4-target.png,depth_discrimination_stimuli/000742_2014-06-08_18-48-09_260595134347_rgbf000164-resize_4/000742_2014-06-08_18-48-09_260595134347_rgbf000164-resize_4-target.png,1000.0,4.2330000000000005,4.632,0.39899999999999913,depth_discrimination_stimuli/001066_2014-06-08_22-03-20_260595134347_rgbf000066-resize_4/001066_2014-06-08_22-03-20_260595134347_rgbf000066-resize_4-target.png,1.0,1909.0,1003.0,1002.0,1004.0,1001.0,494.0,,1019446,38,Man
305,701929.0,DepthScenes,v2_duration_discrimination,discrim_jsons/Discrim1000_randls_24.json,http://54.173.230.142/FacialAge/BNav_EC2/DepthDuration/v2_depth_discrimination_MTurk/v2_DepthDiscrim_HTML.html#72,72.0,2560.0,1440.0,2560.0,1440.0,0-26-2022,8-51-4,6.0,depth_discrimination_stimuli/001158_2014-06-17_15-32-16_260595134347_rgbf000138-resize_2/001158_2014-06-17_15-32-16_260595134347_rgbf000138-resize_2-target.png,depth_discrimination_stimuli/000556_2014-06-09_22-42-56_260595134347_rgbf000214-resize_1/000556_2014-06-09_22-42-56_260595134347_rgbf000214-resize_1-target.png,1000.0,4.5315,4.8415,0.3099999999999996,depth_discrimination_stimuli/001158_2014-06-17_15-32-16_260595134347_rgbf000138-resize_2/001158_2014-06-17_15-32-16_260595134347_rgbf000138-resize_2-target.png,1.0,1954.0,1011.0,1001.0,992.0,1002.0,496.0,,1019446,38,Man
306,701929.0,DepthScenes,v2_duration_discrimination,discrim_jsons/Discrim1000_randls_24.json,http://54.173.230.142/FacialAge/BNav_EC2/DepthDuration/v2_depth_discrimination_MTurk/v2_DepthDiscrim_HTML.html#72,72.0,2560.0,1440.0,2560.0,1440.0,0-26-2022,8-51-4,7.0,depth_discrimination_stimuli/002725_2014-06-22_11-47-51_094959634447_rgbf000070-resize_1/002725_2014-06-22_11-47-51_094959634447_rgbf000070-resize_1-target.png,depth_discrimination_stimuli/002344_2014-06-28_20-06-29_260595134347_rgbf000030-resize_1/002344_2014-06-28_20-06-29_260595134347_rgbf000030-resize_1-target.png,1000.0,2.195,1.5795,0.6154999999999999,depth_discrimination_stimuli/002344_2014-06-28_20-06-29_260595134347_rgbf000030-resize_1/002344_2014-06-28_20-06-29_260595134347_rgbf000030-resize_1-target.png,1.0,1859.0,1003.0,1005.0,1002.0,1004.0,494.0,,1019446,38,Man
307,701929.0,DepthScenes,v2_duration_discrimination,discrim_jsons/Discrim1000_randls_24.json,http://54.173.230.142/FacialAge/BNav_EC2/DepthDuration/v2_depth_discrimination_MTurk/v2_DepthDiscrim_HTML.html#72,72.0,2560.0,1440.0,2560.0,1440.0,0-26-2022,8-51-4,8.0,depth_discrimination_stimuli/002964_2014-06-08_17-46-11_094959634447_rgbf000091-resize_4/002964_2014-06-08_17-46-11_094959634447_rgbf000091-resize_4-target.png,depth_discrimination_stimuli/002136_2014-06-25_21-18-03_260595134347_rgbf000109-resize_3/002136_2014-06-25_21-18-03_260595134347_rgbf000109-resize_3-target.png,1000.0,1.6909999999999998,1.9569999999999999,0.266,depth_discrimination_stimuli/002964_2014-06-08_17-46-11_094959634447_rgbf000091-resize_4/002964_2014-06-08_17-46-11_094959634447_rgbf000091-resize_4-target.png,0.0,1942.0,1013.0,990.0,1007.0,1002.0,494.0,,1019446,38,Man
308,701929.0,DepthScenes,v2_duration_discrimination,discrim_jsons/Discrim1000_randls_24.json,http://54.173.230.142/FacialAge/BNav_EC2/DepthDuration/v2_depth_discrimination_MTurk/v2_DepthDiscrim_HTML.html#72,72.0,2560.0,1440.0,2560.0,1440.0,0-26-2022,8-51-4,9.0,depth_discrimination_stimuli/003092_2014-06-24_21-01-49_094959634447_rgbf000049-resize_2/003092_2014-06-24_21-01-49_094959634447_rgbf000049-resize_2-target.png,depth_discrimination_stimuli/000869_2014-06-09_20-50-18_260595134347_rgbf000060-resize_3/000869_2014-06-09_20-50-18_260595134347_rgbf000060-resize_3-target.png,1000.0,1.666,2.266,0.6000000000000001,depth_discrimination_stimuli/003092_2014-06-24_21-01-49_094959634447_rgbf000049-resize_2/003092_2014-06-24_21-01-49_094959634447_rgbf000049-resize_2-target.png,0.0,1937.0,1010.0,1003.0,991.0,1005.0,492.0,,1019446,38,Man
309,701929.0,DepthScenes,v2_duration_discrimination,discrim_jsons/Discrim1000_randls_24.json,http://54.173.230.142/FacialAge/BNav_EC2/DepthDuration/v2_depth_discrimination_MTurk/v2_DepthDiscrim_HTML.html#72,72.0,2560.0,1440.0,2560.0,1440.0,0-26-2022,8-51-4,10.0,depth_discrimination_stimuli/000414_2014-06-04_19-49-13_260595134347_rgbf000044-resize_0/000414_2014-06-04_19-49-13_260595134347_rgbf000044-resize_0-target.png,depth_discrimination_stimuli/003129_2014-05-12_10-48-10_094959634447_rgbf000100-resize_0/003129_2014-05-12_10-48-10_094959634447_rgbf000100-resize_0-target.png,1000.0,4.329,4.9305,0.6015000000000006,depth_discrimination_stimuli/000414_2014-06-04_19-49-13_260595134347_rgbf000044-resize_0/000414_2014-06-04_19-49-13_260595134347_rgbf000044-resize_0-target.png,1.0,1939.0,1015.0,986.0,1005.0,1007.0,491.0,,1019446,38,Man
311,701929.0,DepthScenes,v2_duration_discrimination,discrim_jsons/Discrim1000_randls_24.json,http://54.173.230.142/FacialAge/BNav_EC2/DepthDuration/v2_depth_discrimination_MTurk/v2_DepthDiscrim_HTML.html#72,72.0,2560.0,1440.0,2560.0,1440.0,0-26-2022,8-51-4,12.0,depth_discrimination_stimuli/002788_2014-06-22_19-36-03_094959634447_rgbf000088-resize_2/002788_2014-06-22_19-36-03_094959634447_rgbf000088-resize_2-target.png,depth_discrimination_stimuli/000749_2014-06-08_21-55-06_260595134347_rgbf000070-resize_2/000749_2014-06-08_21-55-06_260595134347_rgbf000070-resize_2-target.png,1000.0,1.6465,2.331,0.6844999999999999,depth_discrimination_stimuli/002788_2014-06-22_19-36-03_094959634447_rgbf000088-resize_2/002788_2014-06-22_19-36-03_094959634447_rgbf000088-resize_2-target.png,1.0,2415.0,1014.0,991.0,1005.0,989.0,512.0,,1019446,38,Man
312,701929.0,DepthScenes,v2_duration_discrimination,discrim_jsons/Discrim1000_randls_24.json,http://54.173.230.142/FacialAge/BNav_EC2/DepthDuration/v2_depth_discrimination_MTurk/v2_DepthDiscrim_HTML.html#72,72.0,2560.0,1440.0,2560.0,1440.0,0-26-2022,8-51-4,13.0,depth_discrimination_stimuli/002153_2014-06-25_21-27-18_260595134347_rgbf000038-resize_5/002153_2014-06-25_21-27-18_260595134347_rgbf000038-resize_5-target.png,depth_discrimination_stimuli/002660_2014-06-13_15-44-18_094959634447_rgbf001878-resize_2/002660_2014-06-13_15-44-18_094959634447_rgbf001878-resize_2-target.png,1000.0,2.505,3.576,1.0710000000000002,depth_discrimination_stimuli/002153_2014-06-25_21-27-18_260595134347_rgbf000038-resize_5/002153_2014-06-25_21-27-18_260595134347_rgbf000038-resize_5-target.png,0.0,1899.0,1016.0,984.0,1005.0,1007.0,492.0,,1019446,38,Man
313,701929.0,DepthScenes,v2_duration_discrimination,discrim_jsons/Discrim1000_randls_24.json,http://54.173.230.142/FacialAge/BNav_EC2/DepthDuration/v2_depth_discrimination_MTurk/v2_DepthDiscrim_HTML.html#72,72.0,2560.0,1440.0,2560.0,1440.0,0-26-2022,8-51-4,14.0,depth_discrimination_stimuli/002213_2014-06-28_18-37-58_260595134347_rgbf000055-resize_1/002213_2014-06-28_18-37-58_260595134347_rgbf000055-resize_1-target.png,depth_discrimination_stimuli/000691_2014-06-08_13-08-50_260595134347_rgbf000132-resize_3/000691_2014-06-08_13-08-50_260595134347_rgbf000132-resize_3-target.png,1000.0,3.62,4.1530000000000005,0.5330000000000004,depth_discrimination_stimuli/002213_2014-06-28_18-37-58_260595134347_rgbf000055-resize_1/002213_2014-06-28_18-37-58_260595134347_rgbf000055-resize_1-target.png,1.0,2098.0,1006.0,1003.0,1003.0,1004.0,491.0,,1019446,38,Man
314,701929.0,DepthScenes,v2_duration_discrimination,discrim_jsons/Discrim1000_randls_24.json,http://54.173.230.142/FacialAge/BNav_EC2/DepthDuration/v2_depth_discrimination_MTurk/v2_DepthDiscrim_HTML.html#72,72.0,2560.0,1440.0,2560.0,1440.0,0-26-2022,8-51-4,15.0,depth_discrimination_stimuli/003546_2014-05-22_15-48-53_094959634447_rgbf004816-resize_3/003546_2014-05-22_15-48-53_094959634447_rgbf004816-resize_3-target.png,depth_discrimination_stimuli/001532_2014-06-20_16-50-41_260595134347_rgbf000081-resize_4/001532_2014-06-20_16-50-41_260595134347_rgbf000081-resize_4-target.png,1000.0,2.62625,1.5758333333333001,1.0504166666667,depth_discrimination_stimuli/001532_2014-06-20_16-50-41_260595134347_rgbf000081-resize_4/001532_2014-06-20_16-50-41_260595134347_rgbf000081-resize_4-target.png,1.0,1978.0,1002.0,1002.0,1003.0,1006.0,494.0,,1019446,38,Man
316,701929.0,DepthScenes,v2_duration_discrimination,discrim_jsons/Discrim1000_randls_24.json,http://54.173.230.142/FacialAge/BNav_EC2/DepthDuration/v2_depth_discrimination_MTurk/v2_DepthDiscrim_HTML.html#72,72.0,2560.0,1440.0,2560.0,1440.0,0-26-2022,8-51-4,17.0,depth_discrimination_stimuli/000929_2014-06-09_16-33-19_260595134347_rgbf000139-resize_0/000929_2014-06-09_16-33-19_260595134347_rgbf000139-resize_0-target.png,depth_discrimination_stimuli/000457_2014-06-08_16-52-43_260595134347_rgbf000199-resize_1/000457_2014-06-08_16-52-43_260595134347_rgbf000199-resize_1-target.png,1000.0,2.8680000000000003,3.6489999999999996,0.7809999999999993,depth_discrimination_stimuli/000929_2014-06-09_16-33-19_260595134347_rgbf000139-resize_0/000929_2014-06-09_16-33-19_260595134347_rgbf000139-resize_0-target.png,0.0,1941.0,1014.0,989.0,1005.0,1001.0,503.0,,1019446,38,Man
317,701929.0,DepthScenes,v2_duration_discrimination,discrim_jsons/Discrim1000_randls_24.json,http://54.173.230.142/FacialAge/BNav_EC2/DepthDuration/v2_depth_discrimination_MTurk/v2_DepthDiscrim_HTML.html#72,72.0,2560.0,1440.0,2560.0,1440.0,0-26-2022,8-51-4,18.0,depth_discrimination_stimuli/000642_2014-06-08_16-59-25_260595134347_rgbf000098-resize_2/000642_2014-06-08_16-59-25_260595134347_rgbf000098-resize_2-target.png,depth_discrimination_stimuli/002425_2014-06-28_20-27-29_260595134347_rgbf000031-resize_8/002425_2014-06-28_20-27-29_260595134347_rgbf000031-resize_8-target.png,1000.0,2.8815,3.8960000000000004,1.0145000000000004,depth_discrimination_stimuli/000642_2014-06-08_16-59-25_260595134347_rgbf000098-resize_2/000642_2014-06-08_16-59-25_260595134347_rgbf000098-resize_2-target.png,0.0,1915.0,1014.0,1001.0,988.0,1004.0,496.0,,1019446,38,Man
318,701929.0,DepthScenes,v2_duration_discrimination,discrim_jsons/Discrim1000_randls_24.json,http://54.173.230.142/FacialAge/BNav_EC2/DepthDuration/v2_depth_discrimination_MTurk/v2_DepthDiscrim_HTML.html#72,72.0,2560.0,1440.0,2560.0,1440.0,0-26-2022,8-51-4,19.0,depth_discrimination_stimuli/000447_2014-06-08_16-15-46_260595134347_rgbf000130-resize_1/000447_2014-06-08_16-15-46_260595134347_rgbf000130-resize_1-target.png,depth_discrimination_stimuli/001447_2014-06-19_17-00-32_260595134347_rgbf000082-resize_5/001447_2014-06-19_17-00-32_260595134347_rgbf000082-resize_5-target.png,1000.0,4.479,4.13775,0.3412500000000005,depth_discrimination_stimuli/001447_2014-06-19_17-00-32_260595134347_rgbf000082-resize_5/001447_2014-06-19_17-00-32_260595134347_rgbf000082-resize_5-target.png,1.0,1922.0,1007.0,1000.0,1002.0,1004.0,497.0,,1019446,38,Man
319,701929.0,DepthScenes,v2_duration_discrimination,discrim_jsons/Discrim1000_randls_24.json,http://54.173.230.142/FacialAge/BNav_EC2/DepthDuration/v2_depth_discrimination_MTurk/v2_DepthDiscrim_HTML.html#72,72.0,2560.0,1440.0,2560.0,1440.0,0-26-2022,8-51-4,20.0,depth_discrimination_stimuli/002905_2014-06-03_18-04-43_094959634447_rgbf000151-resize_2/002905_2014-06-03_18-04-43_094959634447_rgbf000151-resize_2-target.png,depth_discrimination_stimuli/003423_2014-05-21_10-23-26_094959634447_rgbf002665-resize_2/003423_2014-05-21_10-23-26_094959634447_rgbf002665-resize_2-target.png,1000.0,2.0295,3.2575,1.2279999999999998,depth_discrimination_stimuli/002905_2014-06-03_18-04-43_094959634447_rgbf000151-resize_2/002905_2014-06-03_18-04-43_094959634447_rgbf000151-resize_2-target.png,0.0,2085.0,1002.0,1000.0,999.0,1001.0,509.0,,1019446,38,Man
320,701929.0,DepthScenes,v2_duration_discrimination,discrim_jsons/Discrim1000_randls_24.json,http://54.173.230.142/FacialAge/BNav_EC2/DepthDuration/v2_depth_discrimination_MTurk/v2_DepthDiscrim_HTML.html#72,72.0,2560.0,1440.0,2560.0,1440.0,0-26-2022,8-51-4,21.0,depth_discrimination_stimuli/003070_2014-06-15_14-58-27_094959634447_rgbf000150-resize_3/003070_2014-06-15_14-58-27_094959634447_rgbf000150-resize_3-target.png,depth_discrimination_stimuli/000943_2014-06-09_19-31-07_260595134347_rgbf000128-resize_1/000943_2014-06-09_19-31-07_260595134347_rgbf000128-resize_1-target.png,1000.0,2.9415,1.9765,0.9650000000000001,depth_discrimination_stimuli/000943_2014-06-09_19-31-07_260595134347_rgbf000128-resize_1/000943_2014-06-09_19-31-07_260595134347_rgbf000128-resize_1-target.png,1.0,1968.0,1015.0,990.0,1004.0,1004.0,494.0,,1019446,38,Man
321,701929.0,DepthScenes,v2_duration_discrimination,discrim_jsons/Discrim1000_randls_24.json,http://54.173.230.142/FacialAge/BNav_EC2/DepthDuration/v2_depth_discrimination_MTurk/v2_DepthDiscrim_HTML.html#72,72.0,2560.0,1440.0,2560.0,1440.0,0-26-2022,8-51-4,22.0,depth_discrimination_stimuli/003069_2014-06-15_14-57-50_094959634447_rgbf000150-resize_4/003069_2014-06-15_14-57-50_094959634447_rgbf000150-resize_4-target.png,depth_discrimination_stimuli/002700_2014-06-22_11-27-02_094959634447_rgbf000124-resize_3/002700_2014-06-22_11-27-02_094959634447_rgbf000124-resize_3-target.png,1000.0,4.208,3.301,0.907,depth_discrimination_stimuli/002700_2014-06-22_11-27-02_094959634447_rgbf000124-resize_3/002700_2014-06-22_11-27-02_094959634447_rgbf000124-resize_3-target.png,1.0,2005.0,1014.0,1002.0,1000.0,992.0,506.0,,1019446,38,Man
322,701929.0,DepthScenes,v2_duration_discrimination,discrim_jsons/Discrim1000_randls_24.json,http://54.173.230.142/FacialAge/BNav_EC2/DepthDuration/v2_depth_discrimination_MTurk/v2_DepthDiscrim_HTML.html#72,72.0,2560.0,1440.0,2560.0,1440.0,0-26-2022,8-51-4,23.0,depth_discrimination_stimuli/003288_2014-05-14_21-50-30_094959634447_rgbf000028-resize_3/003288_2014-05-14_21-50-30_094959634447_rgbf000028-resize_3-target.png,depth_discrimination_stimuli/001197_2014-06-17_16-01-50_260595134347_rgbf000103-resize_4/001197_2014-06-17_16-01-50_260595134347_rgbf000103-resize_4-target.png,1000.0,3.877,3.4025,0.4744999999999999,depth_discrimination_stimuli/001197_2014-06-17_16-01-50_260595134347_rgbf000103-resize_4/001197_2014-06-17_16-01-50_260595134347_rgbf000103-resize_4-target.png,0.0,2044.0,1009.0,1006.0,1001.0,986.0,508.0,,1019446,38,Man
323,701929.0,DepthScenes,v2_duration_discrimination,discrim_jsons/Discrim1000_randls_24.json,http://54.173.230.142/FacialAge/BNav_EC2/DepthDuration/v2_depth_discrimination_MTurk/v2_DepthDiscrim_HTML.html#72,72.0,2560.0,1440.0,2560.0,1440.0,0-26-2022,8-51-4,24.0,depth_discrimination_stimuli/001148_2014-06-17_15-26-42_260595134347_rgbf000129-resize_0/001148_2014-06-17_15-26-42_260595134347_rgbf000129-resize_0-target.png,depth_discrimination_stimuli/000505_2014-06-08_23-03-23_260595134347_rgbf000091-resize_0/000505_2014-06-08_23-03-23_260595134347_rgbf000091-resize_0-target.png,1000.0,4.368,3.3105,1.0575,depth_discrimination_stimuli/000505_2014-06-08_23-03-23_260595134347_rgbf000091-resize_0/000505_2014-06-08_23-03-23_260595134347_rgbf000091-resize_0-target.png,1.0,1888.0,1010.0,1002.0,992.0,1003.0,494.0,,1019446,38,Man
324,701929.0,DepthScenes,v2_duration_discrimination,discrim_jsons/Discrim1000_randls_24.json,http://54.173.230.142/FacialAge/BNav_EC2/DepthDuration/v2_depth_discrimination_MTurk/v2_DepthDiscrim_HTML.html#72,72.0,2560.0,1440.0,2560.0,1440.0,0-26-2022,8-51-4,25.0,depth_discrimination_stimuli/001181_2014-06-17_15-50-57_260595134347_rgbf000106-resize_4/001181_2014-06-17_15-50-57_260595134347_rgbf000106-resize_4-target.png,depth_discrimination_stimuli/000542_2014-06-08_18-27-08_260595134347_rgbf000118-resize_1/000542_2014-06-08_18-27-08_260595134347_rgbf000118-resize_1-target.png,1000.0,4.149,3.0,1.149,depth_discrimination_stimuli/000542_2014-06-08_18-27-08_260595134347_rgbf000118-resize_1/000542_2014-06-08_18-27-08_260595134347_rgbf000118-resize_1-target.png,1.0,1847.0,1014.0,988.0,1000.0,1004.0,508.0,,1019446,38,Man
325,701929.0,DepthScenes,v2_duration_discrimination,discrim_jsons/Discrim1000_randls_24.json,http://54.173.230.142/FacialAge/BNav_EC2/DepthDuration/v2_depth_discrimination_MTurk/v2_DepthDiscrim_HTML.html#72,72.0,2560.0,1440.0,2560.0,1440.0,0-26-2022,8-51-4,26.0,depth_discrimination_stimuli/000739_2014-06-08_18-45-58_260595134347_rgbf000068-resize_1/000739_2014-06-08_18-45-58_260595134347_rgbf000068-resize_1-target.png,depth_discrimination_stimuli/000734_2014-06-08_17-39-11_260595134347_rgbf000128-resize_2/000734_2014-06-08_17-39-11_260595134347_rgbf000128-resize_2-target.png,1000.0,3.534,4.098,0.5640000000000001,depth_discrimination_stimuli/000739_2014-06-08_18-45-58_260595134347_rgbf000068-resize_1/000739_2014-06-08_18-45-58_260595134347_rgbf000068-resize_1-target.png,0.0,1893.0,1010.0,993.0,1004.0,998.0,496.0,,1019446,38,Man
326,701929.0,DepthScenes,v2_duration_discrimination,discrim_jsons/Discrim1000_randls_24.json,http://54.173.230.142/FacialAge/BNav_EC2/DepthDuration/v2_depth_discrimination_MTurk/v2_DepthDiscrim_HTML.html#72,72.0,2560.0,1440.0,2560.0,1440.0,0-26-2022,8-51-4,27.0,depth_discrimination_stimuli/002875_2014-06-01_15-19-00_094959634447_rgbf000151-resize_1/002875_2014-06-01_15-19-00_094959634447_rgbf000151-resize_1-target.png,depth_discrimination_stimuli/001011_2014-06-08_23-18-54_260595134347_rgbf000044-resize_4/001011_2014-06-08_23-18-54_260595134347_rgbf000044-resize_4-target.png,1000.0,1.9675,2.4730000000000003,0.5055000000000003,depth_discrimination_stimuli/002875_2014-06-01_15-19-00_094959634447_rgbf000151-resize_1/002875_2014-06-01_15-19-00_094959634447_rgbf000151-resize_1-target.png,1.0,1980.0,1010.0,1005.0,988.0,1005.0,493.0,,1019446,38,Man
327,701929.0,DepthScenes,v2_duration_discrimination,discrim_jsons/Discrim1000_randls_24.json,http://54.173.230.142/FacialAge/BNav_EC2/DepthDuration/v2_depth_discrimination_MTurk/v2_DepthDiscrim_HTML.html#72,72.0,2560.0,1440.0,2560.0,1440.0,0-26-2022,8-51-4,28.0,depth_discrimination_stimuli/001571_2014-06-20_17-21-32_260595134347_rgbf000089-resize_1/001571_2014-06-20_17-21-32_260595134347_rgbf000089-resize_1-target.png,depth_discrimination_stimuli/002272_2014-06-28_18-53-56_260595134347_rgbf000067-resize_2/002272_2014-06-28_18-53-56_260595134347_rgbf000067-resize_2-target.png,1000.0,1.86,1.138,0.7220000000000002,depth_discrimination_stimuli/002272_2014-06-28_18-53-56_260595134347_rgbf000067-resize_2/002272_2014-06-28_18-53-56_260595134347_rgbf000067-resize_2-target.png,1.0,2134.0,1009.0,1003.0,990.0,1003.0,510.0,,1019446,38,Man
328,701929.0,DepthScenes,v2_duration_discrimination,discrim_jsons/Discrim1000_randls_24.json,http://54.173.230.142/FacialAge/BNav_EC2/DepthDuration/v2_depth_discrimination_MTurk/v2_DepthDiscrim_HTML.html#72,72.0,2560.0,1440.0,2560.0,1440.0,0-26-2022,8-51-4,29.0,depth_discrimination_stimuli/000906_2014-06-08_13-35-43_260595134347_rgbf000155-resize_1/000906_2014-06-08_13-35-43_260595134347_rgbf000155-resize_1-target.png,depth_discrimination_stimuli/002805_2014-06-22_19-54-03_094959634447_rgbf000079-resize_1/002805_2014-06-22_19-54-03_094959634447_rgbf000079-resize_1-target.png,1000.0,2.8489999999999998,3.1439999999999997,0.29499999999999993,depth_discrimination_stimuli/000906_2014-06-08_13-35-43_260595134347_rgbf000155-resize_1/000906_2014-06-08_13-35-43_260595134347_rgbf000155-resize_1-target.png,1.0,2224.0,1005.0,1003.0,998.0,1003.0,491.0,,1019446,38,Man
329,701929.0,DepthScenes,v2_duration_discrimination,discrim_jsons/Discrim1000_randls_24.json,http://54.173.230.142/FacialAge/BNav_EC2/DepthDuration/v2_depth_discrimination_MTurk/v2_DepthDiscrim_HTML.html#72,72.0,2560.0,1440.0,2560.0,1440.0,0-26-2022,8-51-4,30.0,depth_discrimination_stimuli/002784_2014-06-22_19-26-30_094959634447_rgbf000083-resize_3/002784_2014-06-22_19-26-30_094959634447_rgbf000083-resize_3-target.png,depth_discrimination_stimuli/001100_2014-06-15_17-46-26_260595134347_rgbf000225-resize_2/001100_2014-06-15_17-46-26_260595134347_rgbf000225-resize_2-target.png,1000.0,1.8046666666667,2.24,0.43533333333330027,depth_discrimination_stimuli/002784_2014-06-22_19-26-30_094959634447_rgbf000083-resize_3/002784_2014-06-22_19-26-30_094959634447_rgbf000083-resize_3-target.png,1.0,2379.0,1015.0,986.0,1003.0,1004.0,492.0,,1019446,38,Man
330,701929.0,DepthScenes,v2_duration_discrimination,discrim_jsons/Discrim1000_randls_24.json,http://54.173.230.142/FacialAge/BNav_EC2/DepthDuration/v2_depth_discrimination_MTurk/v2_DepthDiscrim_HTML.html#72,72.0,2560.0,1440.0,2560.0,1440.0,0-26-2022,8-51-4,31.0,depth_discrimination_stimuli/000009_2014-05-26_14-32-05_260595134347_rgbf000034-resize_3/000009_2014-05-26_14-32-05_260595134347_rgbf000034-resize_3-target.png,depth_discrimination_stimuli/001828_2014-06-26_21-40-03_260595134347_rgbf000024-resize_0/001828_2014-06-26_21-40-03_260595134347_rgbf000024-resize_0-target.png,1000.0,3.8715,4.8260000000000005,0.9545000000000003,depth_discrimination_stimuli/000009_2014-05-26_14-32-05_260595134347_rgbf000034-resize_3/000009_2014-05-26_14-32-05_260595134347_rgbf000034-resize_3-target.png,1.0,1925.0,1016.0,992.0,1003.0,1001.0,496.0,,1019446,38,Man
331,701929.0,DepthScenes,v2_duration_discrimination,discrim_jsons/Discrim1000_randls_24.json,http://54.173.230.142/FacialAge/BNav_EC2/DepthDuration/v2_depth_discrimination_MTurk/v2_DepthDiscrim_HTML.html#72,72.0,2560.0,1440.0,2560.0,1440.0,0-26-2022,8-51-4,32.0,depth_discrimination_stimuli/001188_2014-06-17_15-54-10_260595134347_rgbf000090-resize_2/001188_2014-06-17_15-54-10_260595134347_rgbf000090-resize_2-target.png,depth_discrimination_stimuli/002464_2014-06-28_20-36-57_260595134347_rgbf000029-resize_0/002464_2014-06-28_20-36-57_260595134347_rgbf000029-resize_0-target.png,1000.0,2.7439999999999998,3.9525,1.2085000000000004,depth_discrimination_stimuli/001188_2014-06-17_15-54-10_260595134347_rgbf000090-resize_2/001188_2014-06-17_15-54-10_260595134347_rgbf000090-resize_2-target.png,0.0,1922.0,1016.0,989.0,1000.0,1003.0,496.0,,1019446,38,Man
333,701929.0,DepthScenes,v2_duration_discrimination,discrim_jsons/Discrim1000_randls_24.json,http://54.173.230.142/FacialAge/BNav_EC2/DepthDuration/v2_depth_discrimination_MTurk/v2_DepthDiscrim_HTML.html#72,72.0,2560.0,1440.0,2560.0,1440.0,0-26-2022,8-51-4,34.0,depth_discrimination_stimuli/001056_2014-06-08_18-46-44_260595134347_rgbf000068-resize_0/001056_2014-06-08_18-46-44_260595134347_rgbf000068-resize_0-target.png,depth_discrimination_stimuli/002199_2014-06-28_18-33-56_260595134347_rgbf000074-resize_0/002199_2014-06-28_18-33-56_260595134347_rgbf000074-resize_0-target.png,1000.0,2.6625,1.996,0.6665000000000001,depth_discrimination_stimuli/002199_2014-06-28_18-33-56_260595134347_rgbf000074-resize_0/002199_2014-06-28_18-33-56_260595134347_rgbf000074-resize_0-target.png,1.0,1910.0,1005.0,1004.0,1004.0,987.0,509.0,,1019446,38,Man
334,701929.0,DepthScenes,v2_duration_discrimination,discrim_jsons/Discrim1000_randls_24.json,http://54.173.230.142/FacialAge/BNav_EC2/DepthDuration/v2_depth_discrimination_MTurk/v2_DepthDiscrim_HTML.html#72,72.0,2560.0,1440.0,2560.0,1440.0,0-26-2022,8-51-4,35.0,depth_discrimination_stimuli/002057_2014-06-24_21-00-13_260595134347_rgbf000120-resize_1/002057_2014-06-24_21-00-13_260595134347_rgbf000120-resize_1-target.png,depth_discrimination_stimuli/000709_2014-06-08_13-51-55_260595134347_rgbf000068-resize_3/000709_2014-06-08_13-51-55_260595134347_rgbf000068-resize_3-target.png,1000.0,2.967,1.8030000000000002,1.164,depth_discrimination_stimuli/000709_2014-06-08_13-51-55_260595134347_rgbf000068-resize_3/000709_2014-06-08_13-51-55_260595134347_rgbf000068-resize_3-target.png,1.0,1852.0,1009.0,1004.0,995.0,1003.0,493.0,,1019446,38,Man
335,701929.0,DepthScenes,v2_duration_discrimination,discrim_jsons/Discrim1000_randls_24.json,http://54.173.230.142/FacialAge/BNav_EC2/DepthDuration/v2_depth_discrimination_MTurk/v2_DepthDiscrim_HTML.html#72,72.0,2560.0,1440.0,2560.0,1440.0,0-26-2022,8-51-4,36.0,depth_discrimination_stimuli/003492_2014-05-21_15-50-55_094959634447_rgbf000828-resize_1/003492_2014-05-21_15-50-55_094959634447_rgbf000828-resize_1-target.png,depth_discrimination_stimuli/002568_2014-06-24_13-59-21_094959634447_rgbf000062-resize_4/002568_2014-06-24_13-59-21_094959634447_rgbf000062-resize_4-target.png,1000.0,4.06875,3.015,1.0537499999999995,depth_discrimination_stimuli/002568_2014-06-24_13-59-21_094959634447_rgbf000062-resize_4/002568_2014-06-24_13-59-21_094959634447_rgbf000062-resize_4-target.png,1.0,1807.0,1006.0,1001.0,1004.0,1004.0,494.0,,1019446,38,Man
336,701929.0,DepthScenes,v2_duration_discrimination,discrim_jsons/Discrim1000_randls_24.json,http://54.173.230.142/FacialAge/BNav_EC2/DepthDuration/v2_depth_discrimination_MTurk/v2_DepthDiscrim_HTML.html#72,72.0,2560.0,1440.0,2560.0,1440.0,0-26-2022,8-51-4,37.0,depth_discrimination_stimuli/003621_2014-05-23_18-06-08_094959634447_rgbf000101-resize_1/003621_2014-05-23_18-06-08_094959634447_rgbf000101-resize_1-target.png,depth_discrimination_stimuli/001584_2014-06-20_11-07-43_260595134347_rgbf000002-resize_1/001584_2014-06-20_11-07-43_260595134347_rgbf000002-resize_1-target.png,1000.0,3.9835,3.53,0.4535,depth_discrimination_stimuli/001584_2014-06-20_11-07-43_260595134347_rgbf000002-resize_1/001584_2014-06-20_11-07-43_260595134347_rgbf000002-resize_1-target.png,1.0,1837.0,1001.0,1004.0,1004.0,1004.0,493.0,,1019446,38,Man
337,701929.0,DepthScenes,v2_duration_discrimination,discrim_jsons/Discrim1000_randls_24.json,http://54.173.230.142/FacialAge/BNav_EC2/DepthDuration/v2_depth_discrimination_MTurk/v2_DepthDiscrim_HTML.html#72,72.0,2560.0,1440.0,2560.0,1440.0,0-26-2022,8-51-4,38.0,depth_discrimination_stimuli/002630_2014-06-24_14-47-50_094959634447_rgbf000055-resize_1/002630_2014-06-24_14-47-50_094959634447_rgbf000055-resize_1-target.png,depth_discrimination_stimuli/002758_2014-06-22_19-11-20_094959634447_rgbf000128-resize_1/002758_2014-06-22_19-11-20_094959634447_rgbf000128-resize_1-target.png,1000.0,3.0095,2.555,0.4544999999999999,depth_discrimination_stimuli/002758_2014-06-22_19-11-20_094959634447_rgbf000128-resize_1/002758_2014-06-22_19-11-20_094959634447_rgbf000128-resize_1-target.png,1.0,1823.0,1001.0,1001.0,1005.0,1001.0,495.0,,1019446,38,Man
338,701929.0,DepthScenes,v2_duration_discrimination,discrim_jsons/Discrim1000_randls_24.json,http://54.173.230.142/FacialAge/BNav_EC2/DepthDuration/v2_depth_discrimination_MTurk/v2_DepthDiscrim_HTML.html#72,72.0,2560.0,1440.0,2560.0,1440.0,0-26-2022,8-51-4,39.0,depth_discrimination_stimuli/002748_2014-06-22_19-07-22_094959634447_rgbf000078-resize_1/002748_2014-06-22_19-07-22_094959634447_rgbf000078-resize_1-target.png,depth_discrimination_stimuli/002995_2014-06-15_12-31-26_094959634447_rgbf000150-resize_1/002995_2014-06-15_12-31-26_094959634447_rgbf000150-resize_1-target.png,1000.0,4.6705,3.8360000000000003,0.8344999999999994,depth_discrimination_stimuli/002995_2014-06-15_12-31-26_094959634447_rgbf000150-resize_1/002995_2014-06-15_12-31-26_094959634447_rgbf000150-resize_1-target.png,1.0,1833.0,1014.0,1001.0,989.0,1005.0,499.0,,1019446,38,Man
339,701929.0,DepthScenes,v2_duration_discrimination,discrim_jsons/Discrim1000_randls_24.json,http://54.173.230.142/FacialAge/BNav_EC2/DepthDuration/v2_depth_discrimination_MTurk/v2_DepthDiscrim_HTML.html#72,72.0,2560.0,1440.0,2560.0,1440.0,0-26-2022,8-51-4,40.0,depth_discrimination_stimuli/002988_2014-06-15_12-24-20_094959634447_rgbf000150-resize_1/002988_2014-06-15_12-24-20_094959634447_rgbf000150-resize_1-target.png,depth_discrimination_stimuli/001052_2014-06-08_18-24-54_260595134347_rgbf000130-resize_1/001052_2014-06-08_18-24-54_260595134347_rgbf000130-resize_1-target.png,1000.0,4.7669999999999995,4.1045,0.6624999999999996,depth_discrimination_stimuli/001052_2014-06-08_18-24-54_260595134347_rgbf000130-resize_1/001052_2014-06-08_18-24-54_260595134347_rgbf000130-resize_1-target.png,1.0,1788.0,1005.0,1004.0,994.0,1002.0,495.0,,1019446,38,Man
340,701929.0,DepthScenes,v2_duration_discrimination,discrim_jsons/Discrim1000_randls_24.json,http://54.173.230.142/FacialAge/BNav_EC2/DepthDuration/v2_depth_discrimination_MTurk/v2_DepthDiscrim_HTML.html#72,72.0,2560.0,1440.0,2560.0,1440.0,0-26-2022,8-51-4,41.0,depth_discrimination_stimuli/001724_2014-06-26_19-28-50_260595134347_rgbf000037-resize_7/001724_2014-06-26_19-28-50_260595134347_rgbf000037-resize_7-target.png,depth_discrimination_stimuli/002987_2014-06-08_18-48-20_094959634447_rgbf000022-resize_0/002987_2014-06-08_18-48-20_094959634447_rgbf000022-resize_0-target.png,1000.0,3.827,2.6775,1.1494999999999997,depth_discrimination_stimuli/002987_2014-06-08_18-48-20_094959634447_rgbf000022-resize_0/002987_2014-06-08_18-48-20_094959634447_rgbf000022-resize_0-target.png,1.0,1780.0,1008.0,1005.0,990.0,1002.0,495.0,,1019446,38,Man
341,701929.0,DepthScenes,v2_duration_discrimination,discrim_jsons/Discrim1000_randls_24.json,http://54.173.230.142/FacialAge/BNav_EC2/DepthDuration/v2_depth_discrimination_MTurk/v2_DepthDiscrim_HTML.html#72,72.0,2560.0,1440.0,2560.0,1440.0,0-26-2022,8-51-4,42.0,depth_discrimination_stimuli/000736_2014-06-08_18-24-15_260595134347_rgbf000206-resize_3/000736_2014-06-08_18-24-15_260595134347_rgbf000206-resize_3-target.png,depth_discrimination_stimuli/000137_2014-05-20_17-04-49_260595134347_rgbf000120-resize_1/000137_2014-05-20_17-04-49_260595134347_rgbf000120-resize_1-target.png,1000.0,3.515,3.786,0.2709999999999999,depth_discrimination_stimuli/000736_2014-06-08_18-24-15_260595134347_rgbf000206-resize_3/000736_2014-06-08_18-24-15_260595134347_rgbf000206-resize_3-target.png,0.0,1893.0,1015.0,987.0,1004.0,1003.0,495.0,,1019446,38,Man
343,701929.0,DepthScenes,v2_duration_discrimination,discrim_jsons/Discrim1000_randls_24.json,http://54.173.230.142/FacialAge/BNav_EC2/DepthDuration/v2_depth_discrimination_MTurk/v2_DepthDiscrim_HTML.html#72,72.0,2560.0,1440.0,2560.0,1440.0,0-26-2022,8-51-4,44.0,depth_discrimination_stimuli/000917_2014-06-09_22-45-29_260595134347_rgbf000149-resize_3/000917_2014-06-09_22-45-29_260595134347_rgbf000149-resize_3-target.png,depth_discrimination_stimuli/002323_2014-06-28_20-01-54_260595134347_rgbf000051-resize_4/002323_2014-06-28_20-01-54_260595134347_rgbf000051-resize_4-target.png,1000.0,4.1865,3.7310000000000003,0.45549999999999935,depth_discrimination_stimuli/002323_2014-06-28_20-01-54_260595134347_rgbf000051-resize_4/002323_2014-06-28_20-01-54_260595134347_rgbf000051-resize_4-target.png,0.0,1927.0,1008.0,1002.0,992.0,998.0,509.0,,1019446,38,Man
344,701929.0,DepthScenes,v2_duration_discrimination,discrim_jsons/Discrim1000_randls_24.json,http://54.173.230.142/FacialAge/BNav_EC2/DepthDuration/v2_depth_discrimination_MTurk/v2_DepthDiscrim_HTML.html#72,72.0,2560.0,1440.0,2560.0,1440.0,0-26-2022,8-51-4,45.0,depth_discrimination_stimuli/002639_2014-06-24_14-51-37_094959634447_rgbf000074-resize_4/002639_2014-06-24_14-51-37_094959634447_rgbf000074-resize_4-target.png,depth_discrimination_stimuli/003292_2014-05-14_21-53-49_094959634447_rgbf000100-resize_2/003292_2014-05-14_21-53-49_094959634447_rgbf000100-resize_2-target.png,1000.0,4.0375,3.4815,0.5559999999999996,depth_discrimination_stimuli/003292_2014-05-14_21-53-49_094959634447_rgbf000100-resize_2/003292_2014-05-14_21-53-49_094959634447_rgbf000100-resize_2-target.png,1.0,1905.0,1016.0,987.0,1010.0,989.0,513.0,,1019446,38,Man
345,701929.0,DepthScenes,v2_duration_discrimination,discrim_jsons/Discrim1000_randls_24.json,http://54.173.230.142/FacialAge/BNav_EC2/DepthDuration/v2_depth_discrimination_MTurk/v2_DepthDiscrim_HTML.html#72,72.0,2560.0,1440.0,2560.0,1440.0,0-26-2022,8-51-4,46.0,depth_discrimination_stimuli/000506_2014-06-08_23-21-00_260595134347_rgbf000070-resize_7/000506_2014-06-08_23-21-00_260595134347_rgbf000070-resize_7-target.png,depth_discrimination_stimuli/003079_2014-06-15_15-18-20_094959634447_rgbf000152-resize_8/003079_2014-06-15_15-18-20_094959634447_rgbf000152-resize_8-target.png,1000.0,4.0585,2.8775,1.1810000000000005,depth_discrimination_stimuli/003079_2014-06-15_15-18-20_094959634447_rgbf000152-resize_8/003079_2014-06-15_15-18-20_094959634447_rgbf000152-resize_8-target.png,0.0,1863.0,1003.0,1003.0,1003.0,993.0,513.0,,1019446,38,Man
346,701929.0,DepthScenes,v2_duration_discrimination,discrim_jsons/Discrim1000_randls_24.json,http://54.173.230.142/FacialAge/BNav_EC2/DepthDuration/v2_depth_discrimination_MTurk/v2_DepthDiscrim_HTML.html#72,72.0,2560.0,1440.0,2560.0,1440.0,0-26-2022,8-51-4,47.0,depth_discrimination_stimuli/002279_2014-06-28_18-55-32_260595134347_rgbf000040-resize_5/002279_2014-06-28_18-55-32_260595134347_rgbf000040-resize_5-target.png,depth_discrimination_stimuli/000635_2014-06-08_16-38-42_260595134347_rgbf000106-resize_1/000635_2014-06-08_16-38-42_260595134347_rgbf000106-resize_1-target.png,1000.0,1.5043333333333,2.074,0.5696666666666999,depth_discrimination_stimuli/002279_2014-06-28_18-55-32_260595134347_rgbf000040-resize_5/002279_2014-06-28_18-55-32_260595134347_rgbf000040-resize_5-target.png,0.0,1822.0,1004.0,1001.0,1002.0,999.0,497.0,,1019446,38,Man
347,701929.0,DepthScenes,v2_duration_discrimination,discrim_jsons/Discrim1000_randls_24.json,http://54.173.230.142/FacialAge/BNav_EC2/DepthDuration/v2_depth_discrimination_MTurk/v2_DepthDiscrim_HTML.html#72,72.0,2560.0,1440.0,2560.0,1440.0,0-26-2022,8-51-4,48.0,depth_discrimination_stimuli/002118_2014-06-25_20-32-08_260595134347_rgbf000078-resize_1/002118_2014-06-25_20-32-08_260595134347_rgbf000078-resize_1-target.png,depth_discrimination_stimuli/001516_2014-06-20_16-25-09_260595134347_rgbf000076-resize_2/001516_2014-06-20_16-25-09_260595134347_rgbf000076-resize_2-target.png,1000.0,2.6460000000000004,1.7445,0.9015000000000004,depth_discrimination_stimuli/001516_2014-06-20_16-25-09_260595134347_rgbf000076-resize_2/001516_2014-06-20_16-25-09_260595134347_rgbf000076-resize_2-target.png,0.0,2353.0,1015.0,998.0,999.0,990.0,510.0,,1019446,38,Man
348,701929.0,DepthScenes,v2_duration_discrimination,discrim_jsons/Discrim1000_randls_24.json,http://54.173.230.142/FacialAge/BNav_EC2/DepthDuration/v2_depth_discrimination_MTurk/v2_DepthDiscrim_HTML.html#72,72.0,2560.0,1440.0,2560.0,1440.0,0-26-2022,8-51-4,49.0,depth_discrimination_stimuli/000810_2014-06-08_17-20-01_260595134347_rgbf000105-resize_0/000810_2014-06-08_17-20-01_260595134347_rgbf000105-resize_0-target.png,depth_discrimination_stimuli/001214_2014-06-17_16-13-55_260595134347_rgbf000111-resize_0/001214_2014-06-17_16-13-55_260595134347_rgbf000111-resize_0-target.png,1000.0,1.4865,2.6505,1.1640000000000001,depth_discrimination_stimuli/000810_2014-06-08_17-20-01_260595134347_rgbf000105-resize_0/000810_2014-06-08_17-20-01_260595134347_rgbf000105-resize_0-target.png,0.0,1970.0,1005.0,1000.0,1009.0,991.0,509.0,,1019446,38,Man
349,701929.0,DepthScenes,v2_duration_discrimination,discrim_jsons/Discrim1000_randls_24.json,http://54.173.230.142/FacialAge/BNav_EC2/DepthDuration/v2_depth_discrimination_MTurk/v2_DepthDiscrim_HTML.html#72,72.0,2560.0,1440.0,2560.0,1440.0,0-26-2022,8-51-4,50.0,depth_discrimination_stimuli/002579_2014-06-24_14-08-03_094959634447_rgbf000061-resize_2/002579_2014-06-24_14-08-03_094959634447_rgbf000061-resize_2-target.png,depth_discrimination_stimuli/002468_2014-06-28_20-38-39_260595134347_rgbf000045-resize_1/002468_2014-06-28_20-38-39_260595134347_rgbf000045-resize_1-target.png,1000.0,2.223125,1.956,0.26712500000000006,depth_discrimination_stimuli/002468_2014-06-28_20-38-39_260595134347_rgbf000045-resize_1/002468_2014-06-28_20-38-39_260595134347_rgbf000045-resize_1-target.png,0.0,1861.0,1011.0,1002.0,988.0,1000.0,499.0,,1019446,38,Man
350,701929.0,DepthScenes,v2_duration_discrimination,discrim_jsons/Discrim1000_randls_24.json,http://54.173.230.142/FacialAge/BNav_EC2/DepthDuration/v2_depth_discrimination_MTurk/v2_DepthDiscrim_HTML.html#72,72.0,2560.0,1440.0,2560.0,1440.0,0-26-2022,8-51-4,51.0,depth_discrimination_stimuli/002445_2014-06-28_20-32-16_260595134347_rgbf000029-resize_4/002445_2014-06-28_20-32-16_260595134347_rgbf000029-resize_4-target.png,depth_discrimination_stimuli/000780_2014-06-08_22-28-29_260595134347_rgbf000126-resize_1/000780_2014-06-08_22-28-29_260595134347_rgbf000126-resize_1-target.png,1000.0,2.5315,3.3825,0.851,depth_discrimination_stimuli/002445_2014-06-28_20-32-16_260595134347_rgbf000029-resize_4/002445_2014-06-28_20-32-16_260595134347_rgbf000029-resize_4-target.png,0.0,1890.0,1000.0,1005.0,1005.0,990.0,509.0,,1019446,38,Man
351,701929.0,DepthScenes,v2_duration_discrimination,discrim_jsons/Discrim1000_randls_24.json,http://54.173.230.142/FacialAge/BNav_EC2/DepthDuration/v2_depth_discrimination_MTurk/v2_DepthDiscrim_HTML.html#72,72.0,2560.0,1440.0,2560.0,1440.0,0-26-2022,8-51-4,52.0,depth_discrimination_stimuli/001092_2014-06-15_17-34-58_260595134347_rgbf000171-resize_3/001092_2014-06-15_17-34-58_260595134347_rgbf000171-resize_3-target.png,depth_discrimination_stimuli/002545_2014-06-24_13-38-53_094959634447_rgbf000080-resize_4/002545_2014-06-24_13-38-53_094959634447_rgbf000080-resize_4-target.png,1000.0,2.6935,1.9205,0.7729999999999997,depth_discrimination_stimuli/002545_2014-06-24_13-38-53_094959634447_rgbf000080-resize_4/002545_2014-06-24_13-38-53_094959634447_rgbf000080-resize_4-target.png,0.0,1869.0,1014.0,989.0,1001.0,1006.0,497.0,,1019446,38,Man
352,701929.0,DepthScenes,v2_duration_discrimination,discrim_jsons/Discrim1000_randls_24.json,http://54.173.230.142/FacialAge/BNav_EC2/DepthDuration/v2_depth_discrimination_MTurk/v2_DepthDiscrim_HTML.html#72,72.0,2560.0,1440.0,2560.0,1440.0,0-26-2022,8-51-4,53.0,depth_discrimination_stimuli/000486_2014-06-09_20-47-20_260595134347_rgbf000143-resize_2/000486_2014-06-09_20-47-20_260595134347_rgbf000143-resize_2-target.png,depth_discrimination_stimuli/003083_2014-06-15_15-21-03_094959634447_rgbf000063-resize_1/003083_2014-06-15_15-21-03_094959634447_rgbf000063-resize_1-target.png,1000.0,4.8325,4.1405,0.6919999999999993,depth_discrimination_stimuli/003083_2014-06-15_15-21-03_094959634447_rgbf000063-resize_1/003083_2014-06-15_15-21-03_094959634447_rgbf000063-resize_1-target.png,0.0,1865.0,1010.0,999.0,1006.0,991.0,495.0,,1019446,38,Man
353,701929.0,DepthScenes,v2_duration_discrimination,discrim_jsons/Discrim1000_randls_24.json,http://54.173.230.142/FacialAge/BNav_EC2/DepthDuration/v2_depth_discrimination_MTurk/v2_DepthDiscrim_HTML.html#72,72.0,2560.0,1440.0,2560.0,1440.0,0-26-2022,8-51-4,54.0,depth_discrimination_stimuli/002305_2014-06-28_19-56-50_260595134347_rgbf000102-resize_7/002305_2014-06-28_19-56-50_260595134347_rgbf000102-resize_7-target.png,depth_discrimination_stimuli/000735_2014-06-08_18-23-50_260595134347_rgbf000163-resize_2/000735_2014-06-08_18-23-50_260595134347_rgbf000163-resize_2-target.png,1000.0,4.8725,4.1695,0.7029999999999994,depth_discrimination_stimuli/000735_2014-06-08_18-23-50_260595134347_rgbf000163-resize_2/000735_2014-06-08_18-23-50_260595134347_rgbf000163-resize_2-target.png,0.0,1924.0,1026.0,990.0,988.0,1002.0,507.0,,1019446,38,Man
354,701929.0,DepthScenes,v2_duration_discrimination,discrim_jsons/Discrim1000_randls_24.json,http://54.173.230.142/FacialAge/BNav_EC2/DepthDuration/v2_depth_discrimination_MTurk/v2_DepthDiscrim_HTML.html#72,72.0,2560.0,1440.0,2560.0,1440.0,0-26-2022,8-51-4,55.0,depth_discrimination_stimuli/000470_2014-06-09_19-42-40_260595134347_rgbf000094-resize_1/000470_2014-06-09_19-42-40_260595134347_rgbf000094-resize_1-target.png,depth_discrimination_stimuli/000109_2014-05-14_23-41-52_260595134347_rgbf000035-resize_9/000109_2014-05-14_23-41-52_260595134347_rgbf000035-resize_9-target.png,1000.0,1.831,1.3545,0.4764999999999999,depth_discrimination_stimuli/000109_2014-05-14_23-41-52_260595134347_rgbf000035-resize_9/000109_2014-05-14_23-41-52_260595134347_rgbf000035-resize_9-target.png,1.0,1898.0,1002.0,1006.0,1002.0,1003.0,495.0,,1019446,38,Man
355,701929.0,DepthScenes,v2_duration_discrimination,discrim_jsons/Discrim1000_randls_24.json,http://54.173.230.142/FacialAge/BNav_EC2/DepthDuration/v2_depth_discrimination_MTurk/v2_DepthDiscrim_HTML.html#72,72.0,2560.0,1440.0,2560.0,1440.0,0-26-2022,8-51-4,56.0,depth_discrimination_stimuli/001055_2014-06-08_18-45-35_260595134347_rgbf000111-resize_4/001055_2014-06-08_18-45-35_260595134347_rgbf000111-resize_4-target.png,depth_discrimination_stimuli/000549_2014-06-08_22-10-24_260595134347_rgbf000247-resize_3/000549_2014-06-08_22-10-24_260595134347_rgbf000247-resize_3-target.png,1000.0,2.4290000000000003,1.841,0.5880000000000003,depth_discrimination_stimuli/000549_2014-06-08_22-10-24_260595134347_rgbf000247-resize_3/000549_2014-06-08_22-10-24_260595134347_rgbf000247-resize_3-target.png,1.0,1840.0,1013.0,989.0,1005.0,1003.0,493.0,,1019446,38,Man
357,701929.0,DepthScenes,v2_duration_discrimination,discrim_jsons/Discrim1000_randls_24.json,http://54.173.230.142/FacialAge/BNav_EC2/DepthDuration/v2_depth_discrimination_MTurk/v2_DepthDiscrim_HTML.html#72,72.0,2560.0,1440.0,2560.0,1440.0,0-26-2022,8-51-4,58.0,depth_discrimination_stimuli/002663_2014-06-13_15-50-26_094959634447_rgbf000075-resize_1/002663_2014-06-13_15-50-26_094959634447_rgbf000075-resize_1-target.png,depth_discrimination_stimuli/000409_2014-06-04_19-23-33_260595134347_rgbf000067-resize_0/000409_2014-06-04_19-23-33_260595134347_rgbf000067-resize_0-target.png,1000.0,4.7495,3.7335,1.0160000000000005,depth_discrimination_stimuli/000409_2014-06-04_19-23-33_260595134347_rgbf000067-resize_0/000409_2014-06-04_19-23-33_260595134347_rgbf000067-resize_0-target.png,1.0,1861.0,1015.0,986.0,1010.0,1002.0,494.0,,1019446,38,Man
358,701929.0,DepthScenes,v2_duration_discrimination,discrim_jsons/Discrim1000_randls_24.json,http://54.173.230.142/FacialAge/BNav_EC2/DepthDuration/v2_depth_discrimination_MTurk/v2_DepthDiscrim_HTML.html#72,72.0,2560.0,1440.0,2560.0,1440.0,0-26-2022,8-51-4,59.0,depth_discrimination_stimuli/003534_2014-05-22_15-06-10_094959634447_rgbf000102-resize_4/003534_2014-05-22_15-06-10_094959634447_rgbf000102-resize_4-target.png,depth_discrimination_stimuli/002637_2014-06-24_14-51-13_094959634447_rgbf000066-resize_4/002637_2014-06-24_14-51-13_094959634447_rgbf000066-resize_4-target.png,1000.0,1.426,1.9955,0.5695000000000001,depth_discrimination_stimuli/003534_2014-05-22_15-06-10_094959634447_rgbf000102-resize_4/003534_2014-05-22_15-06-10_094959634447_rgbf000102-resize_4-target.png,0.0,1897.0,1001.0,1002.0,1011.0,987.0,513.0,,1019446,38,Man
359,701929.0,DepthScenes,v2_duration_discrimination,discrim_jsons/Discrim1000_randls_24.json,http://54.173.230.142/FacialAge/BNav_EC2/DepthDuration/v2_depth_discrimination_MTurk/v2_DepthDiscrim_HTML.html#72,72.0,2560.0,1440.0,2560.0,1440.0,0-26-2022,8-51-4,60.0,depth_discrimination_stimuli/000682_2014-06-08_23-14-58_260595134347_rgbf000041-resize_5/000682_2014-06-08_23-14-58_260595134347_rgbf000041-resize_5-target.png,depth_discrimination_stimuli/001650_2014-06-20_12-09-00_260595134347_rgbf000087-resize_3/001650_2014-06-20_12-09-00_260595134347_rgbf000087-resize_3-target.png,1000.0,2.7239999999999998,1.9505,0.7734999999999999,depth_discrimination_stimuli/001650_2014-06-20_12-09-00_260595134347_rgbf000087-resize_3/001650_2014-06-20_12-09-00_260595134347_rgbf000087-resize_3-target.png,1.0,2014.0,1013.0,989.0,1006.0,1005.0,495.0,,1019446,38,Man
360,701929.0,DepthScenes,v2_duration_discrimination,discrim_jsons/Discrim1000_randls_24.json,http://54.173.230.142/FacialAge/BNav_EC2/DepthDuration/v2_depth_discrimination_MTurk/v2_DepthDiscrim_HTML.html#72,72.0,2560.0,1440.0,2560.0,1440.0,0-26-2022,8-51-4,61.0,depth_discrimination_stimuli/000469_2014-06-09_19-42-10_260595134347_rgbf000081-resize_1/000469_2014-06-09_19-42-10_260595134347_rgbf000081-resize_1-target.png,depth_discrimination_stimuli/000483_2014-06-09_20-41-45_260595134347_rgbf000116-resize_4/000483_2014-06-09_20-41-45_260595134347_rgbf000116-resize_4-target.png,1000.0,1.652,1.337,0.31499999999999995,depth_discrimination_stimuli/000483_2014-06-09_20-41-45_260595134347_rgbf000116-resize_4/000483_2014-06-09_20-41-45_260595134347_rgbf000116-resize_4-target.png,1.0,1920.0,1006.0,1002.0,1001.0,1002.0,497.0,,1019446,38,Man
361,701929.0,DepthScenes,v2_duration_discrimination,discrim_jsons/Discrim1000_randls_24.json,http://54.173.230.142/FacialAge/BNav_EC2/DepthDuration/v2_depth_discrimination_MTurk/v2_DepthDiscrim_HTML.html#72,72.0,2560.0,1440.0,2560.0,1440.0,0-26-2022,8-51-4,62.0,depth_discrimination_stimuli/000878_2014-06-08_22-52-45_260595134347_rgbf000045-resize_2/000878_2014-06-08_22-52-45_260595134347_rgbf000045-resize_2-target.png,depth_discrimination_stimuli/002953_2014-06-08_17-32-18_094959634447_rgbf000059-resize_5/002953_2014-06-08_17-32-18_094959634447_rgbf000059-resize_5-target.png,1000.0,2.092,1.551,0.5410000000000001,depth_discrimination_stimuli/002953_2014-06-08_17-32-18_094959634447_rgbf000059-resize_5/002953_2014-06-08_17-32-18_094959634447_rgbf000059-resize_5-target.png,1.0,1940.0,1005.0,999.0,1004.0,1000.0,493.0,,1019446,38,Man
362,701929.0,DepthScenes,v2_duration_discrimination,discrim_jsons/Discrim1000_randls_24.json,http://54.173.230.142/FacialAge/BNav_EC2/DepthDuration/v2_depth_discrimination_MTurk/v2_DepthDiscrim_HTML.html#72,72.0,2560.0,1440.0,2560.0,1440.0,0-26-2022,8-51-4,63.0,depth_discrimination_stimuli/001167_2014-06-17_15-38-07_260595134347_rgbf000108-resize_0/001167_2014-06-17_15-38-07_260595134347_rgbf000108-resize_0-target.png,depth_discrimination_stimuli/003587_2014-05-23_16-48-02_094959634447_rgbf002384-resize_2/003587_2014-05-23_16-48-02_094959634447_rgbf002384-resize_2-target.png,1000.0,1.8505,1.357,0.49350000000000005,depth_discrimination_stimuli/003587_2014-05-23_16-48-02_094959634447_rgbf002384-resize_2/003587_2014-05-23_16-48-02_094959634447_rgbf002384-resize_2-target.png,1.0,1891.0,1016.0,990.0,1007.0,1002.0,496.0,,1019446,38,Man
363,701929.0,DepthScenes,v2_duration_discrimination,discrim_jsons/Discrim1000_randls_24.json,http://54.173.230.142/FacialAge/BNav_EC2/DepthDuration/v2_depth_discrimination_MTurk/v2_DepthDiscrim_HTML.html#72,72.0,2560.0,1440.0,2560.0,1440.0,0-26-2022,8-51-4,64.0,depth_discrimination_stimuli/000720_2014-06-08_18-37-27_260595134347_rgbf000203-resize_4/000720_2014-06-08_18-37-27_260595134347_rgbf000203-resize_4-target.png,depth_discrimination_stimuli/000555_2014-06-09_22-42-23_260595134347_rgbf000037-resize_4/000555_2014-06-09_22-42-23_260595134347_rgbf000037-resize_4-target.png,1000.0,1.558,1.9765,0.41849999999999987,depth_discrimination_stimuli/000720_2014-06-08_18-37-27_260595134347_rgbf000203-resize_4/000720_2014-06-08_18-37-27_260595134347_rgbf000203-resize_4-target.png,0.0,1942.0,1012.0,992.0,995.0,1007.0,507.0,,1019446,38,Man
364,701929.0,DepthScenes,v2_duration_discrimination,discrim_jsons/Discrim1000_randls_24.json,http://54.173.230.142/FacialAge/BNav_EC2/DepthDuration/v2_depth_discrimination_MTurk/v2_DepthDiscrim_HTML.html#72,72.0,2560.0,1440.0,2560.0,1440.0,0-26-2022,8-51-4,65.0,depth_discrimination_stimuli/003228_2014-05-14_13-42-35_094959634447_rgbf000101-resize_1/003228_2014-05-14_13-42-35_094959634447_rgbf000101-resize_1-target.png,depth_discrimination_stimuli/002600_2014-06-24_14-27-04_094959634447_rgbf000074-resize_2/002600_2014-06-24_14-27-04_094959634447_rgbf000074-resize_2-target.png,1000.0,1.9680000000000002,2.7575,0.7894999999999996,depth_discrimination_stimuli/003228_2014-05-14_13-42-35_094959634447_rgbf000101-resize_1/003228_2014-05-14_13-42-35_094959634447_rgbf000101-resize_1-target.png,0.0,1853.0,1009.0,1002.0,1004.0,991.0,497.0,,1019446,38,Man
365,701929.0,DepthScenes,v2_duration_discrimination,discrim_jsons/Discrim1000_randls_24.json,http://54.173.230.142/FacialAge/BNav_EC2/DepthDuration/v2_depth_discrimination_MTurk/v2_DepthDiscrim_HTML.html#72,72.0,2560.0,1440.0,2560.0,1440.0,0-26-2022,8-51-4,66.0,depth_discrimination_stimuli/001059_2014-06-08_21-53-27_260595134347_rgbf000061-resize_4/001059_2014-06-08_21-53-27_260595134347_rgbf000061-resize_4-target.png,depth_discrimination_stimuli/001032_2014-06-08_13-23-17_260595134347_rgbf000021-resize_3/001032_2014-06-08_13-23-17_260595134347_rgbf000021-resize_3-target.png,1000.0,2.4185,3.2725,0.8540000000000001,depth_discrimination_stimuli/001059_2014-06-08_21-53-27_260595134347_rgbf000061-resize_4/001059_2014-06-08_21-53-27_260595134347_rgbf000061-resize_4-target.png,1.0,1818.0,1009.0,1006.0,989.0,1004.0,491.0,,1019446,38,Man
367,701929.0,DepthScenes,v2_duration_discrimination,discrim_jsons/Discrim1000_randls_24.json,http://54.173.230.142/FacialAge/BNav_EC2/DepthDuration/v2_depth_discrimination_MTurk/v2_DepthDiscrim_HTML.html#72,72.0,2560.0,1440.0,2560.0,1440.0,0-26-2022,8-51-4,68.0,depth_discrimination_stimuli/000758_2014-06-08_22-05-08_260595134347_rgbf000085-resize_0/000758_2014-06-08_22-05-08_260595134347_rgbf000085-resize_0-target.png,depth_discrimination_stimuli/000854_2014-06-09_19-43-13_260595134347_rgbf000066-resize_0/000854_2014-06-09_19-43-13_260595134347_rgbf000066-resize_0-target.png,1000.0,3.3810000000000002,3.068,0.31300000000000017,depth_discrimination_stimuli/000854_2014-06-09_19-43-13_260595134347_rgbf000066-resize_0/000854_2014-06-09_19-43-13_260595134347_rgbf000066-resize_0-target.png,1.0,1940.0,1004.0,1004.0,1003.0,1001.0,494.0,,1019446,38,Man
368,701929.0,DepthScenes,v2_duration_discrimination,discrim_jsons/Discrim1000_randls_24.json,http://54.173.230.142/FacialAge/BNav_EC2/DepthDuration/v2_depth_discrimination_MTurk/v2_DepthDiscrim_HTML.html#72,72.0,2560.0,1440.0,2560.0,1440.0,0-26-2022,8-51-4,69.0,depth_discrimination_stimuli/001808_2014-06-26_20-50-58_260595134347_rgbf000029-resize_1/001808_2014-06-26_20-50-58_260595134347_rgbf000029-resize_1-target.png,depth_discrimination_stimuli/001815_2014-06-26_20-52-55_260595134347_rgbf000020-resize_0/001815_2014-06-26_20-52-55_260595134347_rgbf000020-resize_0-target.png,1000.0,4.249,3.3865,0.8624999999999998,depth_discrimination_stimuli/001815_2014-06-26_20-52-55_260595134347_rgbf000020-resize_0/001815_2014-06-26_20-52-55_260595134347_rgbf000020-resize_0-target.png,0.0,2072.0,1011.0,991.0,1006.0,1002.0,493.0,,1019446,38,Man
369,701929.0,DepthScenes,v2_duration_discrimination,discrim_jsons/Discrim1000_randls_24.json,http://54.173.230.142/FacialAge/BNav_EC2/DepthDuration/v2_depth_discrimination_MTurk/v2_DepthDiscrim_HTML.html#72,72.0,2560.0,1440.0,2560.0,1440.0,0-26-2022,8-51-4,70.0,depth_discrimination_stimuli/000368_2014-06-09_15-53-01_260595134347_rgbf000155-resize_2/000368_2014-06-09_15-53-01_260595134347_rgbf000155-resize_2-target.png,depth_discrimination_stimuli/002678_2014-06-13_16-15-32_094959634447_rgbf000151-resize_6/002678_2014-06-13_16-15-32_094959634447_rgbf000151-resize_6-target.png,1000.0,2.4859999999999998,2.1830000000000003,0.3029999999999995,depth_discrimination_stimuli/002678_2014-06-13_16-15-32_094959634447_rgbf000151-resize_6/002678_2014-06-13_16-15-32_094959634447_rgbf000151-resize_6-target.png,0.0,1887.0,1009.0,993.0,1006.0,1004.0,496.0,,1019446,38,Man
370,701929.0,DepthScenes,v2_duration_discrimination,discrim_jsons/Discrim1000_randls_24.json,http://54.173.230.142/FacialAge/BNav_EC2/DepthDuration/v2_depth_discrimination_MTurk/v2_DepthDiscrim_HTML.html#72,72.0,2560.0,1440.0,2560.0,1440.0,0-26-2022,8-51-4,71.0,depth_discrimination_stimuli/002549_2014-06-24_13-41-39_094959634447_rgbf000022-resize_3/002549_2014-06-24_13-41-39_094959634447_rgbf000022-resize_3-target.png,depth_discrimination_stimuli/002750_2014-06-22_19-08-03_094959634447_rgbf000094-resize_4/002750_2014-06-22_19-08-03_094959634447_rgbf000094-resize_4-target.png,1000.0,1.476,2.354,0.8780000000000001,depth_discrimination_stimuli/002549_2014-06-24_13-41-39_094959634447_rgbf000022-resize_3/002549_2014-06-24_13-41-39_094959634447_rgbf000022-resize_3-target.png,0.0,1941.0,1017.0,984.0,1007.0,1001.0,494.0,,1019446,38,Man
371,701929.0,DepthScenes,v2_duration_discrimination,discrim_jsons/Discrim1000_randls_24.json,http://54.173.230.142/FacialAge/BNav_EC2/DepthDuration/v2_depth_discrimination_MTurk/v2_DepthDiscrim_HTML.html#72,72.0,2560.0,1440.0,2560.0,1440.0,0-26-2022,8-51-4,72.0,depth_discrimination_stimuli/001029_2014-06-08_13-17-57_260595134347_rgbf000065-resize_1/001029_2014-06-08_13-17-57_260595134347_rgbf000065-resize_1-target.png,depth_discrimination_stimuli/000677_2014-06-08_23-10-32_260595134347_rgbf000158-resize_6/000677_2014-06-08_23-10-32_260595134347_rgbf000158-resize_6-target.png,1000.0,3.0835,3.556,0.47250000000000014,depth_discrimination_stimuli/001029_2014-06-08_13-17-57_260595134347_rgbf000065-resize_1/001029_2014-06-08_13-17-57_260595134347_rgbf000065-resize_1-target.png,1.0,1892.0,1005.0,1001.0,1006.0,988.0,510.0,,1019446,38,Man
372,701929.0,DepthScenes,v2_duration_discrimination,discrim_jsons/Discrim1000_randls_24.json,http://54.173.230.142/FacialAge/BNav_EC2/DepthDuration/v2_depth_discrimination_MTurk/v2_DepthDiscrim_HTML.html#72,72.0,2560.0,1440.0,2560.0,1440.0,0-26-2022,8-51-4,73.0,depth_discrimination_stimuli/001417_2014-06-19_16-25-36_260595134347_rgbf000115-resize_5/001417_2014-06-19_16-25-36_260595134347_rgbf000115-resize_5-target.png,depth_discrimination_stimuli/003081_2014-06-15_15-19-16_094959634447_rgbf000150-resize_1/003081_2014-06-15_15-19-16_094959634447_rgbf000150-resize_1-target.png,1000.0,4.6255,3.9125,0.7129999999999996,depth_discrimination_stimuli/003081_2014-06-15_15-19-16_094959634447_rgbf000150-resize_1/003081_2014-06-15_15-19-16_094959634447_rgbf000150-resize_1-target.png,0.0,1880.0,1009.0,1005.0,986.0,1014.0,494.0,,1019446,38,Man
373,701929.0,DepthScenes,v2_duration_discrimination,discrim_jsons/Discrim1000_randls_24.json,http://54.173.230.142/FacialAge/BNav_EC2/DepthDuration/v2_depth_discrimination_MTurk/v2_DepthDiscrim_HTML.html#72,72.0,2560.0,1440.0,2560.0,1440.0,0-26-2022,8-51-4,74.0,depth_discrimination_stimuli/002043_2014-06-24_20-29-38_260595134347_rgbf000039-resize_4/002043_2014-06-24_20-29-38_260595134347_rgbf000039-resize_4-target.png,depth_discrimination_stimuli/003048_2014-06-15_13-49-43_094959634447_rgbf000150-resize_1/003048_2014-06-15_13-49-43_094959634447_rgbf000150-resize_1-target.png,1000.0,2.8435,4.0035,1.1599999999999997,depth_discrimination_stimuli/002043_2014-06-24_20-29-38_260595134347_rgbf000039-resize_4/002043_2014-06-24_20-29-38_260595134347_rgbf000039-resize_4-target.png,0.0,1854.0,1003.0,1006.0,1004.0,987.0,513.0,,1019446,38,Man
374,701929.0,DepthScenes,v2_duration_discrimination,discrim_jsons/Discrim1000_randls_24.json,http://54.173.230.142/FacialAge/BNav_EC2/DepthDuration/v2_depth_discrimination_MTurk/v2_DepthDiscrim_HTML.html#72,72.0,2560.0,1440.0,2560.0,1440.0,0-26-2022,8-51-4,75.0,depth_discrimination_stimuli/002570_2014-06-24_13-59-54_094959634447_rgbf000059-resize_0/002570_2014-06-24_13-59-54_094959634447_rgbf000059-resize_0-target.png,depth_discrimination_stimuli/002467_2014-06-28_20-38-07_260595134347_rgbf000026-resize_2/002467_2014-06-28_20-38-07_260595134347_rgbf000026-resize_2-target.png,1000.0,4.037,4.742,0.7050000000000001,depth_discrimination_stimuli/002570_2014-06-24_13-59-54_094959634447_rgbf000059-resize_0/002570_2014-06-24_13-59-54_094959634447_rgbf000059-resize_0-target.png,0.0,1871.0,1016.0,987.0,1001.0,1005.0,496.0,,1019446,38,Man
375,701929.0,DepthScenes,v2_duration_discrimination,discrim_jsons/Discrim1000_randls_24.json,http://54.173.230.142/FacialAge/BNav_EC2/DepthDuration/v2_depth_discrimination_MTurk/v2_DepthDiscrim_HTML.html#72,72.0,2560.0,1440.0,2560.0,1440.0,0-26-2022,8-51-4,76.0,depth_discrimination_stimuli/002460_2014-06-28_20-35-43_260595134347_rgbf000028-resize_4/002460_2014-06-28_20-35-43_260595134347_rgbf000028-resize_4-target.png,depth_discrimination_stimuli/002790_2014-06-22_19-36-35_094959634447_rgbf000074-resize_4/002790_2014-06-22_19-36-35_094959634447_rgbf000074-resize_4-target.png,1000.0,2.269,3.512,1.2429999999999999,depth_discrimination_stimuli/002460_2014-06-28_20-35-43_260595134347_rgbf000028-resize_4/002460_2014-06-28_20-35-43_260595134347_rgbf000028-resize_4-target.png,0.0,1831.0,1008.0,1002.0,1007.0,1000.0,492.0,,1019446,38,Man
376,701929.0,DepthScenes,v2_duration_discrimination,discrim_jsons/Discrim1000_randls_24.json,http://54.173.230.142/FacialAge/BNav_EC2/DepthDuration/v2_depth_discrimination_MTurk/v2_DepthDiscrim_HTML.html#72,72.0,2560.0,1440.0,2560.0,1440.0,0-26-2022,8-51-4,77.0,depth_discrimination_stimuli/001806_2014-06-26_20-50-20_260595134347_rgbf000091-resize_1/001806_2014-06-26_20-50-20_260595134347_rgbf000091-resize_1-target.png,depth_discrimination_stimuli/001617_2014-06-20_11-35-32_260595134347_rgbf000066-resize_1/001617_2014-06-20_11-35-32_260595134347_rgbf000066-resize_1-target.png,1000.0,2.7305,3.7910000000000004,1.0605000000000002,depth_discrimination_stimuli/001806_2014-06-26_20-50-20_260595134347_rgbf000091-resize_1/001806_2014-06-26_20-50-20_260595134347_rgbf000091-resize_1-target.png,0.0,1870.0,1005.0,998.0,1006.0,1002.0,491.0,,1019446,38,Man
377,701929.0,DepthScenes,v2_duration_discrimination,discrim_jsons/Discrim1000_randls_24.json,http://54.173.230.142/FacialAge/BNav_EC2/DepthDuration/v2_depth_discrimination_MTurk/v2_DepthDiscrim_HTML.html#72,72.0,2560.0,1440.0,2560.0,1440.0,0-26-2022,8-51-4,78.0,depth_discrimination_stimuli/000493_2014-06-09_21-01-18_260595134347_rgbf000196-resize_3/000493_2014-06-09_21-01-18_260595134347_rgbf000196-resize_3-target.png,depth_discrimination_stimuli/000191_2014-05-12_17-07-38_260595134347_rgbf000199-resize_0/000191_2014-05-12_17-07-38_260595134347_rgbf000199-resize_0-target.png,1000.0,3.44,3.7995,0.35950000000000015,depth_discrimination_stimuli/000493_2014-06-09_21-01-18_260595134347_rgbf000196-resize_3/000493_2014-06-09_21-01-18_260595134347_rgbf000196-resize_3-target.png,0.0,1890.0,1014.0,988.0,1005.0,1000.0,506.0,,1019446,38,Man
378,701929.0,DepthScenes,v2_duration_discrimination,discrim_jsons/Discrim1000_randls_24.json,http://54.173.230.142/FacialAge/BNav_EC2/DepthDuration/v2_depth_discrimination_MTurk/v2_DepthDiscrim_HTML.html#72,72.0,2560.0,1440.0,2560.0,1440.0,0-26-2022,8-51-4,79.0,depth_discrimination_stimuli/002375_2014-06-28_20-13-44_260595134347_rgbf000032-resize_1/002375_2014-06-28_20-13-44_260595134347_rgbf000032-resize_1-target.png,depth_discrimination_stimuli/002657_2014-06-13_15-29-54_094959634447_rgbf000150-resize_1/002657_2014-06-13_15-29-54_094959634447_rgbf000150-resize_1-target.png,1000.0,4.0175,4.919,0.9014999999999995,depth_discrimination_stimuli/002375_2014-06-28_20-13-44_260595134347_rgbf000032-resize_1/002375_2014-06-28_20-13-44_260595134347_rgbf000032-resize_1-target.png,0.0,1953.0,1003.0,1003.0,1002.0,1004.0,493.0,,1019446,38,Man
379,701929.0,DepthScenes,v2_duration_discrimination,discrim_jsons/Discrim1000_randls_24.json,http://54.173.230.142/FacialAge/BNav_EC2/DepthDuration/v2_depth_discrimination_MTurk/v2_DepthDiscrim_HTML.html#72,72.0,2560.0,1440.0,2560.0,1440.0,0-26-2022,8-51-4,80.0,depth_discrimination_stimuli/000692_2014-06-08_13-09-42_260595134347_rgbf000199-resize_2/000692_2014-06-08_13-09-42_260595134347_rgbf000199-resize_2-target.png,depth_discrimination_stimuli/001094_2014-06-15_17-36-00_260595134347_rgbf000205-resize_0/001094_2014-06-15_17-36-00_260595134347_rgbf000205-resize_0-target.png,1000.0,3.661,4.2175,0.5565000000000002,depth_discrimination_stimuli/000692_2014-06-08_13-09-42_260595134347_rgbf000199-resize_2/000692_2014-06-08_13-09-42_260595134347_rgbf000199-resize_2-target.png,0.0,1843.0,1005.0,1002.0,1001.0,1000.0,497.0,,1019446,38,Man
380,701929.0,DepthScenes,v2_duration_discrimination,discrim_jsons/Discrim1000_randls_24.json,http://54.173.230.142/FacialAge/BNav_EC2/DepthDuration/v2_depth_discrimination_MTurk/v2_DepthDiscrim_HTML.html#72,72.0,2560.0,1440.0,2560.0,1440.0,0-26-2022,8-51-4,81.0,depth_discrimination_stimuli/001133_2014-06-17_14-49-16_260595134347_rgbf000100-resize_0/001133_2014-06-17_14-49-16_260595134347_rgbf000100-resize_0-target.png,depth_discrimination_stimuli/001132_2014-06-17_14-48-54_260595134347_rgbf000100-resize_2/001132_2014-06-17_14-48-54_260595134347_rgbf000100-resize_2-target.png,1000.0,4.2115,3.753,0.4584999999999999,depth_discrimination_stimuli/001132_2014-06-17_14-48-54_260595134347_rgbf000100-resize_2/001132_2014-06-17_14-48-54_260595134347_rgbf000100-resize_2-target.png,0.0,1881.0,1014.0,989.0,1004.0,1006.0,496.0,,1019446,38,Man
381,701929.0,DepthScenes,v2_duration_discrimination,discrim_jsons/Discrim1000_randls_24.json,http://54.173.230.142/FacialAge/BNav_EC2/DepthDuration/v2_depth_discrimination_MTurk/v2_DepthDiscrim_HTML.html#72,72.0,2560.0,1440.0,2560.0,1440.0,0-26-2022,8-51-4,82.0,depth_discrimination_stimuli/000788_2014-06-08_22-34-36_260595134347_rgbf000131-resize_1/000788_2014-06-08_22-34-36_260595134347_rgbf000131-resize_1-target.png,depth_discrimination_stimuli/001235_2014-06-17_16-37-36_260595134347_rgbf000084-resize_4/001235_2014-06-17_16-37-36_260595134347_rgbf000084-resize_4-target.png,1000.0,3.359,3.6605,0.3014999999999999,depth_discrimination_stimuli/000788_2014-06-08_22-34-36_260595134347_rgbf000131-resize_1/000788_2014-06-08_22-34-36_260595134347_rgbf000131-resize_1-target.png,0.0,1860.0,1007.0,1005.0,990.0,1004.0,494.0,,1019446,38,Man
382,701929.0,DepthScenes,v2_duration_discrimination,discrim_jsons/Discrim1000_randls_24.json,http://54.173.230.142/FacialAge/BNav_EC2/DepthDuration/v2_depth_discrimination_MTurk/v2_DepthDiscrim_HTML.html#72,72.0,2560.0,1440.0,2560.0,1440.0,0-26-2022,8-51-4,83.0,depth_discrimination_stimuli/001199_2014-06-17_16-03-48_260595134347_rgbf000077-resize_0/001199_2014-06-17_16-03-48_260595134347_rgbf000077-resize_0-target.png,depth_discrimination_stimuli/000502_2014-06-08_23-02-32_260595134347_rgbf000063-resize_4/000502_2014-06-08_23-02-32_260595134347_rgbf000063-resize_4-target.png,1000.0,3.4375,2.431,1.0065,depth_discrimination_stimuli/000502_2014-06-08_23-02-32_260595134347_rgbf000063-resize_4/000502_2014-06-08_23-02-32_260595134347_rgbf000063-resize_4-target.png,1.0,1904.0,1006.0,1001.0,1008.0,989.0,510.0,,1019446,38,Man
384,701929.0,DepthScenes,v2_duration_discrimination,discrim_jsons/Discrim1000_randls_24.json,http://54.173.230.142/FacialAge/BNav_EC2/DepthDuration/v2_depth_discrimination_MTurk/v2_DepthDiscrim_HTML.html#72,72.0,2560.0,1440.0,2560.0,1440.0,0-26-2022,8-51-4,85.0,depth_discrimination_stimuli/003495_2014-05-21_16-01-51_094959634447_rgbf000100-resize_3/003495_2014-05-21_16-01-51_094959634447_rgbf000100-resize_3-target.png,depth_discrimination_stimuli/001244_2014-06-17_16-47-45_260595134347_rgbf000030-resize_4/001244_2014-06-17_16-47-45_260595134347_rgbf000030-resize_4-target.png,1000.0,1.6255,2.0425,0.41700000000000004,depth_discrimination_stimuli/003495_2014-05-21_16-01-51_094959634447_rgbf000100-resize_3/003495_2014-05-21_16-01-51_094959634447_rgbf000100-resize_3-target.png,0.0,1952.0,1017.0,991.0,1005.0,990.0,497.0,,1019446,38,Man
385,701929.0,DepthScenes,v2_duration_discrimination,discrim_jsons/Discrim1000_randls_24.json,http://54.173.230.142/FacialAge/BNav_EC2/DepthDuration/v2_depth_discrimination_MTurk/v2_DepthDiscrim_HTML.html#72,72.0,2560.0,1440.0,2560.0,1440.0,0-26-2022,8-51-4,86.0,depth_discrimination_stimuli/000773_2014-06-08_22-24-54_260595134347_rgbf000093-resize_1/000773_2014-06-08_22-24-54_260595134347_rgbf000093-resize_1-target.png,depth_discrimination_stimuli/002414_2014-06-28_20-24-58_260595134347_rgbf000067-resize_4/002414_2014-06-28_20-24-58_260595134347_rgbf000067-resize_4-target.png,1000.0,4.973,4.363,0.6099999999999994,depth_discrimination_stimuli/002414_2014-06-28_20-24-58_260595134347_rgbf000067-resize_4/002414_2014-06-28_20-24-58_260595134347_rgbf000067-resize_4-target.png,0.0,1943.0,1002.0,1006.0,1002.0,1002.0,493.0,,1019446,38,Man
387,701929.0,DepthScenes,v2_duration_discrimination,discrim_jsons/Discrim1000_randls_24.json,http://54.173.230.142/FacialAge/BNav_EC2/DepthDuration/v2_depth_discrimination_MTurk/v2_DepthDiscrim_HTML.html#72,72.0,2560.0,1440.0,2560.0,1440.0,0-26-2022,8-51-4,88.0,depth_discrimination_stimuli/002509_2014-06-24_13-19-22_094959634447_rgbf000077-resize_0/002509_2014-06-24_13-19-22_094959634447_rgbf000077-resize_0-target.png,depth_discrimination_stimuli/003338_2014-05-20_11-01-23_094959634447_rgbf000051-resize_6/003338_2014-05-20_11-01-23_094959634447_rgbf000051-resize_6-target.png,1000.0,1.3065,1.693,0.38650000000000007,depth_discrimination_stimuli/002509_2014-06-24_13-19-22_094959634447_rgbf000077-resize_0/002509_2014-06-24_13-19-22_094959634447_rgbf000077-resize_0-target.png,0.0,1879.0,1011.0,1001.0,990.0,1006.0,494.0,,1019446,38,Man
388,701929.0,DepthScenes,v2_duration_discrimination,discrim_jsons/Discrim1000_randls_24.json,http://54.173.230.142/FacialAge/BNav_EC2/DepthDuration/v2_depth_discrimination_MTurk/v2_DepthDiscrim_HTML.html#72,72.0,2560.0,1440.0,2560.0,1440.0,0-26-2022,8-51-4,89.0,depth_discrimination_stimuli/001264_2014-06-16_16-10-23_260595134347_rgbf000109-resize_1/001264_2014-06-16_16-10-23_260595134347_rgbf000109-resize_1-target.png,depth_discrimination_stimuli/002139_2014-06-25_21-19-37_260595134347_rgbf000124-resize_2/002139_2014-06-25_21-19-37_260595134347_rgbf000124-resize_2-target.png,1000.0,2.9665,2.1069999999999998,0.8595000000000002,depth_discrimination_stimuli/002139_2014-06-25_21-19-37_260595134347_rgbf000124-resize_2/002139_2014-06-25_21-19-37_260595134347_rgbf000124-resize_2-target.png,0.0,1881.0,1006.0,1001.0,1005.0,991.0,507.0,,1019446,38,Man
389,701929.0,DepthScenes,v2_duration_discrimination,discrim_jsons/Discrim1000_randls_24.json,http://54.173.230.142/FacialAge/BNav_EC2/DepthDuration/v2_depth_discrimination_MTurk/v2_DepthDiscrim_HTML.html#72,72.0,2560.0,1440.0,2560.0,1440.0,0-26-2022,8-51-4,90.0,depth_discrimination_stimuli/001164_2014-06-17_15-35-46_260595134347_rgbf000085-resize_3/001164_2014-06-17_15-35-46_260595134347_rgbf000085-resize_3-target.png,depth_discrimination_stimuli/001136_2014-06-17_15-19-41_260595134347_rgbf000076-resize_3/001136_2014-06-17_15-19-41_260595134347_rgbf000076-resize_3-target.png,1000.0,2.354,1.8655,0.48850000000000016,depth_discrimination_stimuli/001136_2014-06-17_15-19-41_260595134347_rgbf000076-resize_3/001136_2014-06-17_15-19-41_260595134347_rgbf000076-resize_3-target.png,0.0,1938.0,1011.0,992.0,1006.0,1002.0,496.0,,1019446,38,Man
390,701929.0,DepthScenes,v2_duration_discrimination,discrim_jsons/Discrim1000_randls_24.json,http://54.173.230.142/FacialAge/BNav_EC2/DepthDuration/v2_depth_discrimination_MTurk/v2_DepthDiscrim_HTML.html#72,72.0,2560.0,1440.0,2560.0,1440.0,0-26-2022,8-51-4,91.0,depth_discrimination_stimuli/000636_2014-06-08_16-39-02_260595134347_rgbf000108-resize_4/000636_2014-06-08_16-39-02_260595134347_rgbf000108-resize_4-target.png,depth_discrimination_stimuli/000521_2014-06-08_13-34-35_260595134347_rgbf000191-resize_2/000521_2014-06-08_13-34-35_260595134347_rgbf000191-resize_2-target.png,1000.0,2.682,3.0385,0.35650000000000004,depth_discrimination_stimuli/000636_2014-06-08_16-39-02_260595134347_rgbf000108-resize_4/000636_2014-06-08_16-39-02_260595134347_rgbf000108-resize_4-target.png,0.0,1876.0,1008.0,1000.0,998.0,1005.0,500.0,,1019446,38,Man
391,701929.0,DepthScenes,v2_duration_discrimination,discrim_jsons/Discrim1000_randls_24.json,http://54.173.230.142/FacialAge/BNav_EC2/DepthDuration/v2_depth_discrimination_MTurk/v2_DepthDiscrim_HTML.html#72,72.0,2560.0,1440.0,2560.0,1440.0,0-26-2022,8-51-4,92.0,depth_discrimination_stimuli/001449_2014-06-19_17-01-27_260595134347_rgbf000116-resize_2/001449_2014-06-19_17-01-27_260595134347_rgbf000116-resize_2-target.png,depth_discrimination_stimuli/001450_2014-06-19_17-02-03_260595134347_rgbf000203-resize_4/001450_2014-06-19_17-02-03_260595134347_rgbf000203-resize_4-target.png,1000.0,3.452,4.0106666666667,0.5586666666667002,depth_discrimination_stimuli/001449_2014-06-19_17-01-27_260595134347_rgbf000116-resize_2/001449_2014-06-19_17-01-27_260595134347_rgbf000116-resize_2-target.png,0.0,1962.0,1002.0,1002.0,1005.0,1001.0,498.0,,1019446,38,Man
392,701929.0,DepthScenes,v2_duration_discrimination,discrim_jsons/Discrim1000_randls_24.json,http://54.173.230.142/FacialAge/BNav_EC2/DepthDuration/v2_depth_discrimination_MTurk/v2_DepthDiscrim_HTML.html#72,72.0,2560.0,1440.0,2560.0,1440.0,0-26-2022,8-51-4,93.0,depth_discrimination_stimuli/001810_2014-06-26_20-51-35_260595134347_rgbf000040-resize_3/001810_2014-06-26_20-51-35_260595134347_rgbf000040-resize_3-target.png,depth_discrimination_stimuli/003010_2014-06-15_12-54-35_094959634447_rgbf000112-resize_0/003010_2014-06-15_12-54-35_094959634447_rgbf000112-resize_0-target.png,1000.0,2.2525,3.1185,0.8660000000000001,depth_discrimination_stimuli/001810_2014-06-26_20-51-35_260595134347_rgbf000040-resize_3/001810_2014-06-26_20-51-35_260595134347_rgbf000040-resize_3-target.png,0.0,1832.0,1010.0,1003.0,1002.0,991.0,496.0,,1019446,38,Man
393,701929.0,DepthScenes,v2_duration_discrimination,discrim_jsons/Discrim1000_randls_24.json,http://54.173.230.142/FacialAge/BNav_EC2/DepthDuration/v2_depth_discrimination_MTurk/v2_DepthDiscrim_HTML.html#72,72.0,2560.0,1440.0,2560.0,1440.0,0-26-2022,8-51-4,94.0,depth_discrimination_stimuli/001110_2014-06-15_17-25-28_260595134347_rgbf000150-resize_1/001110_2014-06-15_17-25-28_260595134347_rgbf000150-resize_1-target.png,depth_discrimination_stimuli/000927_2014-06-09_16-32-30_260595134347_rgbf000123-resize_3/000927_2014-06-09_16-32-30_260595134347_rgbf000123-resize_3-target.png,1000.0,1.7115,2.6785,0.9670000000000001,depth_discrimination_stimuli/001110_2014-06-15_17-25-28_260595134347_rgbf000150-resize_1/001110_2014-06-15_17-25-28_260595134347_rgbf000150-resize_1-target.png,0.0,1834.0,1015.0,987.0,1000.0,1003.0,508.0,,1019446,38,Man
394,701929.0,DepthScenes,v2_duration_discrimination,discrim_jsons/Discrim1000_randls_24.json,http://54.173.230.142/FacialAge/BNav_EC2/DepthDuration/v2_depth_discrimination_MTurk/v2_DepthDiscrim_HTML.html#72,72.0,2560.0,1440.0,2560.0,1440.0,0-26-2022,8-51-4,95.0,depth_discrimination_stimuli/001150_2014-06-17_15-27-34_260595134347_rgbf000108-resize_2/001150_2014-06-17_15-27-34_260595134347_rgbf000108-resize_2-target.png,depth_discrimination_stimuli/000665_2014-06-09_20-42-35_260595134347_rgbf000110-resize_1/000665_2014-06-09_20-42-35_260595134347_rgbf000110-resize_1-target.png,1000.0,4.0325,3.057,0.9754999999999998,depth_discrimination_stimuli/000665_2014-06-09_20-42-35_260595134347_rgbf000110-resize_1/000665_2014-06-09_20-42-35_260595134347_rgbf000110-resize_1-target.png,1.0,1927.0,1006.0,1003.0,1001.0,1002.0,493.0,,1019446,38,Man
395,701929.0,DepthScenes,v2_duration_discrimination,discrim_jsons/Discrim1000_randls_24.json,http://54.173.230.142/FacialAge/BNav_EC2/DepthDuration/v2_depth_discrimination_MTurk/v2_DepthDiscrim_HTML.html#72,72.0,2560.0,1440.0,2560.0,1440.0,0-26-2022,8-51-4,96.0,depth_discrimination_stimuli/000753_2014-06-08_21-57-44_260595134347_rgbf000123-resize_3/000753_2014-06-08_21-57-44_260595134347_rgbf000123-resize_3-target.png,depth_discrimination_stimuli/000830_2014-06-04_19-49-31_260595134347_rgbf000096-resize_2/000830_2014-06-04_19-49-31_260595134347_rgbf000096-resize_2-target.png,1000.0,1.916,2.6353333333332998,0.7193333333332999,depth_discrimination_stimuli/000753_2014-06-08_21-57-44_260595134347_rgbf000123-resize_3/000753_2014-06-08_21-57-44_260595134347_rgbf000123-resize_3-target.png,0.0,1894.0,1010.0,1002.0,990.0,1004.0,494.0,,1019446,38,Man
396,701929.0,DepthScenes,v2_duration_discrimination,discrim_jsons/Discrim1000_randls_24.json,http://54.173.230.142/FacialAge/BNav_EC2/DepthDuration/v2_depth_discrimination_MTurk/v2_DepthDiscrim_HTML.html#72,72.0,2560.0,1440.0,2560.0,1440.0,0-26-2022,8-51-4,97.0,depth_discrimination_stimuli/000800_2014-06-08_22-42-09_260595134347_rgbf000095-resize_3/000800_2014-06-08_22-42-09_260595134347_rgbf000095-resize_3-target.png,depth_discrimination_stimuli/002365_2014-06-28_20-11-21_260595134347_rgbf000102-resize_1/002365_2014-06-28_20-11-21_260595134347_rgbf000102-resize_1-target.png,1000.0,2.8,4.013,1.213,depth_discrimination_stimuli/000800_2014-06-08_22-42-09_260595134347_rgbf000095-resize_3/000800_2014-06-08_22-42-09_260595134347_rgbf000095-resize_3-target.png,0.0,1884.0,1013.0,998.0,1004.0,989.0,506.0,,1019446,38,Man
397,701929.0,DepthScenes,v2_duration_discrimination,discrim_jsons/Discrim1000_randls_24.json,http://54.173.230.142/FacialAge/BNav_EC2/DepthDuration/v2_depth_discrimination_MTurk/v2_DepthDiscrim_HTML.html#72,72.0,2560.0,1440.0,2560.0,1440.0,0-26-2022,8-51-4,98.0,depth_discrimination_stimuli/001175_2014-06-17_15-45-55_260595134347_rgbf000129-resize_4/001175_2014-06-17_15-45-55_260595134347_rgbf000129-resize_4-target.png,depth_discrimination_stimuli/003490_2014-05-21_15-50-11_094959634447_rgbf000101-resize_3/003490_2014-05-21_15-50-11_094959634447_rgbf000101-resize_3-target.png,1000.0,4.255,3.6445,0.6105,depth_discrimination_stimuli/003490_2014-05-21_15-50-11_094959634447_rgbf000101-resize_3/003490_2014-05-21_15-50-11_094959634447_rgbf000101-resize_3-target.png,0.0,1855.0,1007.0,1000.0,1001.0,1000.0,495.0,,1019446,38,Man
398,701929.0,DepthScenes,v2_duration_discrimination,discrim_jsons/Discrim1000_randls_24.json,http://54.173.230.142/FacialAge/BNav_EC2/DepthDuration/v2_depth_discrimination_MTurk/v2_DepthDiscrim_HTML.html#72,72.0,2560.0,1440.0,2560.0,1440.0,0-26-2022,8-51-4,99.0,depth_discrimination_stimuli/002039_2014-06-24_20-22-38_260595134347_rgbf000084-resize_1/002039_2014-06-24_20-22-38_260595134347_rgbf000084-resize_1-target.png,depth_discrimination_stimuli/002103_2014-06-25_20-00-40_260595134347_rgbf000049-resize_0/002103_2014-06-25_20-00-40_260595134347_rgbf000049-resize_0-target.png,1000.0,4.408,4.105,0.30299999999999994,depth_discrimination_stimuli/002103_2014-06-25_20-00-40_260595134347_rgbf000049-resize_0/002103_2014-06-25_20-00-40_260595134347_rgbf000049-resize_0-target.png,0.0,2032.0,1001.0,1003.0,1002.0,1001.0,508.0,,1019446,38,Man
399,701929.0,DepthScenes,v2_duration_discrimination,discrim_jsons/Discrim1000_randls_24.json,http://54.173.230.142/FacialAge/BNav_EC2/DepthDuration/v2_depth_discrimination_MTurk/v2_DepthDiscrim_HTML.html#72,72.0,2560.0,1440.0,2560.0,1440.0,0-26-2022,8-51-4,100.0,depth_discrimination_stimuli/002989_2014-06-15_12-25-03_094959634447_rgbf000150-resize_3/002989_2014-06-15_12-25-03_094959634447_rgbf000150-resize_3-target.png,depth_discrimination_stimuli/000866_2014-06-09_20-45-42_260595134347_rgbf000139-resize_1/000866_2014-06-09_20-45-42_260595134347_rgbf000139-resize_1-target.png,1000.0,4.1975,3.2155,0.9819999999999998,depth_discrimination_stimuli/000866_2014-06-09_20-45-42_260595134347_rgbf000139-resize_1/000866_2014-06-09_20-45-42_260595134347_rgbf000139-resize_1-target.png,1.0,2072.0,1015.0,1000.0,999.0,1000.0,496.0,,1019446,38,Man
500,380692.0,DepthScenes,v2_duration_discrimination,discrim_jsons/Discrim1000_randls_42.json,http://54.173.230.142/FacialAge/BNav_EC2/DepthDuration/v2_depth_discrimination_MTurk/v2_DepthDiscrim_HTML.html#89,89.0,1366.0,768.0,1366.0,768.0,0-28-2022,8-35-29,1.0,depth_discrimination_stimuli/003546_2014-05-22_15-48-53_094959634447_rgbf004816-resize_3/003546_2014-05-22_15-48-53_094959634447_rgbf004816-resize_3-target.png,depth_discrimination_stimuli/001532_2014-06-20_16-50-41_260595134347_rgbf000081-resize_4/001532_2014-06-20_16-50-41_260595134347_rgbf000081-resize_4-target.png,1000.0,2.62625,1.5758333333333001,1.0504166666667,depth_discrimination_stimuli/001532_2014-06-20_16-50-41_260595134347_rgbf000081-resize_4/001532_2014-06-20_16-50-41_260595134347_rgbf000081-resize_4-target.png,1.0,2385.0,1004.0,1008.0,1002.0,999.0,496.0,,721046,29,Man
501,380692.0,DepthScenes,v2_duration_discrimination,discrim_jsons/Discrim1000_randls_42.json,http://54.173.230.142/FacialAge/BNav_EC2/DepthDuration/v2_depth_discrimination_MTurk/v2_DepthDiscrim_HTML.html#89,89.0,1366.0,768.0,1366.0,768.0,0-28-2022,8-35-29,2.0,depth_discrimination_stimuli/001181_2014-06-17_15-50-57_260595134347_rgbf000106-resize_4/001181_2014-06-17_15-50-57_260595134347_rgbf000106-resize_4-target.png,depth_discrimination_stimuli/000542_2014-06-08_18-27-08_260595134347_rgbf000118-resize_1/000542_2014-06-08_18-27-08_260595134347_rgbf000118-resize_1-target.png,1000.0,4.149,3.0,1.149,depth_discrimination_stimuli/000542_2014-06-08_18-27-08_260595134347_rgbf000118-resize_1/000542_2014-06-08_18-27-08_260595134347_rgbf000118-resize_1-target.png,0.0,2608.0,1023.0,995.0,1012.0,991.0,501.0,,721046,29,Man
502,380692.0,DepthScenes,v2_duration_discrimination,discrim_jsons/Discrim1000_randls_42.json,http://54.173.230.142/FacialAge/BNav_EC2/DepthDuration/v2_depth_discrimination_MTurk/v2_DepthDiscrim_HTML.html#89,89.0,1366.0,768.0,1366.0,768.0,0-28-2022,8-35-29,3.0,depth_discrimination_stimuli/002549_2014-06-24_13-41-39_094959634447_rgbf000022-resize_3/002549_2014-06-24_13-41-39_094959634447_rgbf000022-resize_3-target.png,depth_discrimination_stimuli/002750_2014-06-22_19-08-03_094959634447_rgbf000094-resize_4/002750_2014-06-22_19-08-03_094959634447_rgbf000094-resize_4-target.png,1000.0,1.476,2.354,0.8780000000000001,depth_discrimination_stimuli/002549_2014-06-24_13-41-39_094959634447_rgbf000022-resize_3/002549_2014-06-24_13-41-39_094959634447_rgbf000022-resize_3-target.png,0.0,2725.0,1016.0,990.0,1011.0,987.0,512.0,,721046,29,Man
503,380692.0,DepthScenes,v2_duration_discrimination,discrim_jsons/Discrim1000_randls_42.json,http://54.173.230.142/FacialAge/BNav_EC2/DepthDuration/v2_depth_discrimination_MTurk/v2_DepthDiscrim_HTML.html#89,89.0,1366.0,768.0,1366.0,768.0,0-28-2022,8-35-29,4.0,depth_discrimination_stimuli/002460_2014-06-28_20-35-43_260595134347_rgbf000028-resize_4/002460_2014-06-28_20-35-43_260595134347_rgbf000028-resize_4-target.png,depth_discrimination_stimuli/002790_2014-06-22_19-36-35_094959634447_rgbf000074-resize_4/002790_2014-06-22_19-36-35_094959634447_rgbf000074-resize_4-target.png,1000.0,2.269,3.512,1.2429999999999999,depth_discrimination_stimuli/002460_2014-06-28_20-35-43_260595134347_rgbf000028-resize_4/002460_2014-06-28_20-35-43_260595134347_rgbf000028-resize_4-target.png,1.0,2760.0,1012.0,994.0,995.0,1000.0,503.0,,721046,29,Man
504,380692.0,DepthScenes,v2_duration_discrimination,discrim_jsons/Discrim1000_randls_42.json,http://54.173.230.142/FacialAge/BNav_EC2/DepthDuration/v2_depth_discrimination_MTurk/v2_DepthDiscrim_HTML.html#89,89.0,1366.0,768.0,1366.0,768.0,0-28-2022,8-35-29,5.0,depth_discrimination_stimuli/000436_2014-06-09_22-25-11_260595134347_rgbf000137-resize_1/000436_2014-06-09_22-25-11_260595134347_rgbf000137-resize_1-target.png,depth_discrimination_stimuli/002444_2014-06-28_20-32-08_260595134347_rgbf000027-resize_0/002444_2014-06-28_20-32-08_260595134347_rgbf000027-resize_0-target.png,1000.0,4.0705,4.388999999999999,0.31849999999999934,depth_discrimination_stimuli/000436_2014-06-09_22-25-11_260595134347_rgbf000137-resize_1/000436_2014-06-09_22-25-11_260595134347_rgbf000137-resize_1-target.png,0.0,2457.0,1014.0,988.0,1008.0,1004.0,489.0,,721046,29,Man
505,380692.0,DepthScenes,v2_duration_discrimination,discrim_jsons/Discrim1000_randls_42.json,http://54.173.230.142/FacialAge/BNav_EC2/DepthDuration/v2_depth_discrimination_MTurk/v2_DepthDiscrim_HTML.html#89,89.0,1366.0,768.0,1366.0,768.0,0-28-2022,8-35-29,6.0,depth_discrimination_stimuli/002663_2014-06-13_15-50-26_094959634447_rgbf000075-resize_1/002663_2014-06-13_15-50-26_094959634447_rgbf000075-resize_1-target.png,depth_discrimination_stimuli/000409_2014-06-04_19-23-33_260595134347_rgbf000067-resize_0/000409_2014-06-04_19-23-33_260595134347_rgbf000067-resize_0-target.png,1000.0,4.7495,3.7335,1.0160000000000005,depth_discrimination_stimuli/000409_2014-06-04_19-23-33_260595134347_rgbf000067-resize_0/000409_2014-06-04_19-23-33_260595134347_rgbf000067-resize_0-target.png,1.0,2597.0,1003.0,1006.0,997.0,1005.0,490.0,,721046,29,Man
506,380692.0,DepthScenes,v2_duration_discrimination,discrim_jsons/Discrim1000_randls_42.json,http://54.173.230.142/FacialAge/BNav_EC2/DepthDuration/v2_depth_discrimination_MTurk/v2_DepthDiscrim_HTML.html#89,89.0,1366.0,768.0,1366.0,768.0,0-28-2022,8-35-29,7.0,depth_discrimination_stimuli/001808_2014-06-26_20-50-58_260595134347_rgbf000029-resize_1/001808_2014-06-26_20-50-58_260595134347_rgbf000029-resize_1-target.png,depth_discrimination_stimuli/001815_2014-06-26_20-52-55_260595134347_rgbf000020-resize_0/001815_2014-06-26_20-52-55_260595134347_rgbf000020-resize_0-target.png,1000.0,4.249,3.3865,0.8624999999999998,depth_discrimination_stimuli/001815_2014-06-26_20-52-55_260595134347_rgbf000020-resize_0/001815_2014-06-26_20-52-55_260595134347_rgbf000020-resize_0-target.png,1.0,2574.0,1004.0,1025.0,975.0,998.0,507.0,,721046,29,Man
507,380692.0,DepthScenes,v2_duration_discrimination,discrim_jsons/Discrim1000_randls_42.json,http://54.173.230.142/FacialAge/BNav_EC2/DepthDuration/v2_depth_discrimination_MTurk/v2_DepthDiscrim_HTML.html#89,89.0,1366.0,768.0,1366.0,768.0,0-28-2022,8-35-29,8.0,depth_discrimination_stimuli/001199_2014-06-17_16-03-48_260595134347_rgbf000077-resize_0/001199_2014-06-17_16-03-48_260595134347_rgbf000077-resize_0-target.png,depth_discrimination_stimuli/000502_2014-06-08_23-02-32_260595134347_rgbf000063-resize_4/000502_2014-06-08_23-02-32_260595134347_rgbf000063-resize_4-target.png,1000.0,3.4375,2.431,1.0065,depth_discrimination_stimuli/000502_2014-06-08_23-02-32_260595134347_rgbf000063-resize_4/000502_2014-06-08_23-02-32_260595134347_rgbf000063-resize_4-target.png,1.0,2442.0,1013.0,1001.0,1052.0,932.0,523.0,,721046,29,Man
508,380692.0,DepthScenes,v2_duration_discrimination,discrim_jsons/Discrim1000_randls_42.json,http://54.173.230.142/FacialAge/BNav_EC2/DepthDuration/v2_depth_discrimination_MTurk/v2_DepthDiscrim_HTML.html#89,89.0,1366.0,768.0,1366.0,768.0,0-28-2022,8-35-29,9.0,depth_discrimination_stimuli/002630_2014-06-24_14-47-50_094959634447_rgbf000055-resize_1/002630_2014-06-24_14-47-50_094959634447_rgbf000055-resize_1-target.png,depth_discrimination_stimuli/002758_2014-06-22_19-11-20_094959634447_rgbf000128-resize_1/002758_2014-06-22_19-11-20_094959634447_rgbf000128-resize_1-target.png,1000.0,3.0095,2.555,0.4544999999999999,depth_discrimination_stimuli/002758_2014-06-22_19-11-20_094959634447_rgbf000128-resize_1/002758_2014-06-22_19-11-20_094959634447_rgbf000128-resize_1-target.png,1.0,2494.0,1009.0,992.0,1025.0,980.0,504.0,,721046,29,Man
509,380692.0,DepthScenes,v2_duration_discrimination,discrim_jsons/Discrim1000_randls_42.json,http://54.173.230.142/FacialAge/BNav_EC2/DepthDuration/v2_depth_discrimination_MTurk/v2_DepthDiscrim_HTML.html#89,89.0,1366.0,768.0,1366.0,768.0,0-28-2022,8-35-29,10.0,depth_discrimination_stimuli/002118_2014-06-25_20-32-08_260595134347_rgbf000078-resize_1/002118_2014-06-25_20-32-08_260595134347_rgbf000078-resize_1-target.png,depth_discrimination_stimuli/001516_2014-06-20_16-25-09_260595134347_rgbf000076-resize_2/001516_2014-06-20_16-25-09_260595134347_rgbf000076-resize_2-target.png,1000.0,2.6460000000000004,1.7445,0.9015000000000004,depth_discrimination_stimuli/001516_2014-06-20_16-25-09_260595134347_rgbf000076-resize_2/001516_2014-06-20_16-25-09_260595134347_rgbf000076-resize_2-target.png,1.0,2700.0,1004.0,999.0,1013.0,987.0,505.0,,721046,29,Man
511,380692.0,DepthScenes,v2_duration_discrimination,discrim_jsons/Discrim1000_randls_42.json,http://54.173.230.142/FacialAge/BNav_EC2/DepthDuration/v2_depth_discrimination_MTurk/v2_DepthDiscrim_HTML.html#89,89.0,1366.0,768.0,1366.0,768.0,0-28-2022,8-35-29,12.0,depth_discrimination_stimuli/000636_2014-06-08_16-39-02_260595134347_rgbf000108-resize_4/000636_2014-06-08_16-39-02_260595134347_rgbf000108-resize_4-target.png,depth_discrimination_stimuli/000521_2014-06-08_13-34-35_260595134347_rgbf000191-resize_2/000521_2014-06-08_13-34-35_260595134347_rgbf000191-resize_2-target.png,1000.0,2.682,3.0385,0.35650000000000004,depth_discrimination_stimuli/000636_2014-06-08_16-39-02_260595134347_rgbf000108-resize_4/000636_2014-06-08_16-39-02_260595134347_rgbf000108-resize_4-target.png,0.0,2867.0,1022.0,990.0,997.0,1004.0,490.0,,721046,29,Man
512,380692.0,DepthScenes,v2_duration_discrimination,discrim_jsons/Discrim1000_randls_42.json,http://54.173.230.142/FacialAge/BNav_EC2/DepthDuration/v2_depth_discrimination_MTurk/v2_DepthDiscrim_HTML.html#89,89.0,1366.0,768.0,1366.0,768.0,0-28-2022,8-35-29,13.0,depth_discrimination_stimuli/001724_2014-06-26_19-28-50_260595134347_rgbf000037-resize_7/001724_2014-06-26_19-28-50_260595134347_rgbf000037-resize_7-target.png,depth_discrimination_stimuli/002987_2014-06-08_18-48-20_094959634447_rgbf000022-resize_0/002987_2014-06-08_18-48-20_094959634447_rgbf000022-resize_0-target.png,1000.0,3.827,2.6775,1.1494999999999997,depth_discrimination_stimuli/002987_2014-06-08_18-48-20_094959634447_rgbf000022-resize_0/002987_2014-06-08_18-48-20_094959634447_rgbf000022-resize_0-target.png,1.0,3196.0,1002.0,1005.0,1006.0,991.0,508.0,,721046,29,Man
513,380692.0,DepthScenes,v2_duration_discrimination,discrim_jsons/Discrim1000_randls_42.json,http://54.173.230.142/FacialAge/BNav_EC2/DepthDuration/v2_depth_discrimination_MTurk/v2_DepthDiscrim_HTML.html#89,89.0,1366.0,768.0,1366.0,768.0,0-28-2022,8-35-29,14.0,depth_discrimination_stimuli/000758_2014-06-08_22-05-08_260595134347_rgbf000085-resize_0/000758_2014-06-08_22-05-08_260595134347_rgbf000085-resize_0-target.png,depth_discrimination_stimuli/000854_2014-06-09_19-43-13_260595134347_rgbf000066-resize_0/000854_2014-06-09_19-43-13_260595134347_rgbf000066-resize_0-target.png,1000.0,3.3810000000000002,3.068,0.31300000000000017,depth_discrimination_stimuli/000854_2014-06-09_19-43-13_260595134347_rgbf000066-resize_0/000854_2014-06-09_19-43-13_260595134347_rgbf000066-resize_0-target.png,0.0,3812.0,1008.0,1008.0,1002.0,986.0,528.0,,721046,29,Man
514,380692.0,DepthScenes,v2_duration_discrimination,discrim_jsons/Discrim1000_randls_42.json,http://54.173.230.142/FacialAge/BNav_EC2/DepthDuration/v2_depth_discrimination_MTurk/v2_DepthDiscrim_HTML.html#89,89.0,1366.0,768.0,1366.0,768.0,0-28-2022,8-35-29,15.0,depth_discrimination_stimuli/002305_2014-06-28_19-56-50_260595134347_rgbf000102-resize_7/002305_2014-06-28_19-56-50_260595134347_rgbf000102-resize_7-target.png,depth_discrimination_stimuli/000735_2014-06-08_18-23-50_260595134347_rgbf000163-resize_2/000735_2014-06-08_18-23-50_260595134347_rgbf000163-resize_2-target.png,1000.0,4.8725,4.1695,0.7029999999999994,depth_discrimination_stimuli/000735_2014-06-08_18-23-50_260595134347_rgbf000163-resize_2/000735_2014-06-08_18-23-50_260595134347_rgbf000163-resize_2-target.png,1.0,2950.0,1011.0,992.0,1006.0,998.0,502.0,,721046,29,Man
515,380692.0,DepthScenes,v2_duration_discrimination,discrim_jsons/Discrim1000_randls_42.json,http://54.173.230.142/FacialAge/BNav_EC2/DepthDuration/v2_depth_discrimination_MTurk/v2_DepthDiscrim_HTML.html#89,89.0,1366.0,768.0,1366.0,768.0,0-28-2022,8-35-29,16.0,depth_discrimination_stimuli/002875_2014-06-01_15-19-00_094959634447_rgbf000151-resize_1/002875_2014-06-01_15-19-00_094959634447_rgbf000151-resize_1-target.png,depth_discrimination_stimuli/001011_2014-06-08_23-18-54_260595134347_rgbf000044-resize_4/001011_2014-06-08_23-18-54_260595134347_rgbf000044-resize_4-target.png,1000.0,1.9675,2.4730000000000003,0.5055000000000003,depth_discrimination_stimuli/002875_2014-06-01_15-19-00_094959634447_rgbf000151-resize_1/002875_2014-06-01_15-19-00_094959634447_rgbf000151-resize_1-target.png,0.0,3160.0,1011.0,996.0,1001.0,999.0,508.0,,721046,29,Man
517,380692.0,DepthScenes,v2_duration_discrimination,discrim_jsons/Discrim1000_randls_42.json,http://54.173.230.142/FacialAge/BNav_EC2/DepthDuration/v2_depth_discrimination_MTurk/v2_DepthDiscrim_HTML.html#89,89.0,1366.0,768.0,1366.0,768.0,0-28-2022,8-35-29,18.0,depth_discrimination_stimuli/002988_2014-06-15_12-24-20_094959634447_rgbf000150-resize_1/002988_2014-06-15_12-24-20_094959634447_rgbf000150-resize_1-target.png,depth_discrimination_stimuli/001052_2014-06-08_18-24-54_260595134347_rgbf000130-resize_1/001052_2014-06-08_18-24-54_260595134347_rgbf000130-resize_1-target.png,1000.0,4.7669999999999995,4.1045,0.6624999999999996,depth_discrimination_stimuli/001052_2014-06-08_18-24-54_260595134347_rgbf000130-resize_1/001052_2014-06-08_18-24-54_260595134347_rgbf000130-resize_1-target.png,0.0,2939.0,1011.0,996.0,993.0,1012.0,501.0,,721046,29,Man
518,380692.0,DepthScenes,v2_duration_discrimination,discrim_jsons/Discrim1000_randls_42.json,http://54.173.230.142/FacialAge/BNav_EC2/DepthDuration/v2_depth_discrimination_MTurk/v2_DepthDiscrim_HTML.html#89,89.0,1366.0,768.0,1366.0,768.0,0-28-2022,8-35-29,19.0,depth_discrimination_stimuli/000773_2014-06-08_22-24-54_260595134347_rgbf000093-resize_1/000773_2014-06-08_22-24-54_260595134347_rgbf000093-resize_1-target.png,depth_discrimination_stimuli/002414_2014-06-28_20-24-58_260595134347_rgbf000067-resize_4/002414_2014-06-28_20-24-58_260595134347_rgbf000067-resize_4-target.png,1000.0,4.973,4.363,0.6099999999999994,depth_discrimination_stimuli/002414_2014-06-28_20-24-58_260595134347_rgbf000067-resize_4/002414_2014-06-28_20-24-58_260595134347_rgbf000067-resize_4-target.png,0.0,2483.0,1015.0,988.0,1011.0,996.0,492.0,,721046,29,Man
519,380692.0,DepthScenes,v2_duration_discrimination,discrim_jsons/Discrim1000_randls_42.json,http://54.173.230.142/FacialAge/BNav_EC2/DepthDuration/v2_depth_discrimination_MTurk/v2_DepthDiscrim_HTML.html#89,89.0,1366.0,768.0,1366.0,768.0,0-28-2022,8-35-29,20.0,depth_discrimination_stimuli/001133_2014-06-17_14-49-16_260595134347_rgbf000100-resize_0/001133_2014-06-17_14-49-16_260595134347_rgbf000100-resize_0-target.png,depth_discrimination_stimuli/001132_2014-06-17_14-48-54_260595134347_rgbf000100-resize_2/001132_2014-06-17_14-48-54_260595134347_rgbf000100-resize_2-target.png,1000.0,4.2115,3.753,0.4584999999999999,depth_discrimination_stimuli/001132_2014-06-17_14-48-54_260595134347_rgbf000100-resize_2/001132_2014-06-17_14-48-54_260595134347_rgbf000100-resize_2-target.png,1.0,4076.0,1026.0,988.0,994.0,998.0,494.0,,721046,29,Man
520,380692.0,DepthScenes,v2_duration_discrimination,discrim_jsons/Discrim1000_randls_42.json,http://54.173.230.142/FacialAge/BNav_EC2/DepthDuration/v2_depth_discrimination_MTurk/v2_DepthDiscrim_HTML.html#89,89.0,1366.0,768.0,1366.0,768.0,0-28-2022,8-35-29,21.0,depth_discrimination_stimuli/000368_2014-06-09_15-53-01_260595134347_rgbf000155-resize_2/000368_2014-06-09_15-53-01_260595134347_rgbf000155-resize_2-target.png,depth_discrimination_stimuli/002678_2014-06-13_16-15-32_094959634447_rgbf000151-resize_6/002678_2014-06-13_16-15-32_094959634447_rgbf000151-resize_6-target.png,1000.0,2.4859999999999998,2.1830000000000003,0.3029999999999995,depth_discrimination_stimuli/002678_2014-06-13_16-15-32_094959634447_rgbf000151-resize_6/002678_2014-06-13_16-15-32_094959634447_rgbf000151-resize_6-target.png,0.0,3066.0,1011.0,1004.0,987.0,1007.0,495.0,,721046,29,Man
521,380692.0,DepthScenes,v2_duration_discrimination,discrim_jsons/Discrim1000_randls_42.json,http://54.173.230.142/FacialAge/BNav_EC2/DepthDuration/v2_depth_discrimination_MTurk/v2_DepthDiscrim_HTML.html#89,89.0,1366.0,768.0,1366.0,768.0,0-28-2022,8-35-29,22.0,depth_discrimination_stimuli/002570_2014-06-24_13-59-54_094959634447_rgbf000059-resize_0/002570_2014-06-24_13-59-54_094959634447_rgbf000059-resize_0-target.png,depth_discrimination_stimuli/002467_2014-06-28_20-38-07_260595134347_rgbf000026-resize_2/002467_2014-06-28_20-38-07_260595134347_rgbf000026-resize_2-target.png,1000.0,4.037,4.742,0.7050000000000001,depth_discrimination_stimuli/002570_2014-06-24_13-59-54_094959634447_rgbf000059-resize_0/002570_2014-06-24_13-59-54_094959634447_rgbf000059-resize_0-target.png,0.0,2988.0,1003.0,1005.0,1015.0,992.0,484.0,,721046,29,Man
522,380692.0,DepthScenes,v2_duration_discrimination,discrim_jsons/Discrim1000_randls_42.json,http://54.173.230.142/FacialAge/BNav_EC2/DepthDuration/v2_depth_discrimination_MTurk/v2_DepthDiscrim_HTML.html#89,89.0,1366.0,768.0,1366.0,768.0,0-28-2022,8-35-29,23.0,depth_discrimination_stimuli/002579_2014-06-24_14-08-03_094959634447_rgbf000061-resize_2/002579_2014-06-24_14-08-03_094959634447_rgbf000061-resize_2-target.png,depth_discrimination_stimuli/002468_2014-06-28_20-38-39_260595134347_rgbf000045-resize_1/002468_2014-06-28_20-38-39_260595134347_rgbf000045-resize_1-target.png,1000.0,2.223125,1.956,0.26712500000000006,depth_discrimination_stimuli/002468_2014-06-28_20-38-39_260595134347_rgbf000045-resize_1/002468_2014-06-28_20-38-39_260595134347_rgbf000045-resize_1-target.png,0.0,2595.0,1006.0,1009.0,993.0,991.0,507.0,,721046,29,Man
523,380692.0,DepthScenes,v2_duration_discrimination,discrim_jsons/Discrim1000_randls_42.json,http://54.173.230.142/FacialAge/BNav_EC2/DepthDuration/v2_depth_discrimination_MTurk/v2_DepthDiscrim_HTML.html#89,89.0,1366.0,768.0,1366.0,768.0,0-28-2022,8-35-29,24.0,depth_discrimination_stimuli/000506_2014-06-08_23-21-00_260595134347_rgbf000070-resize_7/000506_2014-06-08_23-21-00_260595134347_rgbf000070-resize_7-target.png,depth_discrimination_stimuli/003079_2014-06-15_15-18-20_094959634447_rgbf000152-resize_8/003079_2014-06-15_15-18-20_094959634447_rgbf000152-resize_8-target.png,1000.0,4.0585,2.8775,1.1810000000000005,depth_discrimination_stimuli/003079_2014-06-15_15-18-20_094959634447_rgbf000152-resize_8/003079_2014-06-15_15-18-20_094959634447_rgbf000152-resize_8-target.png,0.0,2447.0,1002.0,1002.0,1005.0,1003.0,509.0,,721046,29,Man
524,380692.0,DepthScenes,v2_duration_discrimination,discrim_jsons/Discrim1000_randls_42.json,http://54.173.230.142/FacialAge/BNav_EC2/DepthDuration/v2_depth_discrimination_MTurk/v2_DepthDiscrim_HTML.html#89,89.0,1366.0,768.0,1366.0,768.0,0-28-2022,8-35-29,25.0,depth_discrimination_stimuli/000788_2014-06-08_22-34-36_260595134347_rgbf000131-resize_1/000788_2014-06-08_22-34-36_260595134347_rgbf000131-resize_1-target.png,depth_discrimination_stimuli/001235_2014-06-17_16-37-36_260595134347_rgbf000084-resize_4/001235_2014-06-17_16-37-36_260595134347_rgbf000084-resize_4-target.png,1000.0,3.359,3.6605,0.3014999999999999,depth_discrimination_stimuli/000788_2014-06-08_22-34-36_260595134347_rgbf000131-resize_1/000788_2014-06-08_22-34-36_260595134347_rgbf000131-resize_1-target.png,0.0,3936.0,1011.0,1014.0,986.0,990.0,515.0,,721046,29,Man
525,380692.0,DepthScenes,v2_duration_discrimination,discrim_jsons/Discrim1000_randls_42.json,http://54.173.230.142/FacialAge/BNav_EC2/DepthDuration/v2_depth_discrimination_MTurk/v2_DepthDiscrim_HTML.html#89,89.0,1366.0,768.0,1366.0,768.0,0-28-2022,8-35-29,26.0,depth_discrimination_stimuli/001029_2014-06-08_13-17-57_260595134347_rgbf000065-resize_1/001029_2014-06-08_13-17-57_260595134347_rgbf000065-resize_1-target.png,depth_discrimination_stimuli/000677_2014-06-08_23-10-32_260595134347_rgbf000158-resize_6/000677_2014-06-08_23-10-32_260595134347_rgbf000158-resize_6-target.png,1000.0,3.0835,3.556,0.47250000000000014,depth_discrimination_stimuli/001029_2014-06-08_13-17-57_260595134347_rgbf000065-resize_1/001029_2014-06-08_13-17-57_260595134347_rgbf000065-resize_1-target.png,0.0,2549.0,1005.0,1002.0,1010.0,997.0,489.0,,721046,29,Man
526,380692.0,DepthScenes,v2_duration_discrimination,discrim_jsons/Discrim1000_randls_42.json,http://54.173.230.142/FacialAge/BNav_EC2/DepthDuration/v2_depth_discrimination_MTurk/v2_DepthDiscrim_HTML.html#89,89.0,1366.0,768.0,1366.0,768.0,0-28-2022,8-35-29,27.0,depth_discrimination_stimuli/001417_2014-06-19_16-25-36_260595134347_rgbf000115-resize_5/001417_2014-06-19_16-25-36_260595134347_rgbf000115-resize_5-target.png,depth_discrimination_stimuli/003081_2014-06-15_15-19-16_094959634447_rgbf000150-resize_1/003081_2014-06-15_15-19-16_094959634447_rgbf000150-resize_1-target.png,1000.0,4.6255,3.9125,0.7129999999999996,depth_discrimination_stimuli/003081_2014-06-15_15-19-16_094959634447_rgbf000150-resize_1/003081_2014-06-15_15-19-16_094959634447_rgbf000150-resize_1-target.png,1.0,2664.0,1011.0,999.0,993.0,1025.0,493.0,,721046,29,Man
527,380692.0,DepthScenes,v2_duration_discrimination,discrim_jsons/Discrim1000_randls_42.json,http://54.173.230.142/FacialAge/BNav_EC2/DepthDuration/v2_depth_discrimination_MTurk/v2_DepthDiscrim_HTML.html#89,89.0,1366.0,768.0,1366.0,768.0,0-28-2022,8-35-29,28.0,depth_discrimination_stimuli/000447_2014-06-08_16-15-46_260595134347_rgbf000130-resize_1/000447_2014-06-08_16-15-46_260595134347_rgbf000130-resize_1-target.png,depth_discrimination_stimuli/001447_2014-06-19_17-00-32_260595134347_rgbf000082-resize_5/001447_2014-06-19_17-00-32_260595134347_rgbf000082-resize_5-target.png,1000.0,4.479,4.13775,0.3412500000000005,depth_discrimination_stimuli/001447_2014-06-19_17-00-32_260595134347_rgbf000082-resize_5/001447_2014-06-19_17-00-32_260595134347_rgbf000082-resize_5-target.png,1.0,2965.0,1004.0,1007.0,1001.0,992.0,509.0,,721046,29,Man
528,380692.0,DepthScenes,v2_duration_discrimination,discrim_jsons/Discrim1000_randls_42.json,http://54.173.230.142/FacialAge/BNav_EC2/DepthDuration/v2_depth_discrimination_MTurk/v2_DepthDiscrim_HTML.html#89,89.0,1366.0,768.0,1366.0,768.0,0-28-2022,8-35-29,29.0,depth_discrimination_stimuli/000522_2014-06-08_13-35-06_260595134347_rgbf000244-resize_1/000522_2014-06-08_13-35-06_260595134347_rgbf000244-resize_1-target.png,depth_discrimination_stimuli/002949_2014-06-26_15-57-42_094959634447_rgbf000079-resize_1/002949_2014-06-26_15-57-42_094959634447_rgbf000079-resize_1-target.png,1000.0,2.3715,1.8915,0.4800000000000002,depth_discrimination_stimuli/002949_2014-06-26_15-57-42_094959634447_rgbf000079-resize_1/002949_2014-06-26_15-57-42_094959634447_rgbf000079-resize_1-target.png,0.0,2536.0,1029.0,977.0,1016.0,993.0,498.0,,721046,29,Man
529,380692.0,DepthScenes,v2_duration_discrimination,discrim_jsons/Discrim1000_randls_42.json,http://54.173.230.142/FacialAge/BNav_EC2/DepthDuration/v2_depth_discrimination_MTurk/v2_DepthDiscrim_HTML.html#89,89.0,1366.0,768.0,1366.0,768.0,0-28-2022,8-35-29,30.0,depth_discrimination_stimuli/000810_2014-06-08_17-20-01_260595134347_rgbf000105-resize_0/000810_2014-06-08_17-20-01_260595134347_rgbf000105-resize_0-target.png,depth_discrimination_stimuli/001214_2014-06-17_16-13-55_260595134347_rgbf000111-resize_0/001214_2014-06-17_16-13-55_260595134347_rgbf000111-resize_0-target.png,1000.0,1.4865,2.6505,1.1640000000000001,depth_discrimination_stimuli/000810_2014-06-08_17-20-01_260595134347_rgbf000105-resize_0/000810_2014-06-08_17-20-01_260595134347_rgbf000105-resize_0-target.png,0.0,2503.0,1014.0,997.0,998.0,1017.0,483.0,,721046,29,Man
