subjID,experimentName,versionName,sequenceName,url,selected_row,windowWidth,windowHeight,screenWidth,screenHeight,startDate,startTime,trial,stimulus_0,stimulus_1,duration,actual_depth_0,actual_depth_1,discrim_choice,trial_RT,log_fixation,log_sceneDuration1,log_mask1,log_sceneDuration2,log_mask2,experimentTime,totalTime,age,gender
264923,DepthScenes,v2_duration_discrimination,discrim_jsons/v2_shuffled_g0_rotated.json,http://54.210.137.18/DepthDuration/v2_depth_discrimination_MTurk/v2_DepthDiscrim_HTML.html#3,3,1920,937,1920,1080,10-18-2021,11-2-5,1,depth_discrimination_stimuli/000109_2014-05-14_23-41-52_260595134347_rgbf000035-resize_9/000109_2014-05-14_23-41-52_260595134347_rgbf000035-resize_9-target.png,depth_discrimination_stimuli/001618_2014-06-20_11-37-31_260595134347_rgbf000027-resize_3/001618_2014-06-20_11-37-31_260595134347_rgbf000027-resize_3-target.png,250,1.3545,1.8725,1,1259,1001,252,999,247,511,,295355,41,Man
264923,DepthScenes,v2_duration_discrimination,discrim_jsons/v2_shuffled_g0_rotated.json,http://54.210.137.18/DepthDuration/v2_depth_discrimination_MTurk/v2_DepthDiscrim_HTML.html#3,3,1920,937,1920,1080,10-18-2021,11-2-5,2,depth_discrimination_stimuli/000502_2014-06-08_23-02-32_260595134347_rgbf000063-resize_4/000502_2014-06-08_23-02-32_260595134347_rgbf000063-resize_4-target.png,depth_discrimination_stimuli/001092_2014-06-15_17-34-58_260595134347_rgbf000171-resize_3/001092_2014-06-15_17-34-58_260595134347_rgbf000171-resize_3-target.png,1000,2.431,2.6935,0,2781,1010,997,1002,1002,498,,295355,41,Man
264923,DepthScenes,v2_duration_discrimination,discrim_jsons/v2_shuffled_g0_rotated.json,http://54.210.137.18/DepthDuration/v2_depth_discrimination_MTurk/v2_DepthDiscrim_HTML.html#3,3,1920,937,1920,1080,10-18-2021,11-2-5,3,depth_discrimination_stimuli/000953_2014-06-08_11-42-19_260595134347_rgbf000083-resize_0/000953_2014-06-08_11-42-19_260595134347_rgbf000083-resize_0-target.png,depth_discrimination_stimuli/000953_2014-06-08_11-42-19_260595134347_rgbf000083-resize_0/000953_2014-06-08_11-42-19_260595134347_rgbf000083-resize_0-target.png,250,1.369,1.369,3,1342,1016,235,1014,235,511,,295355,41,Man
264923,DepthScenes,v2_duration_discrimination,discrim_jsons/v2_shuffled_g0_rotated.json,http://54.210.137.18/DepthDuration/v2_depth_discrimination_MTurk/v2_DepthDiscrim_HTML.html#3,3,1920,937,1920,1080,10-18-2021,11-2-5,4,depth_discrimination_stimuli/000742_2014-06-08_18-48-09_260595134347_rgbf000164-resize_4/000742_2014-06-08_18-48-09_260595134347_rgbf000164-resize_4-target.png,depth_discrimination_stimuli/003083_2014-06-15_15-21-03_094959634447_rgbf000063-resize_1/003083_2014-06-15_15-21-03_094959634447_rgbf000063-resize_1-target.png,250,4.632,4.1405,0,1626,1012,248,999,240,513,,295355,41,Man
264923,DepthScenes,v2_duration_discrimination,discrim_jsons/v2_shuffled_g0_rotated.json,http://54.210.137.18/DepthDuration/v2_depth_discrimination_MTurk/v2_DepthDiscrim_HTML.html#3,3,1920,937,1920,1080,10-18-2021,11-2-5,5,depth_discrimination_stimuli/000943_2014-06-09_19-31-07_260595134347_rgbf000128-resize_1/000943_2014-06-09_19-31-07_260595134347_rgbf000128-resize_1-target.png,depth_discrimination_stimuli/001532_2014-06-20_16-50-41_260595134347_rgbf000081-resize_4/001532_2014-06-20_16-50-41_260595134347_rgbf000081-resize_4-target.png,1000,1.9765,1.5758333333333,1,1803,1006,1003,996,1002,498,,295355,41,Man
264923,DepthScenes,v2_duration_discrimination,discrim_jsons/v2_shuffled_g0_rotated.json,http://54.210.137.18/DepthDuration/v2_depth_discrimination_MTurk/v2_DepthDiscrim_HTML.html#3,3,1920,937,1920,1080,10-18-2021,11-2-5,6,depth_discrimination_stimuli/001056_2014-06-08_18-46-44_260595134347_rgbf000068-resize_0/001056_2014-06-08_18-46-44_260595134347_rgbf000068-resize_0-target.png,depth_discrimination_stimuli/000749_2014-06-08_21-55-06_260595134347_rgbf000070-resize_2/000749_2014-06-08_21-55-06_260595134347_rgbf000070-resize_2-target.png,1000,2.6625,2.331,0,2710,1015,997,996,1007,495,,295355,41,Man
264923,DepthScenes,v2_duration_discrimination,discrim_jsons/v2_shuffled_g0_rotated.json,http://54.210.137.18/DepthDuration/v2_depth_discrimination_MTurk/v2_DepthDiscrim_HTML.html#3,3,1920,937,1920,1080,10-18-2021,11-2-5,7,depth_discrimination_stimuli/000869_2014-06-09_20-50-18_260595134347_rgbf000060-resize_3/000869_2014-06-09_20-50-18_260595134347_rgbf000060-resize_3-target.png,depth_discrimination_stimuli/000800_2014-06-08_22-42-09_260595134347_rgbf000095-resize_3/000800_2014-06-08_22-42-09_260595134347_rgbf000095-resize_3-target.png,1000,2.266,2.8,0,1797,1009,999,1001,1004,495,,295355,41,Man
264923,DepthScenes,v2_duration_discrimination,discrim_jsons/v2_shuffled_g0_rotated.json,http://54.210.137.18/DepthDuration/v2_depth_discrimination_MTurk/v2_DepthDiscrim_HTML.html#3,3,1920,937,1920,1080,10-18-2021,11-2-5,8,depth_discrimination_stimuli/002444_2014-06-28_20-32-08_260595134347_rgbf000027-resize_0/002444_2014-06-28_20-32-08_260595134347_rgbf000027-resize_0-target.png,depth_discrimination_stimuli/002103_2014-06-25_20-00-40_260595134347_rgbf000049-resize_0/002103_2014-06-25_20-00-40_260595134347_rgbf000049-resize_0-target.png,250,4.389,4.105,1,1360,1013,251,991,247,503,,295355,41,Man
264923,DepthScenes,v2_duration_discrimination,discrim_jsons/v2_shuffled_g0_rotated.json,http://54.210.137.18/DepthDuration/v2_depth_discrimination_MTurk/v2_DepthDiscrim_HTML.html#3,3,1920,937,1920,1080,10-18-2021,11-2-5,9,depth_discrimination_stimuli/001011_2014-06-08_23-18-54_260595134347_rgbf000044-resize_4/001011_2014-06-08_23-18-54_260595134347_rgbf000044-resize_4-target.png,depth_discrimination_stimuli/002043_2014-06-24_20-29-38_260595134347_rgbf000039-resize_4/002043_2014-06-24_20-29-38_260595134347_rgbf000039-resize_4-target.png,250,2.473,2.8435,0,1417,1007,245,1003,248,500,,295355,41,Man
264923,DepthScenes,v2_duration_discrimination,discrim_jsons/v2_shuffled_g0_rotated.json,http://54.210.137.18/DepthDuration/v2_depth_discrimination_MTurk/v2_DepthDiscrim_HTML.html#3,3,1920,937,1920,1080,10-18-2021,11-2-5,10,depth_discrimination_stimuli/000454_2014-06-08_16-37-28_260595134347_rgbf000048-resize_2/000454_2014-06-08_16-37-28_260595134347_rgbf000048-resize_2-target.png,depth_discrimination_stimuli/000454_2014-06-08_16-37-28_260595134347_rgbf000048-resize_2/000454_2014-06-08_16-37-28_260595134347_rgbf000048-resize_2-target.png,1000,1.213,1.213,3,1919,1012,990,1012,989,508,,295355,41,Man
264923,DepthScenes,v2_duration_discrimination,discrim_jsons/v2_shuffled_g0_rotated.json,http://54.210.137.18/DepthDuration/v2_depth_discrimination_MTurk/v2_DepthDiscrim_HTML.html#3,3,1920,937,1920,1080,10-18-2021,11-2-5,11,depth_discrimination_stimuli/002039_2014-06-24_20-22-38_260595134347_rgbf000084-resize_1/002039_2014-06-24_20-22-38_260595134347_rgbf000084-resize_1-target.png,depth_discrimination_stimuli/000691_2014-06-08_13-08-50_260595134347_rgbf000132-resize_3/000691_2014-06-08_13-08-50_260595134347_rgbf000132-resize_3-target.png,1000,4.408,4.153,1,3033,1006,1008,991,1008,491,,295355,41,Man
264923,DepthScenes,v2_duration_discrimination,discrim_jsons/v2_shuffled_g0_rotated.json,http://54.210.137.18/DepthDuration/v2_depth_discrimination_MTurk/v2_DepthDiscrim_HTML.html#3,3,1920,937,1920,1080,10-18-2021,11-2-5,12,depth_discrimination_stimuli/000709_2014-06-08_13-51-55_260595134347_rgbf000068-resize_3/000709_2014-06-08_13-51-55_260595134347_rgbf000068-resize_3-target.png,depth_discrimination_stimuli/003587_2014-05-23_16-48-02_094959634447_rgbf002384-resize_2/003587_2014-05-23_16-48-02_094959634447_rgbf002384-resize_2-target.png,1000,1.803,1.357,1,1919,1015,1000,1001,996,492,,295355,41,Man
264923,DepthScenes,v2_duration_discrimination,discrim_jsons/v2_shuffled_g0_rotated.json,http://54.210.137.18/DepthDuration/v2_depth_discrimination_MTurk/v2_DepthDiscrim_HTML.html#3,3,1920,937,1920,1080,10-18-2021,11-2-5,13,depth_discrimination_stimuli/002905_2014-06-03_18-04-43_094959634447_rgbf000151-resize_2/002905_2014-06-03_18-04-43_094959634447_rgbf000151-resize_2-target.png,depth_discrimination_stimuli/002340_2014-06-28_20-05-46_260595134347_rgbf000113-resize_0/002340_2014-06-28_20-05-46_260595134347_rgbf000113-resize_0-target.png,1000,2.0295,2.4735,0,1899,1008,999,996,1011,487,,295355,41,Man
264923,DepthScenes,v2_duration_discrimination,discrim_jsons/v2_shuffled_g0_rotated.json,http://54.210.137.18/DepthDuration/v2_depth_discrimination_MTurk/v2_DepthDiscrim_HTML.html#3,3,1920,937,1920,1080,10-18-2021,11-2-5,14,depth_discrimination_stimuli/000409_2014-06-04_19-23-33_260595134347_rgbf000067-resize_0/000409_2014-06-04_19-23-33_260595134347_rgbf000067-resize_0-target.png,depth_discrimination_stimuli/000493_2014-06-09_21-01-18_260595134347_rgbf000196-resize_3/000493_2014-06-09_21-01-18_260595134347_rgbf000196-resize_3-target.png,250,3.7335,3.44,0,1624,1008,258,998,251,487,,295355,41,Man
264923,DepthScenes,v2_duration_discrimination,discrim_jsons/v2_shuffled_g0_rotated.json,http://54.210.137.18/DepthDuration/v2_depth_discrimination_MTurk/v2_DepthDiscrim_HTML.html#3,3,1920,937,1920,1080,10-18-2021,11-2-5,15,depth_discrimination_stimuli/002675_2014-06-13_16-08-49_094959634447_rgbf000151-resize_2/002675_2014-06-13_16-08-49_094959634447_rgbf000151-resize_2-target.png,depth_discrimination_stimuli/002675_2014-06-13_16-08-49_094959634447_rgbf000151-resize_2/002675_2014-06-13_16-08-49_094959634447_rgbf000151-resize_2-target.png,1000,4.5065,4.5065,3,1891,1009,994,1000,1001,503,,295355,41,Man
264923,DepthScenes,v2_duration_discrimination,discrim_jsons/v2_shuffled_g0_rotated.json,http://54.210.137.18/DepthDuration/v2_depth_discrimination_MTurk/v2_DepthDiscrim_HTML.html#3,3,1920,937,1920,1080,10-18-2021,11-2-5,16,depth_discrimination_stimuli/001016_2014-06-09_16-16-10_260595134347_rgbf000112-resize_5/001016_2014-06-09_16-16-10_260595134347_rgbf000112-resize_5-target.png,depth_discrimination_stimuli/002199_2014-06-28_18-33-56_260595134347_rgbf000074-resize_0/002199_2014-06-28_18-33-56_260595134347_rgbf000074-resize_0-target.png,250,1.6565,1.996,1,1162,1015,249,996,254,500,,295355,41,Man
264923,DepthScenes,v2_duration_discrimination,discrim_jsons/v2_shuffled_g0_rotated.json,http://54.210.137.18/DepthDuration/v2_depth_discrimination_MTurk/v2_DepthDiscrim_HTML.html#3,3,1920,937,1920,1080,10-18-2021,11-2-5,17,depth_discrimination_stimuli/000470_2014-06-09_19-42-40_260595134347_rgbf000094-resize_1/000470_2014-06-09_19-42-40_260595134347_rgbf000094-resize_1-target.png,depth_discrimination_stimuli/002953_2014-06-08_17-32-18_094959634447_rgbf000059-resize_5/002953_2014-06-08_17-32-18_094959634447_rgbf000059-resize_5-target.png,250,1.831,1.551,1,1256,1005,250,1007,250,500,,295355,41,Man
264923,DepthScenes,v2_duration_discrimination,discrim_jsons/v2_shuffled_g0_rotated.json,http://54.210.137.18/DepthDuration/v2_depth_discrimination_MTurk/v2_DepthDiscrim_HTML.html#3,3,1920,937,1920,1080,10-18-2021,11-2-5,18,depth_discrimination_stimuli/000569_2014-06-09_22-51-47_260595134347_rgbf000141-resize_3/000569_2014-06-09_22-51-47_260595134347_rgbf000141-resize_3-target.png,depth_discrimination_stimuli/000569_2014-06-09_22-51-47_260595134347_rgbf000141-resize_3/000569_2014-06-09_22-51-47_260595134347_rgbf000141-resize_3-target.png,250,4.512,4.512,3,1165,1008,246,1004,250,494,,295355,41,Man
264923,DepthScenes,v2_duration_discrimination,discrim_jsons/v2_shuffled_g0_rotated.json,http://54.210.137.18/DepthDuration/v2_depth_discrimination_MTurk/v2_DepthDiscrim_HTML.html#3,3,1920,937,1920,1080,10-18-2021,11-2-5,19,depth_discrimination_stimuli/001055_2014-06-08_18-45-35_260595134347_rgbf000111-resize_4/001055_2014-06-08_18-45-35_260595134347_rgbf000111-resize_4-target.png,depth_discrimination_stimuli/000929_2014-06-09_16-33-19_260595134347_rgbf000139-resize_0/000929_2014-06-09_16-33-19_260595134347_rgbf000139-resize_0-target.png,1000,2.429,2.868,1,2777,1007,1005,994,1005,494,,295355,41,Man
264923,DepthScenes,v2_duration_discrimination,discrim_jsons/v2_shuffled_g0_rotated.json,http://54.210.137.18/DepthDuration/v2_depth_discrimination_MTurk/v2_DepthDiscrim_HTML.html#3,3,1920,937,1920,1080,10-18-2021,11-2-5,20,depth_discrimination_stimuli/001164_2014-06-17_15-35-46_260595134347_rgbf000085-resize_3/001164_2014-06-17_15-35-46_260595134347_rgbf000085-resize_3-target.png,depth_discrimination_stimuli/002118_2014-06-25_20-32-08_260595134347_rgbf000078-resize_1/002118_2014-06-25_20-32-08_260595134347_rgbf000078-resize_1-target.png,1000,2.354,2.646,0,2106,1005,999,1002,999,507,,295355,41,Man
264923,DepthScenes,v2_duration_discrimination,discrim_jsons/v2_shuffled_g0_rotated.json,http://54.210.137.18/DepthDuration/v2_depth_discrimination_MTurk/v2_DepthDiscrim_HTML.html#3,3,1920,937,1920,1080,10-18-2021,11-2-5,21,depth_discrimination_stimuli/000866_2014-06-09_20-45-42_260595134347_rgbf000139-resize_1/000866_2014-06-09_20-45-42_260595134347_rgbf000139-resize_1-target.png,depth_discrimination_stimuli/003490_2014-05-21_15-50-11_094959634447_rgbf000101-resize_3/003490_2014-05-21_15-50-11_094959634447_rgbf000101-resize_3-target.png,1000,3.2155,3.6445,0,1908,1016,993,994,1005,507,,295355,41,Man
264923,DepthScenes,v2_duration_discrimination,discrim_jsons/v2_shuffled_g0_rotated.json,http://54.210.137.18/DepthDuration/v2_depth_discrimination_MTurk/v2_DepthDiscrim_HTML.html#3,3,1920,937,1920,1080,10-18-2021,11-2-5,22,depth_discrimination_stimuli/001584_2014-06-20_11-07-43_260595134347_rgbf000002-resize_1/001584_2014-06-20_11-07-43_260595134347_rgbf000002-resize_1-target.png,depth_discrimination_stimuli/002805_2014-06-22_19-54-03_094959634447_rgbf000079-resize_1/002805_2014-06-22_19-54-03_094959634447_rgbf000079-resize_1-target.png,250,3.53,3.144,0,1514,1008,249,1005,245,501,,295355,41,Man
264923,DepthScenes,v2_duration_discrimination,discrim_jsons/v2_shuffled_g0_rotated.json,http://54.210.137.18/DepthDuration/v2_depth_discrimination_MTurk/v2_DepthDiscrim_HTML.html#3,3,1920,937,1920,1080,10-18-2021,11-2-5,23,depth_discrimination_stimuli/002414_2014-06-28_20-24-58_260595134347_rgbf000067-resize_4/002414_2014-06-28_20-24-58_260595134347_rgbf000067-resize_4-target.png,depth_discrimination_stimuli/001450_2014-06-19_17-02-03_260595134347_rgbf000203-resize_4/001450_2014-06-19_17-02-03_260595134347_rgbf000203-resize_4-target.png,250,4.363,4.0106666666667,0,1728,1001,260,1001,249,502,,295355,41,Man
264923,DepthScenes,v2_duration_discrimination,discrim_jsons/v2_shuffled_g0_rotated.json,http://54.210.137.18/DepthDuration/v2_depth_discrimination_MTurk/v2_DepthDiscrim_HTML.html#3,3,1920,937,1920,1080,10-18-2021,11-2-5,24,depth_discrimination_stimuli/002072_2014-06-24_21-48-06_260595134347_rgbf000115-resize_0/002072_2014-06-24_21-48-06_260595134347_rgbf000115-resize_0-target.png,depth_discrimination_stimuli/002072_2014-06-24_21-48-06_260595134347_rgbf000115-resize_0/002072_2014-06-24_21-48-06_260595134347_rgbf000115-resize_0-target.png,250,4.702,4.702,3,1106,1008,245,1000,255,497,,295355,41,Man
264923,DepthScenes,v2_duration_discrimination,discrim_jsons/v2_shuffled_g0_rotated.json,http://54.210.137.18/DepthDuration/v2_depth_discrimination_MTurk/v2_DepthDiscrim_HTML.html#3,3,1920,937,1920,1080,10-18-2021,11-2-5,25,depth_discrimination_stimuli/001498_2014-06-19_17-45-14_260595134347_rgbf000129-resize_4/001498_2014-06-19_17-45-14_260595134347_rgbf000129-resize_4-target.png,depth_discrimination_stimuli/001498_2014-06-19_17-45-14_260595134347_rgbf000129-resize_4/001498_2014-06-19_17-45-14_260595134347_rgbf000129-resize_4-target.png,1000,1.4075,1.4075,3,1787,1009,1000,1003,999,497,,295355,41,Man
264923,DepthScenes,v2_duration_discrimination,discrim_jsons/v2_shuffled_g0_rotated.json,http://54.210.137.18/DepthDuration/v2_depth_discrimination_MTurk/v2_DepthDiscrim_HTML.html#3,3,1920,937,1920,1080,10-18-2021,11-2-5,26,depth_discrimination_stimuli/002949_2014-06-26_15-57-42_094959634447_rgbf000079-resize_1/002949_2014-06-26_15-57-42_094959634447_rgbf000079-resize_1-target.png,depth_discrimination_stimuli/003495_2014-05-21_16-01-51_094959634447_rgbf000100-resize_3/003495_2014-05-21_16-01-51_094959634447_rgbf000100-resize_3-target.png,250,1.8915,1.6255,1,1137,1010,250,994,255,500,,295355,41,Man
264923,DepthScenes,v2_duration_discrimination,discrim_jsons/v2_shuffled_g0_rotated.json,http://54.210.137.18/DepthDuration/v2_depth_discrimination_MTurk/v2_DepthDiscrim_HTML.html#3,3,1920,937,1920,1080,10-18-2021,11-2-5,27,depth_discrimination_stimuli/001136_2014-06-17_15-19-41_260595134347_rgbf000076-resize_3/001136_2014-06-17_15-19-41_260595134347_rgbf000076-resize_3-target.png,depth_discrimination_stimuli/002549_2014-06-24_13-41-39_094959634447_rgbf000022-resize_3/002549_2014-06-24_13-41-39_094959634447_rgbf000022-resize_3-target.png,1000,1.8655,1.476,1,1901,1003,1003,995,1001,497,,295355,41,Man
264923,DepthScenes,v2_duration_discrimination,discrim_jsons/v2_shuffled_g0_rotated.json,http://54.210.137.18/DepthDuration/v2_depth_discrimination_MTurk/v2_DepthDiscrim_HTML.html#3,3,1920,937,1920,1080,10-18-2021,11-2-5,28,depth_discrimination_stimuli/002509_2014-06-24_13-19-22_094959634447_rgbf000077-resize_0/002509_2014-06-24_13-19-22_094959634447_rgbf000077-resize_0-target.png,depth_discrimination_stimuli/000549_2014-06-08_22-10-24_260595134347_rgbf000247-resize_3/000549_2014-06-08_22-10-24_260595134347_rgbf000247-resize_3-target.png,1000,1.3065,1.841,1,1911,1013,991,1010,991,510,,295355,41,Man
264923,DepthScenes,v2_duration_discrimination,discrim_jsons/v2_shuffled_g0_rotated.json,http://54.210.137.18/DepthDuration/v2_depth_discrimination_MTurk/v2_DepthDiscrim_HTML.html#3,3,1920,937,1920,1080,10-18-2021,11-2-5,29,depth_discrimination_stimuli/000542_2014-06-08_18-27-08_260595134347_rgbf000118-resize_1/000542_2014-06-08_18-27-08_260595134347_rgbf000118-resize_1-target.png,depth_discrimination_stimuli/003292_2014-05-14_21-53-49_094959634447_rgbf000100-resize_2/003292_2014-05-14_21-53-49_094959634447_rgbf000100-resize_2-target.png,1000,3,3.4815,1,2321,1006,1005,995,1016,489,,295355,41,Man
264923,DepthScenes,v2_duration_discrimination,discrim_jsons/v2_shuffled_g0_rotated.json,http://54.210.137.18/DepthDuration/v2_depth_discrimination_MTurk/v2_DepthDiscrim_HTML.html#3,3,1920,937,1920,1080,10-18-2021,11-2-5,30,depth_discrimination_stimuli/001148_2014-06-17_15-26-42_260595134347_rgbf000129-resize_0/001148_2014-06-17_15-26-42_260595134347_rgbf000129-resize_0-target.png,depth_discrimination_stimuli/000556_2014-06-09_22-42-56_260595134347_rgbf000214-resize_1/000556_2014-06-09_22-42-56_260595134347_rgbf000214-resize_1-target.png,1000,4.368,4.8415,1,1881,1007,999,1007,991,504,,295355,41,Man
264923,DepthScenes,v2_duration_discrimination,discrim_jsons/v2_shuffled_g0_rotated.json,http://54.210.137.18/DepthDuration/v2_depth_discrimination_MTurk/v2_DepthDiscrim_HTML.html#3,3,1920,937,1920,1080,10-18-2021,11-2-5,31,depth_discrimination_stimuli/001181_2014-06-17_15-50-57_260595134347_rgbf000106-resize_4/001181_2014-06-17_15-50-57_260595134347_rgbf000106-resize_4-target.png,depth_discrimination_stimuli/001158_2014-06-17_15-32-16_260595134347_rgbf000138-resize_2/001158_2014-06-17_15-32-16_260595134347_rgbf000138-resize_2-target.png,250,4.149,4.5315,1,1634,1000,250,1002,252,503,,295355,41,Man
264923,DepthScenes,v2_duration_discrimination,discrim_jsons/v2_shuffled_g0_rotated.json,http://54.210.137.18/DepthDuration/v2_depth_discrimination_MTurk/v2_DepthDiscrim_HTML.html#3,3,1920,937,1920,1080,10-18-2021,11-2-5,32,depth_discrimination_stimuli/001235_2014-06-17_16-37-36_260595134347_rgbf000084-resize_4/001235_2014-06-17_16-37-36_260595134347_rgbf000084-resize_4-target.png,depth_discrimination_stimuli/001197_2014-06-17_16-01-50_260595134347_rgbf000103-resize_4/001197_2014-06-17_16-01-50_260595134347_rgbf000103-resize_4-target.png,250,3.6605,3.4025,1,1409,1015,237,1002,261,492,,295355,41,Man
264923,DepthScenes,v2_duration_discrimination,discrim_jsons/v2_shuffled_g0_rotated.json,http://54.210.137.18/DepthDuration/v2_depth_discrimination_MTurk/v2_DepthDiscrim_HTML.html#3,3,1920,937,1920,1080,10-18-2021,11-2-5,33,depth_discrimination_stimuli/001032_2014-06-08_13-23-17_260595134347_rgbf000021-resize_3/001032_2014-06-08_13-23-17_260595134347_rgbf000021-resize_3-target.png,depth_discrimination_stimuli/002323_2014-06-28_20-01-54_260595134347_rgbf000051-resize_4/002323_2014-06-28_20-01-54_260595134347_rgbf000051-resize_4-target.png,250,3.2725,3.731,0,1289,1011,250,992,261,496,,295355,41,Man
264923,DepthScenes,v2_duration_discrimination,discrim_jsons/v2_shuffled_g0_rotated.json,http://54.210.137.18/DepthDuration/v2_depth_discrimination_MTurk/v2_DepthDiscrim_HTML.html#3,3,1920,937,1920,1080,10-18-2021,11-2-5,34,depth_discrimination_stimuli/003395_2014-05-20_15-39-18_094959634447_rgbf000101-resize_0/003395_2014-05-20_15-39-18_094959634447_rgbf000101-resize_0-target.png,depth_discrimination_stimuli/003395_2014-05-20_15-39-18_094959634447_rgbf000101-resize_0/003395_2014-05-20_15-39-18_094959634447_rgbf000101-resize_0-target.png,1000,4.835,4.835,3,1887,1007,1007,1001,984,511,,295355,41,Man
264923,DepthScenes,v2_duration_discrimination,discrim_jsons/v2_shuffled_g0_rotated.json,http://54.210.137.18/DepthDuration/v2_depth_discrimination_MTurk/v2_DepthDiscrim_HTML.html#3,3,1920,937,1920,1080,10-18-2021,11-2-5,35,depth_discrimination_stimuli/001170_2014-06-17_15-43-44_260595134347_rgbf000096-resize_6/001170_2014-06-17_15-43-44_260595134347_rgbf000096-resize_6-target.png,depth_discrimination_stimuli/001170_2014-06-17_15-43-44_260595134347_rgbf000096-resize_6/001170_2014-06-17_15-43-44_260595134347_rgbf000096-resize_6-target.png,250,1.191,1.191,3,1078,1006,249,1001,246,500,,295355,41,Man
264923,DepthScenes,v2_duration_discrimination,discrim_jsons/v2_shuffled_g0_rotated.json,http://54.210.137.18/DepthDuration/v2_depth_discrimination_MTurk/v2_DepthDiscrim_HTML.html#3,3,1920,937,1920,1080,10-18-2021,11-2-5,36,depth_discrimination_stimuli/000137_2014-05-20_17-04-49_260595134347_rgbf000120-resize_1/000137_2014-05-20_17-04-49_260595134347_rgbf000120-resize_1-target.png,depth_discrimination_stimuli/003423_2014-05-21_10-23-26_094959634447_rgbf002665-resize_2/003423_2014-05-21_10-23-26_094959634447_rgbf002665-resize_2-target.png,250,3.786,3.2575,1,1860,1007,245,1007,250,491,,295355,41,Man
264923,DepthScenes,v2_duration_discrimination,discrim_jsons/v2_shuffled_g0_rotated.json,http://54.210.137.18/DepthDuration/v2_depth_discrimination_MTurk/v2_DepthDiscrim_HTML.html#3,3,1920,937,1920,1080,10-18-2021,11-2-5,37,depth_discrimination_stimuli/002678_2014-06-13_16-15-32_094959634447_rgbf000151-resize_6/002678_2014-06-13_16-15-32_094959634447_rgbf000151-resize_6-target.png,depth_discrimination_stimuli/000927_2014-06-09_16-32-30_260595134347_rgbf000123-resize_3/000927_2014-06-09_16-32-30_260595134347_rgbf000123-resize_3-target.png,250,2.183,2.6785,1,1166,1014,252,999,251,500,,295355,41,Man
264923,DepthScenes,v2_duration_discrimination,discrim_jsons/v2_shuffled_g0_rotated.json,http://54.210.137.18/DepthDuration/v2_depth_discrimination_MTurk/v2_DepthDiscrim_HTML.html#3,3,1920,937,1920,1080,10-18-2021,11-2-5,38,depth_discrimination_stimuli/002748_2014-06-22_19-07-22_094959634447_rgbf000078-resize_1/002748_2014-06-22_19-07-22_094959634447_rgbf000078-resize_1-target.png,depth_discrimination_stimuli/001808_2014-06-26_20-50-58_260595134347_rgbf000029-resize_1/001808_2014-06-26_20-50-58_260595134347_rgbf000029-resize_1-target.png,250,4.6705,4.249,0,1921,1015,235,1003,261,499,,295355,41,Man
264923,DepthScenes,v2_duration_discrimination,discrim_jsons/v2_shuffled_g0_rotated.json,http://54.210.137.18/DepthDuration/v2_depth_discrimination_MTurk/v2_DepthDiscrim_HTML.html#3,3,1920,937,1920,1080,10-18-2021,11-2-5,39,depth_discrimination_stimuli/001133_2014-06-17_14-49-16_260595134347_rgbf000100-resize_0/001133_2014-06-17_14-49-16_260595134347_rgbf000100-resize_0-target.png,depth_discrimination_stimuli/002467_2014-06-28_20-38-07_260595134347_rgbf000026-resize_2/002467_2014-06-28_20-38-07_260595134347_rgbf000026-resize_2-target.png,250,4.2115,4.742,0,1374,1005,259,993,248,505,,295355,41,Man
264923,DepthScenes,v2_duration_discrimination,discrim_jsons/v2_shuffled_g0_rotated.json,http://54.210.137.18/DepthDuration/v2_depth_discrimination_MTurk/v2_DepthDiscrim_HTML.html#3,3,1920,937,1920,1080,10-18-2021,11-2-5,40,depth_discrimination_stimuli/003081_2014-06-15_15-19-16_094959634447_rgbf000150-resize_1/003081_2014-06-15_15-19-16_094959634447_rgbf000150-resize_1-target.png,depth_discrimination_stimuli/002660_2014-06-13_15-44-18_094959634447_rgbf001878-resize_2/002660_2014-06-13_15-44-18_094959634447_rgbf001878-resize_2-target.png,1000,3.9125,3.576,1,2038,1016,993,1000,1001,496,,295355,41,Man
264923,DepthScenes,v2_duration_discrimination,discrim_jsons/v2_shuffled_g0_rotated.json,http://54.210.137.18/DepthDuration/v2_depth_discrimination_MTurk/v2_DepthDiscrim_HTML.html#3,3,1920,937,1920,1080,10-18-2021,11-2-5,40,,,,,,,2038,1016,993,1000,1001,496,,295355,41,Man
