subjID,experimentName,versionName,sequenceName,url,selected_row,windowWidth,windowHeight,screenWidth,screenHeight,startDate,startTime,trial,stimulus_0,stimulus_1,duration,actual_depth_0,actual_depth_1,discrim_choice,trial_RT,log_fixation,log_sceneDuration1,log_mask1,log_sceneDuration2,log_mask2,experimentTime,totalTime,age,gender
486536,DepthScenes,v2_duration_discrimination,discrim_jsons/v2_shuffled_g0_dr.json,http://54.210.137.18/DepthDuration/v2_depth_discrimination_MTurk/v2_DepthDiscrim_HTML.html#1,1,1366,625,1366,768,10-18-2021,7-2-5,1,depth_discrimination_stimuli/001618_2014-06-20_11-37-31_260595134347_rgbf000027-resize_3/001618_2014-06-20_11-37-31_260595134347_rgbf000027-resize_3-target.png,depth_discrimination_stimuli/000109_2014-05-14_23-41-52_260595134347_rgbf000035-resize_9/000109_2014-05-14_23-41-52_260595134347_rgbf000035-resize_9-target.png,1000,1.8725,1.3545,0,1980,1004,997,999,999,500,,789888,38,Man
486536,DepthScenes,v2_duration_discrimination,discrim_jsons/v2_shuffled_g0_dr.json,http://54.210.137.18/DepthDuration/v2_depth_discrimination_MTurk/v2_DepthDiscrim_HTML.html#1,1,1366,625,1366,768,10-18-2021,7-2-5,2,depth_discrimination_stimuli/002103_2014-06-25_20-00-40_260595134347_rgbf000049-resize_0/002103_2014-06-25_20-00-40_260595134347_rgbf000049-resize_0-target.png,depth_discrimination_stimuli/002444_2014-06-28_20-32-08_260595134347_rgbf000027-resize_0/002444_2014-06-28_20-32-08_260595134347_rgbf000027-resize_0-target.png,1000,4.105,4.389,1,7495,1001,999,1000,999,500,,789888,38,Man
486536,DepthScenes,v2_duration_discrimination,discrim_jsons/v2_shuffled_g0_dr.json,http://54.210.137.18/DepthDuration/v2_depth_discrimination_MTurk/v2_DepthDiscrim_HTML.html#1,1,1366,625,1366,768,10-18-2021,7-2-5,3,depth_discrimination_stimuli/000800_2014-06-08_22-42-09_260595134347_rgbf000095-resize_3/000800_2014-06-08_22-42-09_260595134347_rgbf000095-resize_3-target.png,depth_discrimination_stimuli/000869_2014-06-09_20-50-18_260595134347_rgbf000060-resize_3/000869_2014-06-09_20-50-18_260595134347_rgbf000060-resize_3-target.png,250,2.8,2.266,0,4380,1001,249,1000,249,500,,789888,38,Man
486536,DepthScenes,v2_duration_discrimination,discrim_jsons/v2_shuffled_g0_dr.json,http://54.210.137.18/DepthDuration/v2_depth_discrimination_MTurk/v2_DepthDiscrim_HTML.html#1,1,1366,625,1366,768,10-18-2021,7-2-5,4,depth_discrimination_stimuli/001092_2014-06-15_17-34-58_260595134347_rgbf000171-resize_3/001092_2014-06-15_17-34-58_260595134347_rgbf000171-resize_3-target.png,depth_discrimination_stimuli/000502_2014-06-08_23-02-32_260595134347_rgbf000063-resize_4/000502_2014-06-08_23-02-32_260595134347_rgbf000063-resize_4-target.png,250,2.6935,2.431,0,4122,1221,143,1052,78,500,,789888,38,Man
486536,DepthScenes,v2_duration_discrimination,discrim_jsons/v2_shuffled_g0_dr.json,http://54.210.137.18/DepthDuration/v2_depth_discrimination_MTurk/v2_DepthDiscrim_HTML.html#1,1,1366,625,1366,768,10-18-2021,7-2-5,5,depth_discrimination_stimuli/000953_2014-06-08_11-42-19_260595134347_rgbf000083-resize_0/000953_2014-06-08_11-42-19_260595134347_rgbf000083-resize_0-target.png,depth_discrimination_stimuli/000953_2014-06-08_11-42-19_260595134347_rgbf000083-resize_0/000953_2014-06-08_11-42-19_260595134347_rgbf000083-resize_0-target.png,250,1.369,1.369,1,8254,1039,202,999,307,535,,789888,38,Man
486536,DepthScenes,v2_duration_discrimination,discrim_jsons/v2_shuffled_g0_dr.json,http://54.210.137.18/DepthDuration/v2_depth_discrimination_MTurk/v2_DepthDiscrim_HTML.html#1,1,1366,625,1366,768,10-18-2021,7-2-5,6,depth_discrimination_stimuli/003083_2014-06-15_15-21-03_094959634447_rgbf000063-resize_1/003083_2014-06-15_15-21-03_094959634447_rgbf000063-resize_1-target.png,depth_discrimination_stimuli/000742_2014-06-08_18-48-09_260595134347_rgbf000164-resize_4/000742_2014-06-08_18-48-09_260595134347_rgbf000164-resize_4-target.png,1000,4.1405,4.632,0,1640,1189,842,983,990,496,,789888,38,Man
486536,DepthScenes,v2_duration_discrimination,discrim_jsons/v2_shuffled_g0_dr.json,http://54.210.137.18/DepthDuration/v2_depth_discrimination_MTurk/v2_DepthDiscrim_HTML.html#1,1,1366,625,1366,768,10-18-2021,7-2-5,7,depth_discrimination_stimuli/000749_2014-06-08_21-55-06_260595134347_rgbf000070-resize_2/000749_2014-06-08_21-55-06_260595134347_rgbf000070-resize_2-target.png,depth_discrimination_stimuli/001056_2014-06-08_18-46-44_260595134347_rgbf000068-resize_0/001056_2014-06-08_18-46-44_260595134347_rgbf000068-resize_0-target.png,250,2.331,2.6625,0,24662,1102,149,998,249,573,,789888,38,Man
486536,DepthScenes,v2_duration_discrimination,discrim_jsons/v2_shuffled_g0_dr.json,http://54.210.137.18/DepthDuration/v2_depth_discrimination_MTurk/v2_DepthDiscrim_HTML.html#1,1,1366,625,1366,768,10-18-2021,7-2-5,8,depth_discrimination_stimuli/002043_2014-06-24_20-29-38_260595134347_rgbf000039-resize_4/002043_2014-06-24_20-29-38_260595134347_rgbf000039-resize_4-target.png,depth_discrimination_stimuli/001011_2014-06-08_23-18-54_260595134347_rgbf000044-resize_4/001011_2014-06-08_23-18-54_260595134347_rgbf000044-resize_4-target.png,1000,2.8435,2.473,0,11074,1018,1014,1530,565,559,,789888,38,Man
486536,DepthScenes,v2_duration_discrimination,discrim_jsons/v2_shuffled_g0_dr.json,http://54.210.137.18/DepthDuration/v2_depth_discrimination_MTurk/v2_DepthDiscrim_HTML.html#1,1,1366,625,1366,768,10-18-2021,7-2-5,9,depth_discrimination_stimuli/000454_2014-06-08_16-37-28_260595134347_rgbf000048-resize_2/000454_2014-06-08_16-37-28_260595134347_rgbf000048-resize_2-target.png,depth_discrimination_stimuli/000454_2014-06-08_16-37-28_260595134347_rgbf000048-resize_2/000454_2014-06-08_16-37-28_260595134347_rgbf000048-resize_2-target.png,1000,1.213,1.213,0,18799,1033,961,1001,1146,378,,789888,38,Man
486536,DepthScenes,v2_duration_discrimination,discrim_jsons/v2_shuffled_g0_dr.json,http://54.210.137.18/DepthDuration/v2_depth_discrimination_MTurk/v2_DepthDiscrim_HTML.html#1,1,1366,625,1366,768,10-18-2021,7-2-5,10,depth_discrimination_stimuli/001532_2014-06-20_16-50-41_260595134347_rgbf000081-resize_4/001532_2014-06-20_16-50-41_260595134347_rgbf000081-resize_4-target.png,depth_discrimination_stimuli/000943_2014-06-09_19-31-07_260595134347_rgbf000128-resize_1/000943_2014-06-09_19-31-07_260595134347_rgbf000128-resize_1-target.png,250,1.5758333333333,1.9765,0,18289,1002,249,1000,249,503,,789888,38,Man
486536,DepthScenes,v2_duration_discrimination,discrim_jsons/v2_shuffled_g0_dr.json,http://54.210.137.18/DepthDuration/v2_depth_discrimination_MTurk/v2_DepthDiscrim_HTML.html#1,1,1366,625,1366,768,10-18-2021,7-2-5,11,depth_discrimination_stimuli/002340_2014-06-28_20-05-46_260595134347_rgbf000113-resize_0/002340_2014-06-28_20-05-46_260595134347_rgbf000113-resize_0-target.png,depth_discrimination_stimuli/002905_2014-06-03_18-04-43_094959634447_rgbf000151-resize_2/002905_2014-06-03_18-04-43_094959634447_rgbf000151-resize_2-target.png,250,2.4735,2.0295,0,17364,1001,249,1002,244,558,,789888,38,Man
486536,DepthScenes,v2_duration_discrimination,discrim_jsons/v2_shuffled_g0_dr.json,http://54.210.137.18/DepthDuration/v2_depth_discrimination_MTurk/v2_DepthDiscrim_HTML.html#1,1,1366,625,1366,768,10-18-2021,7-2-5,12,depth_discrimination_stimuli/000691_2014-06-08_13-08-50_260595134347_rgbf000132-resize_3/000691_2014-06-08_13-08-50_260595134347_rgbf000132-resize_3-target.png,depth_discrimination_stimuli/002039_2014-06-24_20-22-38_260595134347_rgbf000084-resize_1/002039_2014-06-24_20-22-38_260595134347_rgbf000084-resize_1-target.png,250,4.153,4.408,1,1881,1137,289,824,249,1261,,789888,38,Man
486536,DepthScenes,v2_duration_discrimination,discrim_jsons/v2_shuffled_g0_dr.json,http://54.210.137.18/DepthDuration/v2_depth_discrimination_MTurk/v2_DepthDiscrim_HTML.html#1,1,1366,625,1366,768,10-18-2021,7-2-5,13,depth_discrimination_stimuli/000569_2014-06-09_22-51-47_260595134347_rgbf000141-resize_3/000569_2014-06-09_22-51-47_260595134347_rgbf000141-resize_3-target.png,depth_discrimination_stimuli/000569_2014-06-09_22-51-47_260595134347_rgbf000141-resize_3/000569_2014-06-09_22-51-47_260595134347_rgbf000141-resize_3-target.png,250,4.512,4.512,0,15561,1009,246,1000,428,321,,789888,38,Man
486536,DepthScenes,v2_duration_discrimination,discrim_jsons/v2_shuffled_g0_dr.json,http://54.210.137.18/DepthDuration/v2_depth_discrimination_MTurk/v2_DepthDiscrim_HTML.html#1,1,1366,625,1366,768,10-18-2021,7-2-5,14,depth_discrimination_stimuli/003587_2014-05-23_16-48-02_094959634447_rgbf002384-resize_2/003587_2014-05-23_16-48-02_094959634447_rgbf002384-resize_2-target.png,depth_discrimination_stimuli/000709_2014-06-08_13-51-55_260595134347_rgbf000068-resize_3/000709_2014-06-08_13-51-55_260595134347_rgbf000068-resize_3-target.png,250,1.357,1.803,1,2670,1002,486,761,249,499,,789888,38,Man
486536,DepthScenes,v2_duration_discrimination,discrim_jsons/v2_shuffled_g0_dr.json,http://54.210.137.18/DepthDuration/v2_depth_discrimination_MTurk/v2_DepthDiscrim_HTML.html#1,1,1366,625,1366,768,10-18-2021,7-2-5,15,depth_discrimination_stimuli/002199_2014-06-28_18-33-56_260595134347_rgbf000074-resize_0/002199_2014-06-28_18-33-56_260595134347_rgbf000074-resize_0-target.png,depth_discrimination_stimuli/001016_2014-06-09_16-16-10_260595134347_rgbf000112-resize_5/001016_2014-06-09_16-16-10_260595134347_rgbf000112-resize_5-target.png,1000,1.996,1.6565,0,10529,1349,756,895,998,502,,789888,38,Man
486536,DepthScenes,v2_duration_discrimination,discrim_jsons/v2_shuffled_g0_dr.json,http://54.210.137.18/DepthDuration/v2_depth_discrimination_MTurk/v2_DepthDiscrim_HTML.html#1,1,1366,625,1366,768,10-18-2021,7-2-5,16,depth_discrimination_stimuli/000493_2014-06-09_21-01-18_260595134347_rgbf000196-resize_3/000493_2014-06-09_21-01-18_260595134347_rgbf000196-resize_3-target.png,depth_discrimination_stimuli/000409_2014-06-04_19-23-33_260595134347_rgbf000067-resize_0/000409_2014-06-04_19-23-33_260595134347_rgbf000067-resize_0-target.png,1000,3.44,3.7335,0,39689,1000,1000,999,1000,499,,789888,38,Man
486536,DepthScenes,v2_duration_discrimination,discrim_jsons/v2_shuffled_g0_dr.json,http://54.210.137.18/DepthDuration/v2_depth_discrimination_MTurk/v2_DepthDiscrim_HTML.html#1,1,1366,625,1366,768,10-18-2021,7-2-5,17,depth_discrimination_stimuli/002953_2014-06-08_17-32-18_094959634447_rgbf000059-resize_5/002953_2014-06-08_17-32-18_094959634447_rgbf000059-resize_5-target.png,depth_discrimination_stimuli/000470_2014-06-09_19-42-40_260595134347_rgbf000094-resize_1/000470_2014-06-09_19-42-40_260595134347_rgbf000094-resize_1-target.png,1000,1.551,1.831,0,2778,1002,998,1000,1000,500,,789888,38,Man
486536,DepthScenes,v2_duration_discrimination,discrim_jsons/v2_shuffled_g0_dr.json,http://54.210.137.18/DepthDuration/v2_depth_discrimination_MTurk/v2_DepthDiscrim_HTML.html#1,1,1366,625,1366,768,10-18-2021,7-2-5,18,depth_discrimination_stimuli/000929_2014-06-09_16-33-19_260595134347_rgbf000139-resize_0/000929_2014-06-09_16-33-19_260595134347_rgbf000139-resize_0-target.png,depth_discrimination_stimuli/001055_2014-06-08_18-45-35_260595134347_rgbf000111-resize_4/001055_2014-06-08_18-45-35_260595134347_rgbf000111-resize_4-target.png,250,2.868,2.429,0,10158,1002,248,1000,250,500,,789888,38,Man
486536,DepthScenes,v2_duration_discrimination,discrim_jsons/v2_shuffled_g0_dr.json,http://54.210.137.18/DepthDuration/v2_depth_discrimination_MTurk/v2_DepthDiscrim_HTML.html#1,1,1366,625,1366,768,10-18-2021,7-2-5,19,depth_discrimination_stimuli/002118_2014-06-25_20-32-08_260595134347_rgbf000078-resize_1/002118_2014-06-25_20-32-08_260595134347_rgbf000078-resize_1-target.png,depth_discrimination_stimuli/001164_2014-06-17_15-35-46_260595134347_rgbf000085-resize_3/001164_2014-06-17_15-35-46_260595134347_rgbf000085-resize_3-target.png,250,2.646,2.354,1,1622,1000,249,1001,248,501,,789888,38,Man
486536,DepthScenes,v2_duration_discrimination,discrim_jsons/v2_shuffled_g0_dr.json,http://54.210.137.18/DepthDuration/v2_depth_discrimination_MTurk/v2_DepthDiscrim_HTML.html#1,1,1366,625,1366,768,10-18-2021,7-2-5,20,depth_discrimination_stimuli/002675_2014-06-13_16-08-49_094959634447_rgbf000151-resize_2/002675_2014-06-13_16-08-49_094959634447_rgbf000151-resize_2-target.png,depth_discrimination_stimuli/002675_2014-06-13_16-08-49_094959634447_rgbf000151-resize_2/002675_2014-06-13_16-08-49_094959634447_rgbf000151-resize_2-target.png,1000,4.5065,4.5065,0,7543,1001,999,1000,1000,499,,789888,38,Man
486536,DepthScenes,v2_duration_discrimination,discrim_jsons/v2_shuffled_g0_dr.json,http://54.210.137.18/DepthDuration/v2_depth_discrimination_MTurk/v2_DepthDiscrim_HTML.html#1,1,1366,625,1366,768,10-18-2021,7-2-5,21,depth_discrimination_stimuli/000556_2014-06-09_22-42-56_260595134347_rgbf000214-resize_1/000556_2014-06-09_22-42-56_260595134347_rgbf000214-resize_1-target.png,depth_discrimination_stimuli/001148_2014-06-17_15-26-42_260595134347_rgbf000129-resize_0/001148_2014-06-17_15-26-42_260595134347_rgbf000129-resize_0-target.png,250,4.8415,4.368,0,33195,1000,249,1004,243,499,,789888,38,Man
486536,DepthScenes,v2_duration_discrimination,discrim_jsons/v2_shuffled_g0_dr.json,http://54.210.137.18/DepthDuration/v2_depth_discrimination_MTurk/v2_DepthDiscrim_HTML.html#1,1,1366,625,1366,768,10-18-2021,7-2-5,22,depth_discrimination_stimuli/002805_2014-06-22_19-54-03_094959634447_rgbf000079-resize_1/002805_2014-06-22_19-54-03_094959634447_rgbf000079-resize_1-target.png,depth_discrimination_stimuli/001584_2014-06-20_11-07-43_260595134347_rgbf000002-resize_1/001584_2014-06-20_11-07-43_260595134347_rgbf000002-resize_1-target.png,1000,3.144,3.53,0,4458,1000,1000,999,1001,499,,789888,38,Man
486536,DepthScenes,v2_duration_discrimination,discrim_jsons/v2_shuffled_g0_dr.json,http://54.210.137.18/DepthDuration/v2_depth_discrimination_MTurk/v2_DepthDiscrim_HTML.html#1,1,1366,625,1366,768,10-18-2021,7-2-5,23,depth_discrimination_stimuli/000549_2014-06-08_22-10-24_260595134347_rgbf000247-resize_3/000549_2014-06-08_22-10-24_260595134347_rgbf000247-resize_3-target.png,depth_discrimination_stimuli/002509_2014-06-24_13-19-22_094959634447_rgbf000077-resize_0/002509_2014-06-24_13-19-22_094959634447_rgbf000077-resize_0-target.png,250,1.841,1.3065,0,33778,1001,249,1000,249,500,,789888,38,Man
486536,DepthScenes,v2_duration_discrimination,discrim_jsons/v2_shuffled_g0_dr.json,http://54.210.137.18/DepthDuration/v2_depth_discrimination_MTurk/v2_DepthDiscrim_HTML.html#1,1,1366,625,1366,768,10-18-2021,7-2-5,24,depth_discrimination_stimuli/001450_2014-06-19_17-02-03_260595134347_rgbf000203-resize_4/001450_2014-06-19_17-02-03_260595134347_rgbf000203-resize_4-target.png,depth_discrimination_stimuli/002414_2014-06-28_20-24-58_260595134347_rgbf000067-resize_4/002414_2014-06-28_20-24-58_260595134347_rgbf000067-resize_4-target.png,1000,4.0106666666667,4.363,0,3641,1000,999,1001,999,501,,789888,38,Man
486536,DepthScenes,v2_duration_discrimination,discrim_jsons/v2_shuffled_g0_dr.json,http://54.210.137.18/DepthDuration/v2_depth_discrimination_MTurk/v2_DepthDiscrim_HTML.html#1,1,1366,625,1366,768,10-18-2021,7-2-5,25,depth_discrimination_stimuli/003495_2014-05-21_16-01-51_094959634447_rgbf000100-resize_3/003495_2014-05-21_16-01-51_094959634447_rgbf000100-resize_3-target.png,depth_discrimination_stimuli/002949_2014-06-26_15-57-42_094959634447_rgbf000079-resize_1/002949_2014-06-26_15-57-42_094959634447_rgbf000079-resize_1-target.png,1000,1.6255,1.8915,1,6416,1000,1002,1037,971,488,,789888,38,Man
486536,DepthScenes,v2_duration_discrimination,discrim_jsons/v2_shuffled_g0_dr.json,http://54.210.137.18/DepthDuration/v2_depth_discrimination_MTurk/v2_DepthDiscrim_HTML.html#1,1,1366,625,1366,768,10-18-2021,7-2-5,26,depth_discrimination_stimuli/001498_2014-06-19_17-45-14_260595134347_rgbf000129-resize_4/001498_2014-06-19_17-45-14_260595134347_rgbf000129-resize_4-target.png,depth_discrimination_stimuli/001498_2014-06-19_17-45-14_260595134347_rgbf000129-resize_4/001498_2014-06-19_17-45-14_260595134347_rgbf000129-resize_4-target.png,1000,1.4075,1.4075,0,12374,1103,901,1010,1098,391,,789888,38,Man
486536,DepthScenes,v2_duration_discrimination,discrim_jsons/v2_shuffled_g0_dr.json,http://54.210.137.18/DepthDuration/v2_depth_discrimination_MTurk/v2_DepthDiscrim_HTML.html#1,1,1366,625,1366,768,10-18-2021,7-2-5,27,depth_discrimination_stimuli/002549_2014-06-24_13-41-39_094959634447_rgbf000022-resize_3/002549_2014-06-24_13-41-39_094959634447_rgbf000022-resize_3-target.png,depth_discrimination_stimuli/001136_2014-06-17_15-19-41_260595134347_rgbf000076-resize_3/001136_2014-06-17_15-19-41_260595134347_rgbf000076-resize_3-target.png,250,1.476,1.8655,1,1927,1001,249,1094,318,335,,789888,38,Man
486536,DepthScenes,v2_duration_discrimination,discrim_jsons/v2_shuffled_g0_dr.json,http://54.210.137.18/DepthDuration/v2_depth_discrimination_MTurk/v2_DepthDiscrim_HTML.html#1,1,1366,625,1366,768,10-18-2021,7-2-5,28,depth_discrimination_stimuli/003490_2014-05-21_15-50-11_094959634447_rgbf000101-resize_3/003490_2014-05-21_15-50-11_094959634447_rgbf000101-resize_3-target.png,depth_discrimination_stimuli/000866_2014-06-09_20-45-42_260595134347_rgbf000139-resize_1/000866_2014-06-09_20-45-42_260595134347_rgbf000139-resize_1-target.png,250,3.6445,3.2155,0,17883,1240,24,990,341,460,,789888,38,Man
486536,DepthScenes,v2_duration_discrimination,discrim_jsons/v2_shuffled_g0_dr.json,http://54.210.137.18/DepthDuration/v2_depth_discrimination_MTurk/v2_DepthDiscrim_HTML.html#1,1,1366,625,1366,768,10-18-2021,7-2-5,29,depth_discrimination_stimuli/003292_2014-05-14_21-53-49_094959634447_rgbf000100-resize_2/003292_2014-05-14_21-53-49_094959634447_rgbf000100-resize_2-target.png,depth_discrimination_stimuli/000542_2014-06-08_18-27-08_260595134347_rgbf000118-resize_1/000542_2014-06-08_18-27-08_260595134347_rgbf000118-resize_1-target.png,250,3.4815,3,1,1183,1002,264,984,353,395,,789888,38,Man
486536,DepthScenes,v2_duration_discrimination,discrim_jsons/v2_shuffled_g0_dr.json,http://54.210.137.18/DepthDuration/v2_depth_discrimination_MTurk/v2_DepthDiscrim_HTML.html#1,1,1366,625,1366,768,10-18-2021,7-2-5,30,depth_discrimination_stimuli/002072_2014-06-24_21-48-06_260595134347_rgbf000115-resize_0/002072_2014-06-24_21-48-06_260595134347_rgbf000115-resize_0-target.png,depth_discrimination_stimuli/002072_2014-06-24_21-48-06_260595134347_rgbf000115-resize_0/002072_2014-06-24_21-48-06_260595134347_rgbf000115-resize_0-target.png,250,4.702,4.702,1,3050,1001,319,931,248,501,,789888,38,Man
486536,DepthScenes,v2_duration_discrimination,discrim_jsons/v2_shuffled_g0_dr.json,http://54.210.137.18/DepthDuration/v2_depth_discrimination_MTurk/v2_DepthDiscrim_HTML.html#1,1,1366,625,1366,768,10-18-2021,7-2-5,31,depth_discrimination_stimuli/000927_2014-06-09_16-32-30_260595134347_rgbf000123-resize_3/000927_2014-06-09_16-32-30_260595134347_rgbf000123-resize_3-target.png,depth_discrimination_stimuli/002678_2014-06-13_16-15-32_094959634447_rgbf000151-resize_6/002678_2014-06-13_16-15-32_094959634447_rgbf000151-resize_6-target.png,1000,2.6785,2.183,0,10387,1126,896,998,1049,435,,789888,38,Man
486536,DepthScenes,v2_duration_discrimination,discrim_jsons/v2_shuffled_g0_dr.json,http://54.210.137.18/DepthDuration/v2_depth_discrimination_MTurk/v2_DepthDiscrim_HTML.html#1,1,1366,625,1366,768,10-18-2021,7-2-5,32,depth_discrimination_stimuli/002660_2014-06-13_15-44-18_094959634447_rgbf001878-resize_2/002660_2014-06-13_15-44-18_094959634447_rgbf001878-resize_2-target.png,depth_discrimination_stimuli/003081_2014-06-15_15-19-16_094959634447_rgbf000150-resize_1/003081_2014-06-15_15-19-16_094959634447_rgbf000150-resize_1-target.png,250,3.576,3.9125,1,1143,1246,20,985,248,505,,789888,38,Man
486536,DepthScenes,v2_duration_discrimination,discrim_jsons/v2_shuffled_g0_dr.json,http://54.210.137.18/DepthDuration/v2_depth_discrimination_MTurk/v2_DepthDiscrim_HTML.html#1,1,1366,625,1366,768,10-18-2021,7-2-5,33,depth_discrimination_stimuli/001158_2014-06-17_15-32-16_260595134347_rgbf000138-resize_2/001158_2014-06-17_15-32-16_260595134347_rgbf000138-resize_2-target.png,depth_discrimination_stimuli/001181_2014-06-17_15-50-57_260595134347_rgbf000106-resize_4/001181_2014-06-17_15-50-57_260595134347_rgbf000106-resize_4-target.png,1000,4.5315,4.149,0,5677,1474,751,820,1120,337,,789888,38,Man
486536,DepthScenes,v2_duration_discrimination,discrim_jsons/v2_shuffled_g0_dr.json,http://54.210.137.18/DepthDuration/v2_depth_discrimination_MTurk/v2_DepthDiscrim_HTML.html#1,1,1366,625,1366,768,10-18-2021,7-2-5,34,depth_discrimination_stimuli/002467_2014-06-28_20-38-07_260595134347_rgbf000026-resize_2/002467_2014-06-28_20-38-07_260595134347_rgbf000026-resize_2-target.png,depth_discrimination_stimuli/001133_2014-06-17_14-49-16_260595134347_rgbf000100-resize_0/001133_2014-06-17_14-49-16_260595134347_rgbf000100-resize_0-target.png,1000,4.742,4.2115,0,17685,1004,1028,987,980,503,,789888,38,Man
486536,DepthScenes,v2_duration_discrimination,discrim_jsons/v2_shuffled_g0_dr.json,http://54.210.137.18/DepthDuration/v2_depth_discrimination_MTurk/v2_DepthDiscrim_HTML.html#1,1,1366,625,1366,768,10-18-2021,7-2-5,35,depth_discrimination_stimuli/001170_2014-06-17_15-43-44_260595134347_rgbf000096-resize_6/001170_2014-06-17_15-43-44_260595134347_rgbf000096-resize_6-target.png,depth_discrimination_stimuli/001170_2014-06-17_15-43-44_260595134347_rgbf000096-resize_6/001170_2014-06-17_15-43-44_260595134347_rgbf000096-resize_6-target.png,250,1.191,1.191,0,2051,1001,249,1002,247,500,,789888,38,Man
486536,DepthScenes,v2_duration_discrimination,discrim_jsons/v2_shuffled_g0_dr.json,http://54.210.137.18/DepthDuration/v2_depth_discrimination_MTurk/v2_DepthDiscrim_HTML.html#1,1,1366,625,1366,768,10-18-2021,7-2-5,36,depth_discrimination_stimuli/003423_2014-05-21_10-23-26_094959634447_rgbf002665-resize_2/003423_2014-05-21_10-23-26_094959634447_rgbf002665-resize_2-target.png,depth_discrimination_stimuli/000137_2014-05-20_17-04-49_260595134347_rgbf000120-resize_1/000137_2014-05-20_17-04-49_260595134347_rgbf000120-resize_1-target.png,1000,3.2575,3.786,0,16756,1001,1105,893,1001,494,,789888,38,Man
486536,DepthScenes,v2_duration_discrimination,discrim_jsons/v2_shuffled_g0_dr.json,http://54.210.137.18/DepthDuration/v2_depth_discrimination_MTurk/v2_DepthDiscrim_HTML.html#1,1,1366,625,1366,768,10-18-2021,7-2-5,37,depth_discrimination_stimuli/001197_2014-06-17_16-01-50_260595134347_rgbf000103-resize_4/001197_2014-06-17_16-01-50_260595134347_rgbf000103-resize_4-target.png,depth_discrimination_stimuli/001235_2014-06-17_16-37-36_260595134347_rgbf000084-resize_4/001235_2014-06-17_16-37-36_260595134347_rgbf000084-resize_4-target.png,1000,3.4025,3.6605,0,57029,1001,1024,1363,606,500,,789888,38,Man
486536,DepthScenes,v2_duration_discrimination,discrim_jsons/v2_shuffled_g0_dr.json,http://54.210.137.18/DepthDuration/v2_depth_discrimination_MTurk/v2_DepthDiscrim_HTML.html#1,1,1366,625,1366,768,10-18-2021,7-2-5,38,depth_discrimination_stimuli/003395_2014-05-20_15-39-18_094959634447_rgbf000101-resize_0/003395_2014-05-20_15-39-18_094959634447_rgbf000101-resize_0-target.png,depth_discrimination_stimuli/003395_2014-05-20_15-39-18_094959634447_rgbf000101-resize_0/003395_2014-05-20_15-39-18_094959634447_rgbf000101-resize_0-target.png,1000,4.835,4.835,1,2748,1100,814,1116,879,563,,789888,38,Man
486536,DepthScenes,v2_duration_discrimination,discrim_jsons/v2_shuffled_g0_dr.json,http://54.210.137.18/DepthDuration/v2_depth_discrimination_MTurk/v2_DepthDiscrim_HTML.html#1,1,1366,625,1366,768,10-18-2021,7-2-5,39,depth_discrimination_stimuli/001808_2014-06-26_20-50-58_260595134347_rgbf000029-resize_1/001808_2014-06-26_20-50-58_260595134347_rgbf000029-resize_1-target.png,depth_discrimination_stimuli/002748_2014-06-22_19-07-22_094959634447_rgbf000078-resize_1/002748_2014-06-22_19-07-22_094959634447_rgbf000078-resize_1-target.png,1000,4.249,4.6705,0,9724,1001,1069,973,1541,31,,789888,38,Man
486536,DepthScenes,v2_duration_discrimination,discrim_jsons/v2_shuffled_g0_dr.json,http://54.210.137.18/DepthDuration/v2_depth_discrimination_MTurk/v2_DepthDiscrim_HTML.html#1,1,1366,625,1366,768,10-18-2021,7-2-5,40,depth_discrimination_stimuli/002323_2014-06-28_20-01-54_260595134347_rgbf000051-resize_4/002323_2014-06-28_20-01-54_260595134347_rgbf000051-resize_4-target.png,depth_discrimination_stimuli/001032_2014-06-08_13-23-17_260595134347_rgbf000021-resize_3/001032_2014-06-08_13-23-17_260595134347_rgbf000021-resize_3-target.png,1000,3.731,3.2725,1,6718,1144,951,905,996,655,,789888,38,Man
486536,DepthScenes,v2_duration_discrimination,discrim_jsons/v2_shuffled_g0_dr.json,http://54.210.137.18/DepthDuration/v2_depth_discrimination_MTurk/v2_DepthDiscrim_HTML.html#1,1,1366,625,1366,768,10-18-2021,7-2-5,40,,,,,,,6718,1144,951,905,996,655,,789888,38,Man
