subjID,experimentName,versionName,sequenceName,url,selected_row,windowWidth,windowHeight,screenWidth,screenHeight,startDate,startTime,trial,stimulus_0,stimulus_1,duration,actual_depth_0,actual_depth_1,discrim_choice,trial_RT,log_fixation,log_sceneDuration1,log_mask1,log_sceneDuration2,log_mask2,experimentTime,totalTime,age,gender
873562,DepthScenes,v2_duration_discrimination,discrim_jsons/v2_shuffled_g0.json,http://54.210.137.18/DepthDuration/v2_depth_discrimination_MTurk/v2_DepthDiscrim_HTML.html#4,4,982,866,1920,1080,10-19-2021,8-33-33,1,depth_discrimination_stimuli/002043_2014-06-24_20-29-38_260595134347_rgbf000039-resize_4/002043_2014-06-24_20-29-38_260595134347_rgbf000039-resize_4-target.png,depth_discrimination_stimuli/001011_2014-06-08_23-18-54_260595134347_rgbf000044-resize_4/001011_2014-06-08_23-18-54_260595134347_rgbf000044-resize_4-target.png,250,2.8435,2.473,0,1193,1003,251,996,252,498,,298748,44,Man
873562,DepthScenes,v2_duration_discrimination,discrim_jsons/v2_shuffled_g0.json,http://54.210.137.18/DepthDuration/v2_depth_discrimination_MTurk/v2_DepthDiscrim_HTML.html#4,4,982,866,1920,1080,10-19-2021,8-33-33,2,depth_discrimination_stimuli/000953_2014-06-08_11-42-19_260595134347_rgbf000083-resize_0/000953_2014-06-08_11-42-19_260595134347_rgbf000083-resize_0-target.png,depth_discrimination_stimuli/000953_2014-06-08_11-42-19_260595134347_rgbf000083-resize_0/000953_2014-06-08_11-42-19_260595134347_rgbf000083-resize_0-target.png,250,1.369,1.369,3,5008,1005,246,998,250,500,,298748,44,Man
873562,DepthScenes,v2_duration_discrimination,discrim_jsons/v2_shuffled_g0.json,http://54.210.137.18/DepthDuration/v2_depth_discrimination_MTurk/v2_DepthDiscrim_HTML.html#4,4,982,866,1920,1080,10-19-2021,8-33-33,3,depth_discrimination_stimuli/003083_2014-06-15_15-21-03_094959634447_rgbf000063-resize_1/003083_2014-06-15_15-21-03_094959634447_rgbf000063-resize_1-target.png,depth_discrimination_stimuli/000742_2014-06-08_18-48-09_260595134347_rgbf000164-resize_4/000742_2014-06-08_18-48-09_260595134347_rgbf000164-resize_4-target.png,250,4.1405,4.632,0,1466,1002,248,1003,248,502,,298748,44,Man
873562,DepthScenes,v2_duration_discrimination,discrim_jsons/v2_shuffled_g0.json,http://54.210.137.18/DepthDuration/v2_depth_discrimination_MTurk/v2_DepthDiscrim_HTML.html#4,4,982,866,1920,1080,10-19-2021,8-33-33,4,depth_discrimination_stimuli/001092_2014-06-15_17-34-58_260595134347_rgbf000171-resize_3/001092_2014-06-15_17-34-58_260595134347_rgbf000171-resize_3-target.png,depth_discrimination_stimuli/000502_2014-06-08_23-02-32_260595134347_rgbf000063-resize_4/000502_2014-06-08_23-02-32_260595134347_rgbf000063-resize_4-target.png,1000,2.6935,2.431,1,1826,1001,1000,1002,1000,498,,298748,44,Man
873562,DepthScenes,v2_duration_discrimination,discrim_jsons/v2_shuffled_g0.json,http://54.210.137.18/DepthDuration/v2_depth_discrimination_MTurk/v2_DepthDiscrim_HTML.html#4,4,982,866,1920,1080,10-19-2021,8-33-33,5,depth_discrimination_stimuli/001532_2014-06-20_16-50-41_260595134347_rgbf000081-resize_4/001532_2014-06-20_16-50-41_260595134347_rgbf000081-resize_4-target.png,depth_discrimination_stimuli/000943_2014-06-09_19-31-07_260595134347_rgbf000128-resize_1/000943_2014-06-09_19-31-07_260595134347_rgbf000128-resize_1-target.png,1000,1.5758333333333,1.9765,0,1809,1006,995,1002,999,500,,298748,44,Man
873562,DepthScenes,v2_duration_discrimination,discrim_jsons/v2_shuffled_g0.json,http://54.210.137.18/DepthDuration/v2_depth_discrimination_MTurk/v2_DepthDiscrim_HTML.html#4,4,982,866,1920,1080,10-19-2021,8-33-33,6,depth_discrimination_stimuli/002103_2014-06-25_20-00-40_260595134347_rgbf000049-resize_0/002103_2014-06-25_20-00-40_260595134347_rgbf000049-resize_0-target.png,depth_discrimination_stimuli/002444_2014-06-28_20-32-08_260595134347_rgbf000027-resize_0/002444_2014-06-28_20-32-08_260595134347_rgbf000027-resize_0-target.png,250,4.105,4.389,1,1302,1000,250,1001,250,503,,298748,44,Man
873562,DepthScenes,v2_duration_discrimination,discrim_jsons/v2_shuffled_g0.json,http://54.210.137.18/DepthDuration/v2_depth_discrimination_MTurk/v2_DepthDiscrim_HTML.html#4,4,982,866,1920,1080,10-19-2021,8-33-33,7,depth_discrimination_stimuli/000800_2014-06-08_22-42-09_260595134347_rgbf000095-resize_3/000800_2014-06-08_22-42-09_260595134347_rgbf000095-resize_3-target.png,depth_discrimination_stimuli/000869_2014-06-09_20-50-18_260595134347_rgbf000060-resize_3/000869_2014-06-09_20-50-18_260595134347_rgbf000060-resize_3-target.png,1000,2.8,2.266,1,1794,1004,998,1002,995,503,,298748,44,Man
873562,DepthScenes,v2_duration_discrimination,discrim_jsons/v2_shuffled_g0.json,http://54.210.137.18/DepthDuration/v2_depth_discrimination_MTurk/v2_DepthDiscrim_HTML.html#4,4,982,866,1920,1080,10-19-2021,8-33-33,8,depth_discrimination_stimuli/001618_2014-06-20_11-37-31_260595134347_rgbf000027-resize_3/001618_2014-06-20_11-37-31_260595134347_rgbf000027-resize_3-target.png,depth_discrimination_stimuli/000109_2014-05-14_23-41-52_260595134347_rgbf000035-resize_9/000109_2014-05-14_23-41-52_260595134347_rgbf000035-resize_9-target.png,250,1.8725,1.3545,1,1092,1004,246,1002,251,502,,298748,44,Man
873562,DepthScenes,v2_duration_discrimination,discrim_jsons/v2_shuffled_g0.json,http://54.210.137.18/DepthDuration/v2_depth_discrimination_MTurk/v2_DepthDiscrim_HTML.html#4,4,982,866,1920,1080,10-19-2021,8-33-33,9,depth_discrimination_stimuli/000454_2014-06-08_16-37-28_260595134347_rgbf000048-resize_2/000454_2014-06-08_16-37-28_260595134347_rgbf000048-resize_2-target.png,depth_discrimination_stimuli/000454_2014-06-08_16-37-28_260595134347_rgbf000048-resize_2/000454_2014-06-08_16-37-28_260595134347_rgbf000048-resize_2-target.png,1000,1.213,1.213,3,2094,1000,1000,1004,998,501,,298748,44,Man
873562,DepthScenes,v2_duration_discrimination,discrim_jsons/v2_shuffled_g0.json,http://54.210.137.18/DepthDuration/v2_depth_discrimination_MTurk/v2_DepthDiscrim_HTML.html#4,4,982,866,1920,1080,10-19-2021,8-33-33,10,depth_discrimination_stimuli/000749_2014-06-08_21-55-06_260595134347_rgbf000070-resize_2/000749_2014-06-08_21-55-06_260595134347_rgbf000070-resize_2-target.png,depth_discrimination_stimuli/001056_2014-06-08_18-46-44_260595134347_rgbf000068-resize_0/001056_2014-06-08_18-46-44_260595134347_rgbf000068-resize_0-target.png,1000,2.331,2.6625,0,1873,1000,1004,996,1002,499,,298748,44,Man
873562,DepthScenes,v2_duration_discrimination,discrim_jsons/v2_shuffled_g0.json,http://54.210.137.18/DepthDuration/v2_depth_discrimination_MTurk/v2_DepthDiscrim_HTML.html#4,4,982,866,1920,1080,10-19-2021,8-33-33,11,depth_discrimination_stimuli/002199_2014-06-28_18-33-56_260595134347_rgbf000074-resize_0/002199_2014-06-28_18-33-56_260595134347_rgbf000074-resize_0-target.png,depth_discrimination_stimuli/001016_2014-06-09_16-16-10_260595134347_rgbf000112-resize_5/001016_2014-06-09_16-16-10_260595134347_rgbf000112-resize_5-target.png,250,1.996,1.6565,0,1062,1001,249,1002,252,499,,298748,44,Man
873562,DepthScenes,v2_duration_discrimination,discrim_jsons/v2_shuffled_g0.json,http://54.210.137.18/DepthDuration/v2_depth_discrimination_MTurk/v2_DepthDiscrim_HTML.html#4,4,982,866,1920,1080,10-19-2021,8-33-33,12,depth_discrimination_stimuli/002118_2014-06-25_20-32-08_260595134347_rgbf000078-resize_1/002118_2014-06-25_20-32-08_260595134347_rgbf000078-resize_1-target.png,depth_discrimination_stimuli/001164_2014-06-17_15-35-46_260595134347_rgbf000085-resize_3/001164_2014-06-17_15-35-46_260595134347_rgbf000085-resize_3-target.png,1000,2.646,2.354,1,1798,1004,998,999,1000,502,,298748,44,Man
873562,DepthScenes,v2_duration_discrimination,discrim_jsons/v2_shuffled_g0.json,http://54.210.137.18/DepthDuration/v2_depth_discrimination_MTurk/v2_DepthDiscrim_HTML.html#4,4,982,866,1920,1080,10-19-2021,8-33-33,13,depth_discrimination_stimuli/002953_2014-06-08_17-32-18_094959634447_rgbf000059-resize_5/002953_2014-06-08_17-32-18_094959634447_rgbf000059-resize_5-target.png,depth_discrimination_stimuli/000470_2014-06-09_19-42-40_260595134347_rgbf000094-resize_1/000470_2014-06-09_19-42-40_260595134347_rgbf000094-resize_1-target.png,250,1.551,1.831,1,1262,1002,251,999,250,501,,298748,44,Man
873562,DepthScenes,v2_duration_discrimination,discrim_jsons/v2_shuffled_g0.json,http://54.210.137.18/DepthDuration/v2_depth_discrimination_MTurk/v2_DepthDiscrim_HTML.html#4,4,982,866,1920,1080,10-19-2021,8-33-33,14,depth_discrimination_stimuli/000929_2014-06-09_16-33-19_260595134347_rgbf000139-resize_0/000929_2014-06-09_16-33-19_260595134347_rgbf000139-resize_0-target.png,depth_discrimination_stimuli/001055_2014-06-08_18-45-35_260595134347_rgbf000111-resize_4/001055_2014-06-08_18-45-35_260595134347_rgbf000111-resize_4-target.png,1000,2.868,2.429,0,1791,1005,995,1003,1000,500,,298748,44,Man
873562,DepthScenes,v2_duration_discrimination,discrim_jsons/v2_shuffled_g0.json,http://54.210.137.18/DepthDuration/v2_depth_discrimination_MTurk/v2_DepthDiscrim_HTML.html#4,4,982,866,1920,1080,10-19-2021,8-33-33,15,depth_discrimination_stimuli/000493_2014-06-09_21-01-18_260595134347_rgbf000196-resize_3/000493_2014-06-09_21-01-18_260595134347_rgbf000196-resize_3-target.png,depth_discrimination_stimuli/000409_2014-06-04_19-23-33_260595134347_rgbf000067-resize_0/000409_2014-06-04_19-23-33_260595134347_rgbf000067-resize_0-target.png,250,3.44,3.7335,1,1691,1001,249,1003,249,497,,298748,44,Man
873562,DepthScenes,v2_duration_discrimination,discrim_jsons/v2_shuffled_g0.json,http://54.210.137.18/DepthDuration/v2_depth_discrimination_MTurk/v2_DepthDiscrim_HTML.html#4,4,982,866,1920,1080,10-19-2021,8-33-33,16,depth_discrimination_stimuli/000569_2014-06-09_22-51-47_260595134347_rgbf000141-resize_3/000569_2014-06-09_22-51-47_260595134347_rgbf000141-resize_3-target.png,depth_discrimination_stimuli/000569_2014-06-09_22-51-47_260595134347_rgbf000141-resize_3/000569_2014-06-09_22-51-47_260595134347_rgbf000141-resize_3-target.png,250,4.512,4.512,3,1947,1005,248,999,249,502,,298748,44,Man
873562,DepthScenes,v2_duration_discrimination,discrim_jsons/v2_shuffled_g0.json,http://54.210.137.18/DepthDuration/v2_depth_discrimination_MTurk/v2_DepthDiscrim_HTML.html#4,4,982,866,1920,1080,10-19-2021,8-33-33,17,depth_discrimination_stimuli/003587_2014-05-23_16-48-02_094959634447_rgbf002384-resize_2/003587_2014-05-23_16-48-02_094959634447_rgbf002384-resize_2-target.png,depth_discrimination_stimuli/000709_2014-06-08_13-51-55_260595134347_rgbf000068-resize_3/000709_2014-06-08_13-51-55_260595134347_rgbf000068-resize_3-target.png,1000,1.357,1.803,0,1885,1005,1000,999,996,503,,298748,44,Man
873562,DepthScenes,v2_duration_discrimination,discrim_jsons/v2_shuffled_g0.json,http://54.210.137.18/DepthDuration/v2_depth_discrimination_MTurk/v2_DepthDiscrim_HTML.html#4,4,982,866,1920,1080,10-19-2021,8-33-33,18,depth_discrimination_stimuli/002675_2014-06-13_16-08-49_094959634447_rgbf000151-resize_2/002675_2014-06-13_16-08-49_094959634447_rgbf000151-resize_2-target.png,depth_discrimination_stimuli/002675_2014-06-13_16-08-49_094959634447_rgbf000151-resize_2/002675_2014-06-13_16-08-49_094959634447_rgbf000151-resize_2-target.png,1000,4.5065,4.5065,3,1963,1001,1005,996,1002,500,,298748,44,Man
873562,DepthScenes,v2_duration_discrimination,discrim_jsons/v2_shuffled_g0.json,http://54.210.137.18/DepthDuration/v2_depth_discrimination_MTurk/v2_DepthDiscrim_HTML.html#4,4,982,866,1920,1080,10-19-2021,8-33-33,19,depth_discrimination_stimuli/002340_2014-06-28_20-05-46_260595134347_rgbf000113-resize_0/002340_2014-06-28_20-05-46_260595134347_rgbf000113-resize_0-target.png,depth_discrimination_stimuli/002905_2014-06-03_18-04-43_094959634447_rgbf000151-resize_2/002905_2014-06-03_18-04-43_094959634447_rgbf000151-resize_2-target.png,1000,2.4735,2.0295,1,1511,1005,996,1003,997,504,,298748,44,Man
873562,DepthScenes,v2_duration_discrimination,discrim_jsons/v2_shuffled_g0.json,http://54.210.137.18/DepthDuration/v2_depth_discrimination_MTurk/v2_DepthDiscrim_HTML.html#4,4,982,866,1920,1080,10-19-2021,8-33-33,20,depth_discrimination_stimuli/000691_2014-06-08_13-08-50_260595134347_rgbf000132-resize_3/000691_2014-06-08_13-08-50_260595134347_rgbf000132-resize_3-target.png,depth_discrimination_stimuli/002039_2014-06-24_20-22-38_260595134347_rgbf000084-resize_1/002039_2014-06-24_20-22-38_260595134347_rgbf000084-resize_1-target.png,1000,4.153,4.408,0,1812,1002,1002,998,999,501,,298748,44,Man
873562,DepthScenes,v2_duration_discrimination,discrim_jsons/v2_shuffled_g0.json,http://54.210.137.18/DepthDuration/v2_depth_discrimination_MTurk/v2_DepthDiscrim_HTML.html#4,4,982,866,1920,1080,10-19-2021,8-33-33,21,depth_discrimination_stimuli/000549_2014-06-08_22-10-24_260595134347_rgbf000247-resize_3/000549_2014-06-08_22-10-24_260595134347_rgbf000247-resize_3-target.png,depth_discrimination_stimuli/002509_2014-06-24_13-19-22_094959634447_rgbf000077-resize_0/002509_2014-06-24_13-19-22_094959634447_rgbf000077-resize_0-target.png,1000,1.841,1.3065,1,1814,1001,1002,997,1000,501,,298748,44,Man
873562,DepthScenes,v2_duration_discrimination,discrim_jsons/v2_shuffled_g0.json,http://54.210.137.18/DepthDuration/v2_depth_discrimination_MTurk/v2_DepthDiscrim_HTML.html#4,4,982,866,1920,1080,10-19-2021,8-33-33,22,depth_discrimination_stimuli/003495_2014-05-21_16-01-51_094959634447_rgbf000100-resize_3/003495_2014-05-21_16-01-51_094959634447_rgbf000100-resize_3-target.png,depth_discrimination_stimuli/002949_2014-06-26_15-57-42_094959634447_rgbf000079-resize_1/002949_2014-06-26_15-57-42_094959634447_rgbf000079-resize_1-target.png,250,1.6255,1.8915,0,1120,1003,251,1001,248,500,,298748,44,Man
873562,DepthScenes,v2_duration_discrimination,discrim_jsons/v2_shuffled_g0.json,http://54.210.137.18/DepthDuration/v2_depth_discrimination_MTurk/v2_DepthDiscrim_HTML.html#4,4,982,866,1920,1080,10-19-2021,8-33-33,23,depth_discrimination_stimuli/001498_2014-06-19_17-45-14_260595134347_rgbf000129-resize_4/001498_2014-06-19_17-45-14_260595134347_rgbf000129-resize_4-target.png,depth_discrimination_stimuli/001498_2014-06-19_17-45-14_260595134347_rgbf000129-resize_4/001498_2014-06-19_17-45-14_260595134347_rgbf000129-resize_4-target.png,1000,1.4075,1.4075,3,1795,1003,1002,1000,999,500,,298748,44,Man
873562,DepthScenes,v2_duration_discrimination,discrim_jsons/v2_shuffled_g0.json,http://54.210.137.18/DepthDuration/v2_depth_discrimination_MTurk/v2_DepthDiscrim_HTML.html#4,4,982,866,1920,1080,10-19-2021,8-33-33,24,depth_discrimination_stimuli/003490_2014-05-21_15-50-11_094959634447_rgbf000101-resize_3/003490_2014-05-21_15-50-11_094959634447_rgbf000101-resize_3-target.png,depth_discrimination_stimuli/000866_2014-06-09_20-45-42_260595134347_rgbf000139-resize_1/000866_2014-06-09_20-45-42_260595134347_rgbf000139-resize_1-target.png,1000,3.6445,3.2155,1,2155,1004,998,1002,1000,500,,298748,44,Man
873562,DepthScenes,v2_duration_discrimination,discrim_jsons/v2_shuffled_g0.json,http://54.210.137.18/DepthDuration/v2_depth_discrimination_MTurk/v2_DepthDiscrim_HTML.html#4,4,982,866,1920,1080,10-19-2021,8-33-33,25,depth_discrimination_stimuli/002072_2014-06-24_21-48-06_260595134347_rgbf000115-resize_0/002072_2014-06-24_21-48-06_260595134347_rgbf000115-resize_0-target.png,depth_discrimination_stimuli/002072_2014-06-24_21-48-06_260595134347_rgbf000115-resize_0/002072_2014-06-24_21-48-06_260595134347_rgbf000115-resize_0-target.png,250,4.702,4.702,3,1168,1005,251,997,248,505,,298748,44,Man
873562,DepthScenes,v2_duration_discrimination,discrim_jsons/v2_shuffled_g0.json,http://54.210.137.18/DepthDuration/v2_depth_discrimination_MTurk/v2_DepthDiscrim_HTML.html#4,4,982,866,1920,1080,10-19-2021,8-33-33,26,depth_discrimination_stimuli/002805_2014-06-22_19-54-03_094959634447_rgbf000079-resize_1/002805_2014-06-22_19-54-03_094959634447_rgbf000079-resize_1-target.png,depth_discrimination_stimuli/001584_2014-06-20_11-07-43_260595134347_rgbf000002-resize_1/001584_2014-06-20_11-07-43_260595134347_rgbf000002-resize_1-target.png,250,3.144,3.53,1,1842,1002,249,1000,252,499,,298748,44,Man
873562,DepthScenes,v2_duration_discrimination,discrim_jsons/v2_shuffled_g0.json,http://54.210.137.18/DepthDuration/v2_depth_discrimination_MTurk/v2_DepthDiscrim_HTML.html#4,4,982,866,1920,1080,10-19-2021,8-33-33,27,depth_discrimination_stimuli/003292_2014-05-14_21-53-49_094959634447_rgbf000100-resize_2/003292_2014-05-14_21-53-49_094959634447_rgbf000100-resize_2-target.png,depth_discrimination_stimuli/000542_2014-06-08_18-27-08_260595134347_rgbf000118-resize_1/000542_2014-06-08_18-27-08_260595134347_rgbf000118-resize_1-target.png,1000,3.4815,3,0,2143,1001,1000,999,999,500,,298748,44,Man
873562,DepthScenes,v2_duration_discrimination,discrim_jsons/v2_shuffled_g0.json,http://54.210.137.18/DepthDuration/v2_depth_discrimination_MTurk/v2_DepthDiscrim_HTML.html#4,4,982,866,1920,1080,10-19-2021,8-33-33,28,depth_discrimination_stimuli/002549_2014-06-24_13-41-39_094959634447_rgbf000022-resize_3/002549_2014-06-24_13-41-39_094959634447_rgbf000022-resize_3-target.png,depth_discrimination_stimuli/001136_2014-06-17_15-19-41_260595134347_rgbf000076-resize_3/001136_2014-06-17_15-19-41_260595134347_rgbf000076-resize_3-target.png,1000,1.476,1.8655,0,1809,1006,1000,1000,997,502,,298748,44,Man
873562,DepthScenes,v2_duration_discrimination,discrim_jsons/v2_shuffled_g0.json,http://54.210.137.18/DepthDuration/v2_depth_discrimination_MTurk/v2_DepthDiscrim_HTML.html#4,4,982,866,1920,1080,10-19-2021,8-33-33,29,depth_discrimination_stimuli/000556_2014-06-09_22-42-56_260595134347_rgbf000214-resize_1/000556_2014-06-09_22-42-56_260595134347_rgbf000214-resize_1-target.png,depth_discrimination_stimuli/001148_2014-06-17_15-26-42_260595134347_rgbf000129-resize_0/001148_2014-06-17_15-26-42_260595134347_rgbf000129-resize_0-target.png,1000,4.8415,4.368,0,1964,1004,998,998,1002,502,,298748,44,Man
873562,DepthScenes,v2_duration_discrimination,discrim_jsons/v2_shuffled_g0.json,http://54.210.137.18/DepthDuration/v2_depth_discrimination_MTurk/v2_DepthDiscrim_HTML.html#4,4,982,866,1920,1080,10-19-2021,8-33-33,30,depth_discrimination_stimuli/001450_2014-06-19_17-02-03_260595134347_rgbf000203-resize_4/001450_2014-06-19_17-02-03_260595134347_rgbf000203-resize_4-target.png,depth_discrimination_stimuli/002414_2014-06-28_20-24-58_260595134347_rgbf000067-resize_4/002414_2014-06-28_20-24-58_260595134347_rgbf000067-resize_4-target.png,250,4.0106666666667,4.363,1,1481,1003,250,1000,249,499,,298748,44,Man
873562,DepthScenes,v2_duration_discrimination,discrim_jsons/v2_shuffled_g0.json,http://54.210.137.18/DepthDuration/v2_depth_discrimination_MTurk/v2_DepthDiscrim_HTML.html#4,4,982,866,1920,1080,10-19-2021,8-33-33,31,depth_discrimination_stimuli/000927_2014-06-09_16-32-30_260595134347_rgbf000123-resize_3/000927_2014-06-09_16-32-30_260595134347_rgbf000123-resize_3-target.png,depth_discrimination_stimuli/002678_2014-06-13_16-15-32_094959634447_rgbf000151-resize_6/002678_2014-06-13_16-15-32_094959634447_rgbf000151-resize_6-target.png,250,2.6785,2.183,0,1888,1003,248,1001,253,498,,298748,44,Man
873562,DepthScenes,v2_duration_discrimination,discrim_jsons/v2_shuffled_g0.json,http://54.210.137.18/DepthDuration/v2_depth_discrimination_MTurk/v2_DepthDiscrim_HTML.html#4,4,982,866,1920,1080,10-19-2021,8-33-33,32,depth_discrimination_stimuli/003423_2014-05-21_10-23-26_094959634447_rgbf002665-resize_2/003423_2014-05-21_10-23-26_094959634447_rgbf002665-resize_2-target.png,depth_discrimination_stimuli/000137_2014-05-20_17-04-49_260595134347_rgbf000120-resize_1/000137_2014-05-20_17-04-49_260595134347_rgbf000120-resize_1-target.png,250,3.2575,3.786,1,1513,1002,248,1001,248,500,,298748,44,Man
873562,DepthScenes,v2_duration_discrimination,discrim_jsons/v2_shuffled_g0.json,http://54.210.137.18/DepthDuration/v2_depth_discrimination_MTurk/v2_DepthDiscrim_HTML.html#4,4,982,866,1920,1080,10-19-2021,8-33-33,33,depth_discrimination_stimuli/001158_2014-06-17_15-32-16_260595134347_rgbf000138-resize_2/001158_2014-06-17_15-32-16_260595134347_rgbf000138-resize_2-target.png,depth_discrimination_stimuli/001181_2014-06-17_15-50-57_260595134347_rgbf000106-resize_4/001181_2014-06-17_15-50-57_260595134347_rgbf000106-resize_4-target.png,250,4.5315,4.149,0,1243,1002,249,999,252,499,,298748,44,Man
873562,DepthScenes,v2_duration_discrimination,discrim_jsons/v2_shuffled_g0.json,http://54.210.137.18/DepthDuration/v2_depth_discrimination_MTurk/v2_DepthDiscrim_HTML.html#4,4,982,866,1920,1080,10-19-2021,8-33-33,34,depth_discrimination_stimuli/002467_2014-06-28_20-38-07_260595134347_rgbf000026-resize_2/002467_2014-06-28_20-38-07_260595134347_rgbf000026-resize_2-target.png,depth_discrimination_stimuli/001133_2014-06-17_14-49-16_260595134347_rgbf000100-resize_0/001133_2014-06-17_14-49-16_260595134347_rgbf000100-resize_0-target.png,250,4.742,4.2115,1,1781,1002,248,1004,250,496,,298748,44,Man
873562,DepthScenes,v2_duration_discrimination,discrim_jsons/v2_shuffled_g0.json,http://54.210.137.18/DepthDuration/v2_depth_discrimination_MTurk/v2_DepthDiscrim_HTML.html#4,4,982,866,1920,1080,10-19-2021,8-33-33,35,depth_discrimination_stimuli/001197_2014-06-17_16-01-50_260595134347_rgbf000103-resize_4/001197_2014-06-17_16-01-50_260595134347_rgbf000103-resize_4-target.png,depth_discrimination_stimuli/001235_2014-06-17_16-37-36_260595134347_rgbf000084-resize_4/001235_2014-06-17_16-37-36_260595134347_rgbf000084-resize_4-target.png,250,3.4025,3.6605,1,2052,1000,252,999,253,497,,298748,44,Man
873562,DepthScenes,v2_duration_discrimination,discrim_jsons/v2_shuffled_g0.json,http://54.210.137.18/DepthDuration/v2_depth_discrimination_MTurk/v2_DepthDiscrim_HTML.html#4,4,982,866,1920,1080,10-19-2021,8-33-33,36,depth_discrimination_stimuli/001170_2014-06-17_15-43-44_260595134347_rgbf000096-resize_6/001170_2014-06-17_15-43-44_260595134347_rgbf000096-resize_6-target.png,depth_discrimination_stimuli/001170_2014-06-17_15-43-44_260595134347_rgbf000096-resize_6/001170_2014-06-17_15-43-44_260595134347_rgbf000096-resize_6-target.png,250,1.191,1.191,3,1496,1001,251,1001,246,499,,298748,44,Man
873562,DepthScenes,v2_duration_discrimination,discrim_jsons/v2_shuffled_g0.json,http://54.210.137.18/DepthDuration/v2_depth_discrimination_MTurk/v2_DepthDiscrim_HTML.html#4,4,982,866,1920,1080,10-19-2021,8-33-33,37,depth_discrimination_stimuli/002323_2014-06-28_20-01-54_260595134347_rgbf000051-resize_4/002323_2014-06-28_20-01-54_260595134347_rgbf000051-resize_4-target.png,depth_discrimination_stimuli/001032_2014-06-08_13-23-17_260595134347_rgbf000021-resize_3/001032_2014-06-08_13-23-17_260595134347_rgbf000021-resize_3-target.png,250,3.731,3.2725,1,1139,1002,252,996,251,500,,298748,44,Man
873562,DepthScenes,v2_duration_discrimination,discrim_jsons/v2_shuffled_g0.json,http://54.210.137.18/DepthDuration/v2_depth_discrimination_MTurk/v2_DepthDiscrim_HTML.html#4,4,982,866,1920,1080,10-19-2021,8-33-33,38,depth_discrimination_stimuli/001808_2014-06-26_20-50-58_260595134347_rgbf000029-resize_1/001808_2014-06-26_20-50-58_260595134347_rgbf000029-resize_1-target.png,depth_discrimination_stimuli/002748_2014-06-22_19-07-22_094959634447_rgbf000078-resize_1/002748_2014-06-22_19-07-22_094959634447_rgbf000078-resize_1-target.png,250,4.249,4.6705,0,1214,1001,253,997,252,500,,298748,44,Man
873562,DepthScenes,v2_duration_discrimination,discrim_jsons/v2_shuffled_g0.json,http://54.210.137.18/DepthDuration/v2_depth_discrimination_MTurk/v2_DepthDiscrim_HTML.html#4,4,982,866,1920,1080,10-19-2021,8-33-33,39,depth_discrimination_stimuli/002660_2014-06-13_15-44-18_094959634447_rgbf001878-resize_2/002660_2014-06-13_15-44-18_094959634447_rgbf001878-resize_2-target.png,depth_discrimination_stimuli/003081_2014-06-15_15-19-16_094959634447_rgbf000150-resize_1/003081_2014-06-15_15-19-16_094959634447_rgbf000150-resize_1-target.png,1000,3.576,3.9125,0,1960,1002,999,1004,995,501,,298748,44,Man
873562,DepthScenes,v2_duration_discrimination,discrim_jsons/v2_shuffled_g0.json,http://54.210.137.18/DepthDuration/v2_depth_discrimination_MTurk/v2_DepthDiscrim_HTML.html#4,4,982,866,1920,1080,10-19-2021,8-33-33,40,depth_discrimination_stimuli/003395_2014-05-20_15-39-18_094959634447_rgbf000101-resize_0/003395_2014-05-20_15-39-18_094959634447_rgbf000101-resize_0-target.png,depth_discrimination_stimuli/003395_2014-05-20_15-39-18_094959634447_rgbf000101-resize_0/003395_2014-05-20_15-39-18_094959634447_rgbf000101-resize_0-target.png,1000,4.835,4.835,2,2607,1001,1000,1001,998,500,,298748,44,Man
873562,DepthScenes,v2_duration_discrimination,discrim_jsons/v2_shuffled_g0.json,http://54.210.137.18/DepthDuration/v2_depth_discrimination_MTurk/v2_DepthDiscrim_HTML.html#4,4,982,866,1920,1080,10-19-2021,8-33-33,40,,,,,,,2607,1001,1000,1001,998,500,,298748,44,Man
