subjID,experimentName,versionName,sequenceName,url,selected_row,windowWidth,windowHeight,screenWidth,screenHeight,startDate,startTime,trial,stimulus_0,stimulus_1,duration,actual_depth_0,actual_depth_1,discrim_choice,trial_RT,log_fixation,log_sceneDuration1,log_mask1,log_sceneDuration2,log_mask2,experimentTime,totalTime,age,gender
658998,DepthScenes,v2_duration_discrimination,discrim_jsons/v2_shuffled_g0_rotated_dr.json,http://54.210.137.18/DepthDuration/v2_depth_discrimination_MTurk/v2_DepthDiscrim_HTML.html#2,2,1920,866,1920,1080,10-16-2021,7-33-30,1,depth_discrimination_stimuli/002444_2014-06-28_20-32-08_260595134347_rgbf000027-resize_0/002444_2014-06-28_20-32-08_260595134347_rgbf000027-resize_0-target.png,depth_discrimination_stimuli/002103_2014-06-25_20-00-40_260595134347_rgbf000049-resize_0/002103_2014-06-25_20-00-40_260595134347_rgbf000049-resize_0-target.png,1000,4.389,4.105,1,1862,1002,1000,999,999,502,,318195,44,Man
658998,DepthScenes,v2_duration_discrimination,discrim_jsons/v2_shuffled_g0_rotated_dr.json,http://54.210.137.18/DepthDuration/v2_depth_discrimination_MTurk/v2_DepthDiscrim_HTML.html#2,2,1920,866,1920,1080,10-16-2021,7-33-30,2,depth_discrimination_stimuli/000943_2014-06-09_19-31-07_260595134347_rgbf000128-resize_1/000943_2014-06-09_19-31-07_260595134347_rgbf000128-resize_1-target.png,depth_discrimination_stimuli/001532_2014-06-20_16-50-41_260595134347_rgbf000081-resize_4/001532_2014-06-20_16-50-41_260595134347_rgbf000081-resize_4-target.png,250,1.9765,1.5758333333333,1,1362,1000,255,996,253,495,,318195,44,Man
658998,DepthScenes,v2_duration_discrimination,discrim_jsons/v2_shuffled_g0_rotated_dr.json,http://54.210.137.18/DepthDuration/v2_depth_discrimination_MTurk/v2_DepthDiscrim_HTML.html#2,2,1920,866,1920,1080,10-16-2021,7-33-30,3,depth_discrimination_stimuli/000742_2014-06-08_18-48-09_260595134347_rgbf000164-resize_4/000742_2014-06-08_18-48-09_260595134347_rgbf000164-resize_4-target.png,depth_discrimination_stimuli/003083_2014-06-15_15-21-03_094959634447_rgbf000063-resize_1/003083_2014-06-15_15-21-03_094959634447_rgbf000063-resize_1-target.png,1000,4.632,4.1405,0,1871,1004,1000,998,1002,500,,318195,44,Man
658998,DepthScenes,v2_duration_discrimination,discrim_jsons/v2_shuffled_g0_rotated_dr.json,http://54.210.137.18/DepthDuration/v2_depth_discrimination_MTurk/v2_DepthDiscrim_HTML.html#2,2,1920,866,1920,1080,10-16-2021,7-33-30,4,depth_discrimination_stimuli/001011_2014-06-08_23-18-54_260595134347_rgbf000044-resize_4/001011_2014-06-08_23-18-54_260595134347_rgbf000044-resize_4-target.png,depth_discrimination_stimuli/002043_2014-06-24_20-29-38_260595134347_rgbf000039-resize_4/002043_2014-06-24_20-29-38_260595134347_rgbf000039-resize_4-target.png,1000,2.473,2.8435,0,1885,1005,999,1000,1000,500,,318195,44,Man
658998,DepthScenes,v2_duration_discrimination,discrim_jsons/v2_shuffled_g0_rotated_dr.json,http://54.210.137.18/DepthDuration/v2_depth_discrimination_MTurk/v2_DepthDiscrim_HTML.html#2,2,1920,866,1920,1080,10-16-2021,7-33-30,5,depth_discrimination_stimuli/000953_2014-06-08_11-42-19_260595134347_rgbf000083-resize_0/000953_2014-06-08_11-42-19_260595134347_rgbf000083-resize_0-target.png,depth_discrimination_stimuli/000953_2014-06-08_11-42-19_260595134347_rgbf000083-resize_0/000953_2014-06-08_11-42-19_260595134347_rgbf000083-resize_0-target.png,250,1.369,1.369,1,1165,1001,254,1000,248,499,,318195,44,Man
658998,DepthScenes,v2_duration_discrimination,discrim_jsons/v2_shuffled_g0_rotated_dr.json,http://54.210.137.18/DepthDuration/v2_depth_discrimination_MTurk/v2_DepthDiscrim_HTML.html#2,2,1920,866,1920,1080,10-16-2021,7-33-30,6,depth_discrimination_stimuli/000109_2014-05-14_23-41-52_260595134347_rgbf000035-resize_9/000109_2014-05-14_23-41-52_260595134347_rgbf000035-resize_9-target.png,depth_discrimination_stimuli/001618_2014-06-20_11-37-31_260595134347_rgbf000027-resize_3/001618_2014-06-20_11-37-31_260595134347_rgbf000027-resize_3-target.png,1000,1.3545,1.8725,0,2079,1001,1005,1000,995,500,,318195,44,Man
658998,DepthScenes,v2_duration_discrimination,discrim_jsons/v2_shuffled_g0_rotated_dr.json,http://54.210.137.18/DepthDuration/v2_depth_discrimination_MTurk/v2_DepthDiscrim_HTML.html#2,2,1920,866,1920,1080,10-16-2021,7-33-30,7,depth_discrimination_stimuli/000502_2014-06-08_23-02-32_260595134347_rgbf000063-resize_4/000502_2014-06-08_23-02-32_260595134347_rgbf000063-resize_4-target.png,depth_discrimination_stimuli/001092_2014-06-15_17-34-58_260595134347_rgbf000171-resize_3/001092_2014-06-15_17-34-58_260595134347_rgbf000171-resize_3-target.png,250,2.431,2.6935,0,1619,1002,250,1000,251,499,,318195,44,Man
658998,DepthScenes,v2_duration_discrimination,discrim_jsons/v2_shuffled_g0_rotated_dr.json,http://54.210.137.18/DepthDuration/v2_depth_discrimination_MTurk/v2_DepthDiscrim_HTML.html#2,2,1920,866,1920,1080,10-16-2021,7-33-30,8,depth_discrimination_stimuli/000454_2014-06-08_16-37-28_260595134347_rgbf000048-resize_2/000454_2014-06-08_16-37-28_260595134347_rgbf000048-resize_2-target.png,depth_discrimination_stimuli/000454_2014-06-08_16-37-28_260595134347_rgbf000048-resize_2/000454_2014-06-08_16-37-28_260595134347_rgbf000048-resize_2-target.png,1000,1.213,1.213,1,1783,1001,1005,996,1001,498,,318195,44,Man
658998,DepthScenes,v2_duration_discrimination,discrim_jsons/v2_shuffled_g0_rotated_dr.json,http://54.210.137.18/DepthDuration/v2_depth_discrimination_MTurk/v2_DepthDiscrim_HTML.html#2,2,1920,866,1920,1080,10-16-2021,7-33-30,9,depth_discrimination_stimuli/000869_2014-06-09_20-50-18_260595134347_rgbf000060-resize_3/000869_2014-06-09_20-50-18_260595134347_rgbf000060-resize_3-target.png,depth_discrimination_stimuli/000800_2014-06-08_22-42-09_260595134347_rgbf000095-resize_3/000800_2014-06-08_22-42-09_260595134347_rgbf000095-resize_3-target.png,250,2.266,2.8,0,1165,1004,250,1000,249,503,,318195,44,Man
658998,DepthScenes,v2_duration_discrimination,discrim_jsons/v2_shuffled_g0_rotated_dr.json,http://54.210.137.18/DepthDuration/v2_depth_discrimination_MTurk/v2_DepthDiscrim_HTML.html#2,2,1920,866,1920,1080,10-16-2021,7-33-30,10,depth_discrimination_stimuli/001056_2014-06-08_18-46-44_260595134347_rgbf000068-resize_0/001056_2014-06-08_18-46-44_260595134347_rgbf000068-resize_0-target.png,depth_discrimination_stimuli/000749_2014-06-08_21-55-06_260595134347_rgbf000070-resize_2/000749_2014-06-08_21-55-06_260595134347_rgbf000070-resize_2-target.png,250,2.6625,2.331,1,1121,1001,253,999,249,501,,318195,44,Man
658998,DepthScenes,v2_duration_discrimination,discrim_jsons/v2_shuffled_g0_rotated_dr.json,http://54.210.137.18/DepthDuration/v2_depth_discrimination_MTurk/v2_DepthDiscrim_HTML.html#2,2,1920,866,1920,1080,10-16-2021,7-33-30,11,depth_discrimination_stimuli/001055_2014-06-08_18-45-35_260595134347_rgbf000111-resize_4/001055_2014-06-08_18-45-35_260595134347_rgbf000111-resize_4-target.png,depth_discrimination_stimuli/000929_2014-06-09_16-33-19_260595134347_rgbf000139-resize_0/000929_2014-06-09_16-33-19_260595134347_rgbf000139-resize_0-target.png,250,2.429,2.868,1,1076,1002,249,1003,249,499,,318195,44,Man
658998,DepthScenes,v2_duration_discrimination,discrim_jsons/v2_shuffled_g0_rotated_dr.json,http://54.210.137.18/DepthDuration/v2_depth_discrimination_MTurk/v2_DepthDiscrim_HTML.html#2,2,1920,866,1920,1080,10-16-2021,7-33-30,12,depth_discrimination_stimuli/000470_2014-06-09_19-42-40_260595134347_rgbf000094-resize_1/000470_2014-06-09_19-42-40_260595134347_rgbf000094-resize_1-target.png,depth_discrimination_stimuli/002953_2014-06-08_17-32-18_094959634447_rgbf000059-resize_5/002953_2014-06-08_17-32-18_094959634447_rgbf000059-resize_5-target.png,1000,1.831,1.551,1,1783,1000,1004,996,1001,503,,318195,44,Man
658998,DepthScenes,v2_duration_discrimination,discrim_jsons/v2_shuffled_g0_rotated_dr.json,http://54.210.137.18/DepthDuration/v2_depth_discrimination_MTurk/v2_DepthDiscrim_HTML.html#2,2,1920,866,1920,1080,10-16-2021,7-33-30,13,depth_discrimination_stimuli/002905_2014-06-03_18-04-43_094959634447_rgbf000151-resize_2/002905_2014-06-03_18-04-43_094959634447_rgbf000151-resize_2-target.png,depth_discrimination_stimuli/002340_2014-06-28_20-05-46_260595134347_rgbf000113-resize_0/002340_2014-06-28_20-05-46_260595134347_rgbf000113-resize_0-target.png,250,2.0295,2.4735,0,1151,1002,253,999,251,497,,318195,44,Man
658998,DepthScenes,v2_duration_discrimination,discrim_jsons/v2_shuffled_g0_rotated_dr.json,http://54.210.137.18/DepthDuration/v2_depth_discrimination_MTurk/v2_DepthDiscrim_HTML.html#2,2,1920,866,1920,1080,10-16-2021,7-33-30,14,depth_discrimination_stimuli/002039_2014-06-24_20-22-38_260595134347_rgbf000084-resize_1/002039_2014-06-24_20-22-38_260595134347_rgbf000084-resize_1-target.png,depth_discrimination_stimuli/000691_2014-06-08_13-08-50_260595134347_rgbf000132-resize_3/000691_2014-06-08_13-08-50_260595134347_rgbf000132-resize_3-target.png,250,4.408,4.153,0,1244,1000,251,998,251,501,,318195,44,Man
658998,DepthScenes,v2_duration_discrimination,discrim_jsons/v2_shuffled_g0_rotated_dr.json,http://54.210.137.18/DepthDuration/v2_depth_discrimination_MTurk/v2_DepthDiscrim_HTML.html#2,2,1920,866,1920,1080,10-16-2021,7-33-30,15,depth_discrimination_stimuli/001164_2014-06-17_15-35-46_260595134347_rgbf000085-resize_3/001164_2014-06-17_15-35-46_260595134347_rgbf000085-resize_3-target.png,depth_discrimination_stimuli/002118_2014-06-25_20-32-08_260595134347_rgbf000078-resize_1/002118_2014-06-25_20-32-08_260595134347_rgbf000078-resize_1-target.png,250,2.354,2.646,1,1254,1002,253,1000,246,500,,318195,44,Man
658998,DepthScenes,v2_duration_discrimination,discrim_jsons/v2_shuffled_g0_rotated_dr.json,http://54.210.137.18/DepthDuration/v2_depth_discrimination_MTurk/v2_DepthDiscrim_HTML.html#2,2,1920,866,1920,1080,10-16-2021,7-33-30,16,depth_discrimination_stimuli/000569_2014-06-09_22-51-47_260595134347_rgbf000141-resize_3/000569_2014-06-09_22-51-47_260595134347_rgbf000141-resize_3-target.png,depth_discrimination_stimuli/000569_2014-06-09_22-51-47_260595134347_rgbf000141-resize_3/000569_2014-06-09_22-51-47_260595134347_rgbf000141-resize_3-target.png,250,4.512,4.512,3,1663,1002,250,1000,248,501,,318195,44,Man
658998,DepthScenes,v2_duration_discrimination,discrim_jsons/v2_shuffled_g0_rotated_dr.json,http://54.210.137.18/DepthDuration/v2_depth_discrimination_MTurk/v2_DepthDiscrim_HTML.html#2,2,1920,866,1920,1080,10-16-2021,7-33-30,17,depth_discrimination_stimuli/000709_2014-06-08_13-51-55_260595134347_rgbf000068-resize_3/000709_2014-06-08_13-51-55_260595134347_rgbf000068-resize_3-target.png,depth_discrimination_stimuli/003587_2014-05-23_16-48-02_094959634447_rgbf002384-resize_2/003587_2014-05-23_16-48-02_094959634447_rgbf002384-resize_2-target.png,250,1.803,1.357,1,1077,1002,251,998,253,495,,318195,44,Man
658998,DepthScenes,v2_duration_discrimination,discrim_jsons/v2_shuffled_g0_rotated_dr.json,http://54.210.137.18/DepthDuration/v2_depth_discrimination_MTurk/v2_DepthDiscrim_HTML.html#2,2,1920,866,1920,1080,10-16-2021,7-33-30,18,depth_discrimination_stimuli/000409_2014-06-04_19-23-33_260595134347_rgbf000067-resize_0/000409_2014-06-04_19-23-33_260595134347_rgbf000067-resize_0-target.png,depth_discrimination_stimuli/000493_2014-06-09_21-01-18_260595134347_rgbf000196-resize_3/000493_2014-06-09_21-01-18_260595134347_rgbf000196-resize_3-target.png,1000,3.7335,3.44,1,1858,1001,1000,999,1003,497,,318195,44,Man
658998,DepthScenes,v2_duration_discrimination,discrim_jsons/v2_shuffled_g0_rotated_dr.json,http://54.210.137.18/DepthDuration/v2_depth_discrimination_MTurk/v2_DepthDiscrim_HTML.html#2,2,1920,866,1920,1080,10-16-2021,7-33-30,19,depth_discrimination_stimuli/002675_2014-06-13_16-08-49_094959634447_rgbf000151-resize_2/002675_2014-06-13_16-08-49_094959634447_rgbf000151-resize_2-target.png,depth_discrimination_stimuli/002675_2014-06-13_16-08-49_094959634447_rgbf000151-resize_2/002675_2014-06-13_16-08-49_094959634447_rgbf000151-resize_2-target.png,1000,4.5065,4.5065,3,1964,1004,997,999,1003,502,,318195,44,Man
658998,DepthScenes,v2_duration_discrimination,discrim_jsons/v2_shuffled_g0_rotated_dr.json,http://54.210.137.18/DepthDuration/v2_depth_discrimination_MTurk/v2_DepthDiscrim_HTML.html#2,2,1920,866,1920,1080,10-16-2021,7-33-30,20,depth_discrimination_stimuli/001016_2014-06-09_16-16-10_260595134347_rgbf000112-resize_5/001016_2014-06-09_16-16-10_260595134347_rgbf000112-resize_5-target.png,depth_discrimination_stimuli/002199_2014-06-28_18-33-56_260595134347_rgbf000074-resize_0/002199_2014-06-28_18-33-56_260595134347_rgbf000074-resize_0-target.png,1000,1.6565,1.996,1,1889,1000,1004,995,1001,501,,318195,44,Man
658998,DepthScenes,v2_duration_discrimination,discrim_jsons/v2_shuffled_g0_rotated_dr.json,http://54.210.137.18/DepthDuration/v2_depth_discrimination_MTurk/v2_DepthDiscrim_HTML.html#2,2,1920,866,1920,1080,10-16-2021,7-33-30,21,depth_discrimination_stimuli/000542_2014-06-08_18-27-08_260595134347_rgbf000118-resize_1/000542_2014-06-08_18-27-08_260595134347_rgbf000118-resize_1-target.png,depth_discrimination_stimuli/003292_2014-05-14_21-53-49_094959634447_rgbf000100-resize_2/003292_2014-05-14_21-53-49_094959634447_rgbf000100-resize_2-target.png,250,3,3.4815,1,1104,1003,249,1004,246,502,,318195,44,Man
658998,DepthScenes,v2_duration_discrimination,discrim_jsons/v2_shuffled_g0_rotated_dr.json,http://54.210.137.18/DepthDuration/v2_depth_discrimination_MTurk/v2_DepthDiscrim_HTML.html#2,2,1920,866,1920,1080,10-16-2021,7-33-30,22,depth_discrimination_stimuli/000866_2014-06-09_20-45-42_260595134347_rgbf000139-resize_1/000866_2014-06-09_20-45-42_260595134347_rgbf000139-resize_1-target.png,depth_discrimination_stimuli/003490_2014-05-21_15-50-11_094959634447_rgbf000101-resize_3/003490_2014-05-21_15-50-11_094959634447_rgbf000101-resize_3-target.png,250,3.2155,3.6445,1,1090,1002,250,1001,250,497,,318195,44,Man
658998,DepthScenes,v2_duration_discrimination,discrim_jsons/v2_shuffled_g0_rotated_dr.json,http://54.210.137.18/DepthDuration/v2_depth_discrimination_MTurk/v2_DepthDiscrim_HTML.html#2,2,1920,866,1920,1080,10-16-2021,7-33-30,23,depth_discrimination_stimuli/002414_2014-06-28_20-24-58_260595134347_rgbf000067-resize_4/002414_2014-06-28_20-24-58_260595134347_rgbf000067-resize_4-target.png,depth_discrimination_stimuli/001450_2014-06-19_17-02-03_260595134347_rgbf000203-resize_4/001450_2014-06-19_17-02-03_260595134347_rgbf000203-resize_4-target.png,1000,4.363,4.0106666666667,0,1874,1001,999,1000,1003,499,,318195,44,Man
658998,DepthScenes,v2_duration_discrimination,discrim_jsons/v2_shuffled_g0_rotated_dr.json,http://54.210.137.18/DepthDuration/v2_depth_discrimination_MTurk/v2_DepthDiscrim_HTML.html#2,2,1920,866,1920,1080,10-16-2021,7-33-30,24,depth_discrimination_stimuli/001498_2014-06-19_17-45-14_260595134347_rgbf000129-resize_4/001498_2014-06-19_17-45-14_260595134347_rgbf000129-resize_4-target.png,depth_discrimination_stimuli/001498_2014-06-19_17-45-14_260595134347_rgbf000129-resize_4/001498_2014-06-19_17-45-14_260595134347_rgbf000129-resize_4-target.png,1000,1.4075,1.4075,3,2024,1001,1004,997,1003,499,,318195,44,Man
658998,DepthScenes,v2_duration_discrimination,discrim_jsons/v2_shuffled_g0_rotated_dr.json,http://54.210.137.18/DepthDuration/v2_depth_discrimination_MTurk/v2_DepthDiscrim_HTML.html#2,2,1920,866,1920,1080,10-16-2021,7-33-30,25,depth_discrimination_stimuli/002509_2014-06-24_13-19-22_094959634447_rgbf000077-resize_0/002509_2014-06-24_13-19-22_094959634447_rgbf000077-resize_0-target.png,depth_discrimination_stimuli/000549_2014-06-08_22-10-24_260595134347_rgbf000247-resize_3/000549_2014-06-08_22-10-24_260595134347_rgbf000247-resize_3-target.png,250,1.3065,1.841,1,1165,1002,253,998,249,500,,318195,44,Man
658998,DepthScenes,v2_duration_discrimination,discrim_jsons/v2_shuffled_g0_rotated_dr.json,http://54.210.137.18/DepthDuration/v2_depth_discrimination_MTurk/v2_DepthDiscrim_HTML.html#2,2,1920,866,1920,1080,10-16-2021,7-33-30,26,depth_discrimination_stimuli/001148_2014-06-17_15-26-42_260595134347_rgbf000129-resize_0/001148_2014-06-17_15-26-42_260595134347_rgbf000129-resize_0-target.png,depth_discrimination_stimuli/000556_2014-06-09_22-42-56_260595134347_rgbf000214-resize_1/000556_2014-06-09_22-42-56_260595134347_rgbf000214-resize_1-target.png,250,4.368,4.8415,0,1288,1003,250,997,250,499,,318195,44,Man
658998,DepthScenes,v2_duration_discrimination,discrim_jsons/v2_shuffled_g0_rotated_dr.json,http://54.210.137.18/DepthDuration/v2_depth_discrimination_MTurk/v2_DepthDiscrim_HTML.html#2,2,1920,866,1920,1080,10-16-2021,7-33-30,27,depth_discrimination_stimuli/001136_2014-06-17_15-19-41_260595134347_rgbf000076-resize_3/001136_2014-06-17_15-19-41_260595134347_rgbf000076-resize_3-target.png,depth_discrimination_stimuli/002549_2014-06-24_13-41-39_094959634447_rgbf000022-resize_3/002549_2014-06-24_13-41-39_094959634447_rgbf000022-resize_3-target.png,250,1.8655,1.476,1,1124,1000,249,1001,253,500,,318195,44,Man
658998,DepthScenes,v2_duration_discrimination,discrim_jsons/v2_shuffled_g0_rotated_dr.json,http://54.210.137.18/DepthDuration/v2_depth_discrimination_MTurk/v2_DepthDiscrim_HTML.html#2,2,1920,866,1920,1080,10-16-2021,7-33-30,28,depth_discrimination_stimuli/002072_2014-06-24_21-48-06_260595134347_rgbf000115-resize_0/002072_2014-06-24_21-48-06_260595134347_rgbf000115-resize_0-target.png,depth_discrimination_stimuli/002072_2014-06-24_21-48-06_260595134347_rgbf000115-resize_0/002072_2014-06-24_21-48-06_260595134347_rgbf000115-resize_0-target.png,250,4.702,4.702,3,1241,1001,254,1000,249,498,,318195,44,Man
658998,DepthScenes,v2_duration_discrimination,discrim_jsons/v2_shuffled_g0_rotated_dr.json,http://54.210.137.18/DepthDuration/v2_depth_discrimination_MTurk/v2_DepthDiscrim_HTML.html#2,2,1920,866,1920,1080,10-16-2021,7-33-30,29,depth_discrimination_stimuli/001584_2014-06-20_11-07-43_260595134347_rgbf000002-resize_1/001584_2014-06-20_11-07-43_260595134347_rgbf000002-resize_1-target.png,depth_discrimination_stimuli/002805_2014-06-22_19-54-03_094959634447_rgbf000079-resize_1/002805_2014-06-22_19-54-03_094959634447_rgbf000079-resize_1-target.png,1000,3.53,3.144,0,1794,1004,997,1003,998,499,,318195,44,Man
658998,DepthScenes,v2_duration_discrimination,discrim_jsons/v2_shuffled_g0_rotated_dr.json,http://54.210.137.18/DepthDuration/v2_depth_discrimination_MTurk/v2_DepthDiscrim_HTML.html#2,2,1920,866,1920,1080,10-16-2021,7-33-30,30,depth_discrimination_stimuli/002949_2014-06-26_15-57-42_094959634447_rgbf000079-resize_1/002949_2014-06-26_15-57-42_094959634447_rgbf000079-resize_1-target.png,depth_discrimination_stimuli/003495_2014-05-21_16-01-51_094959634447_rgbf000100-resize_3/003495_2014-05-21_16-01-51_094959634447_rgbf000100-resize_3-target.png,1000,1.8915,1.6255,1,1887,1004,997,1001,999,501,,318195,44,Man
658998,DepthScenes,v2_duration_discrimination,discrim_jsons/v2_shuffled_g0_rotated_dr.json,http://54.210.137.18/DepthDuration/v2_depth_discrimination_MTurk/v2_DepthDiscrim_HTML.html#2,2,1920,866,1920,1080,10-16-2021,7-33-30,31,depth_discrimination_stimuli/000137_2014-05-20_17-04-49_260595134347_rgbf000120-resize_1/000137_2014-05-20_17-04-49_260595134347_rgbf000120-resize_1-target.png,depth_discrimination_stimuli/003423_2014-05-21_10-23-26_094959634447_rgbf002665-resize_2/003423_2014-05-21_10-23-26_094959634447_rgbf002665-resize_2-target.png,1000,3.786,3.2575,1,2233,1005,995,1001,999,503,,318195,44,Man
658998,DepthScenes,v2_duration_discrimination,discrim_jsons/v2_shuffled_g0_rotated_dr.json,http://54.210.137.18/DepthDuration/v2_depth_discrimination_MTurk/v2_DepthDiscrim_HTML.html#2,2,1920,866,1920,1080,10-16-2021,7-33-30,32,depth_discrimination_stimuli/001235_2014-06-17_16-37-36_260595134347_rgbf000084-resize_4/001235_2014-06-17_16-37-36_260595134347_rgbf000084-resize_4-target.png,depth_discrimination_stimuli/001197_2014-06-17_16-01-50_260595134347_rgbf000103-resize_4/001197_2014-06-17_16-01-50_260595134347_rgbf000103-resize_4-target.png,1000,3.6605,3.4025,1,2230,1002,1001,1002,995,503,,318195,44,Man
658998,DepthScenes,v2_duration_discrimination,discrim_jsons/v2_shuffled_g0_rotated_dr.json,http://54.210.137.18/DepthDuration/v2_depth_discrimination_MTurk/v2_DepthDiscrim_HTML.html#2,2,1920,866,1920,1080,10-16-2021,7-33-30,33,depth_discrimination_stimuli/001133_2014-06-17_14-49-16_260595134347_rgbf000100-resize_0/001133_2014-06-17_14-49-16_260595134347_rgbf000100-resize_0-target.png,depth_discrimination_stimuli/002467_2014-06-28_20-38-07_260595134347_rgbf000026-resize_2/002467_2014-06-28_20-38-07_260595134347_rgbf000026-resize_2-target.png,1000,4.2115,4.742,0,2443,1001,1000,1000,1003,501,,318195,44,Man
658998,DepthScenes,v2_duration_discrimination,discrim_jsons/v2_shuffled_g0_rotated_dr.json,http://54.210.137.18/DepthDuration/v2_depth_discrimination_MTurk/v2_DepthDiscrim_HTML.html#2,2,1920,866,1920,1080,10-16-2021,7-33-30,34,depth_discrimination_stimuli/002748_2014-06-22_19-07-22_094959634447_rgbf000078-resize_1/002748_2014-06-22_19-07-22_094959634447_rgbf000078-resize_1-target.png,depth_discrimination_stimuli/001808_2014-06-26_20-50-58_260595134347_rgbf000029-resize_1/001808_2014-06-26_20-50-58_260595134347_rgbf000029-resize_1-target.png,1000,4.6705,4.249,1,1840,1001,1002,1002,996,504,,318195,44,Man
658998,DepthScenes,v2_duration_discrimination,discrim_jsons/v2_shuffled_g0_rotated_dr.json,http://54.210.137.18/DepthDuration/v2_depth_discrimination_MTurk/v2_DepthDiscrim_HTML.html#2,2,1920,866,1920,1080,10-16-2021,7-33-30,35,depth_discrimination_stimuli/003395_2014-05-20_15-39-18_094959634447_rgbf000101-resize_0/003395_2014-05-20_15-39-18_094959634447_rgbf000101-resize_0-target.png,depth_discrimination_stimuli/003395_2014-05-20_15-39-18_094959634447_rgbf000101-resize_0/003395_2014-05-20_15-39-18_094959634447_rgbf000101-resize_0-target.png,1000,4.835,4.835,3,1946,1005,994,1003,1001,496,,318195,44,Man
658998,DepthScenes,v2_duration_discrimination,discrim_jsons/v2_shuffled_g0_rotated_dr.json,http://54.210.137.18/DepthDuration/v2_depth_discrimination_MTurk/v2_DepthDiscrim_HTML.html#2,2,1920,866,1920,1080,10-16-2021,7-33-30,36,depth_discrimination_stimuli/001170_2014-06-17_15-43-44_260595134347_rgbf000096-resize_6/001170_2014-06-17_15-43-44_260595134347_rgbf000096-resize_6-target.png,depth_discrimination_stimuli/001170_2014-06-17_15-43-44_260595134347_rgbf000096-resize_6/001170_2014-06-17_15-43-44_260595134347_rgbf000096-resize_6-target.png,250,1.191,1.191,3,1286,1006,246,1002,247,499,,318195,44,Man
658998,DepthScenes,v2_duration_discrimination,discrim_jsons/v2_shuffled_g0_rotated_dr.json,http://54.210.137.18/DepthDuration/v2_depth_discrimination_MTurk/v2_DepthDiscrim_HTML.html#2,2,1920,866,1920,1080,10-16-2021,7-33-30,37,depth_discrimination_stimuli/002678_2014-06-13_16-15-32_094959634447_rgbf000151-resize_6/002678_2014-06-13_16-15-32_094959634447_rgbf000151-resize_6-target.png,depth_discrimination_stimuli/000927_2014-06-09_16-32-30_260595134347_rgbf000123-resize_3/000927_2014-06-09_16-32-30_260595134347_rgbf000123-resize_3-target.png,1000,2.183,2.6785,1,1916,1006,996,1002,1000,501,,318195,44,Man
658998,DepthScenes,v2_duration_discrimination,discrim_jsons/v2_shuffled_g0_rotated_dr.json,http://54.210.137.18/DepthDuration/v2_depth_discrimination_MTurk/v2_DepthDiscrim_HTML.html#2,2,1920,866,1920,1080,10-16-2021,7-33-30,38,depth_discrimination_stimuli/003081_2014-06-15_15-19-16_094959634447_rgbf000150-resize_1/003081_2014-06-15_15-19-16_094959634447_rgbf000150-resize_1-target.png,depth_discrimination_stimuli/002660_2014-06-13_15-44-18_094959634447_rgbf001878-resize_2/002660_2014-06-13_15-44-18_094959634447_rgbf001878-resize_2-target.png,250,3.9125,3.576,1,1195,1005,246,1003,248,502,,318195,44,Man
658998,DepthScenes,v2_duration_discrimination,discrim_jsons/v2_shuffled_g0_rotated_dr.json,http://54.210.137.18/DepthDuration/v2_depth_discrimination_MTurk/v2_DepthDiscrim_HTML.html#2,2,1920,866,1920,1080,10-16-2021,7-33-30,39,depth_discrimination_stimuli/001181_2014-06-17_15-50-57_260595134347_rgbf000106-resize_4/001181_2014-06-17_15-50-57_260595134347_rgbf000106-resize_4-target.png,depth_discrimination_stimuli/001158_2014-06-17_15-32-16_260595134347_rgbf000138-resize_2/001158_2014-06-17_15-32-16_260595134347_rgbf000138-resize_2-target.png,1000,4.149,4.5315,0,1858,1002,999,1000,1005,494,,318195,44,Man
658998,DepthScenes,v2_duration_discrimination,discrim_jsons/v2_shuffled_g0_rotated_dr.json,http://54.210.137.18/DepthDuration/v2_depth_discrimination_MTurk/v2_DepthDiscrim_HTML.html#2,2,1920,866,1920,1080,10-16-2021,7-33-30,40,depth_discrimination_stimuli/001032_2014-06-08_13-23-17_260595134347_rgbf000021-resize_3/001032_2014-06-08_13-23-17_260595134347_rgbf000021-resize_3-target.png,depth_discrimination_stimuli/002323_2014-06-28_20-01-54_260595134347_rgbf000051-resize_4/002323_2014-06-28_20-01-54_260595134347_rgbf000051-resize_4-target.png,1000,3.2725,3.731,0,1854,1001,1000,1004,994,500,,318195,44,Man
658998,DepthScenes,v2_duration_discrimination,discrim_jsons/v2_shuffled_g0_rotated_dr.json,http://54.210.137.18/DepthDuration/v2_depth_discrimination_MTurk/v2_DepthDiscrim_HTML.html#2,2,1920,866,1920,1080,10-16-2021,7-33-30,40,,,,,,,1854,1001,1000,1004,994,500,,318195,44,Man
