subjID,experimentName,versionName,sequenceName,url,selected_row,windowWidth,windowHeight,screenWidth,screenHeight,startDate,startTime,trial,stimulus_0,stimulus_1,duration,actual_depth_0,actual_depth_1,discrim_choice,trial_RT,log_fixation,log_sceneDuration1,log_mask1,log_sceneDuration2,log_mask2,experimentTime,totalTime,age,gender
766102,DepthScenes,v2_duration_discrimination,discrim_jsons/v2_shuffled_g0_rotated.json,http://54.210.137.18/DepthDuration/v2_depth_discrimination_MTurk/v2_DepthDiscrim_HTML.html#3,3,2049,986,1366,768,10-17-2021,5-30-13,2,depth_discrimination_stimuli/000109_2014-05-14_23-41-52_260595134347_rgbf000035-resize_9/000109_2014-05-14_23-41-52_260595134347_rgbf000035-resize_9-target.png,depth_discrimination_stimuli/001618_2014-06-20_11-37-31_260595134347_rgbf000027-resize_3/001618_2014-06-20_11-37-31_260595134347_rgbf000027-resize_3-target.png,250,1.3545,1.8725,0,3700,173,25,1000,1000,500,,43307,24,Woman
766102,DepthScenes,v2_duration_discrimination,discrim_jsons/v2_shuffled_g0_rotated.json,http://54.210.137.18/DepthDuration/v2_depth_discrimination_MTurk/v2_DepthDiscrim_HTML.html#3,3,2049,986,1366,768,10-17-2021,5-30-13,3,depth_discrimination_stimuli/000502_2014-06-08_23-02-32_260595134347_rgbf000063-resize_4/000502_2014-06-08_23-02-32_260595134347_rgbf000063-resize_4-target.png,depth_discrimination_stimuli/001092_2014-06-15_17-34-58_260595134347_rgbf000171-resize_3/001092_2014-06-15_17-34-58_260595134347_rgbf000171-resize_3-target.png,1000,2.431,2.6935,0,3700,173,51,1000,1000,500,,43307,24,Woman
766102,DepthScenes,v2_duration_discrimination,discrim_jsons/v2_shuffled_g0_rotated.json,http://54.210.137.18/DepthDuration/v2_depth_discrimination_MTurk/v2_DepthDiscrim_HTML.html#3,3,2049,986,1366,768,10-17-2021,5-30-13,4,depth_discrimination_stimuli/000953_2014-06-08_11-42-19_260595134347_rgbf000083-resize_0/000953_2014-06-08_11-42-19_260595134347_rgbf000083-resize_0-target.png,depth_discrimination_stimuli/000953_2014-06-08_11-42-19_260595134347_rgbf000083-resize_0/000953_2014-06-08_11-42-19_260595134347_rgbf000083-resize_0-target.png,250,1.369,1.369,0,3700,111,71,1000,1000,500,,43307,24,Woman
766102,DepthScenes,v2_duration_discrimination,discrim_jsons/v2_shuffled_g0_rotated.json,http://54.210.137.18/DepthDuration/v2_depth_discrimination_MTurk/v2_DepthDiscrim_HTML.html#3,3,2049,986,1366,768,10-17-2021,5-30-13,5,depth_discrimination_stimuli/000742_2014-06-08_18-48-09_260595134347_rgbf000164-resize_4/000742_2014-06-08_18-48-09_260595134347_rgbf000164-resize_4-target.png,depth_discrimination_stimuli/003083_2014-06-15_15-21-03_094959634447_rgbf000063-resize_1/003083_2014-06-15_15-21-03_094959634447_rgbf000063-resize_1-target.png,250,4.632,4.1405,0,3700,111,71,1000,1000,500,,43307,24,Woman
766102,DepthScenes,v2_duration_discrimination,discrim_jsons/v2_shuffled_g0_rotated.json,http://54.210.137.18/DepthDuration/v2_depth_discrimination_MTurk/v2_DepthDiscrim_HTML.html#3,3,2049,986,1366,768,10-17-2021,5-30-13,6,depth_discrimination_stimuli/000943_2014-06-09_19-31-07_260595134347_rgbf000128-resize_1/000943_2014-06-09_19-31-07_260595134347_rgbf000128-resize_1-target.png,depth_discrimination_stimuli/001532_2014-06-20_16-50-41_260595134347_rgbf000081-resize_4/001532_2014-06-20_16-50-41_260595134347_rgbf000081-resize_4-target.png,1000,1.9765,1.5758333333333,1,95,284,40,100,248,61,,43307,24,Woman
766102,DepthScenes,v2_duration_discrimination,discrim_jsons/v2_shuffled_g0_rotated.json,http://54.210.137.18/DepthDuration/v2_depth_discrimination_MTurk/v2_DepthDiscrim_HTML.html#3,3,2049,986,1366,768,10-17-2021,5-30-13,7,depth_discrimination_stimuli/001056_2014-06-08_18-46-44_260595134347_rgbf000068-resize_0/001056_2014-06-08_18-46-44_260595134347_rgbf000068-resize_0-target.png,depth_discrimination_stimuli/000749_2014-06-08_21-55-06_260595134347_rgbf000070-resize_2/000749_2014-06-08_21-55-06_260595134347_rgbf000070-resize_2-target.png,1000,2.6625,2.331,0,91,284,40,171,71,276,,43307,24,Woman
766102,DepthScenes,v2_duration_discrimination,discrim_jsons/v2_shuffled_g0_rotated.json,http://54.210.137.18/DepthDuration/v2_depth_discrimination_MTurk/v2_DepthDiscrim_HTML.html#3,3,2049,986,1366,768,10-17-2021,5-30-13,8,depth_discrimination_stimuli/000869_2014-06-09_20-50-18_260595134347_rgbf000060-resize_3/000869_2014-06-09_20-50-18_260595134347_rgbf000060-resize_3-target.png,depth_discrimination_stimuli/000800_2014-06-08_22-42-09_260595134347_rgbf000095-resize_3/000800_2014-06-08_22-42-09_260595134347_rgbf000095-resize_3-target.png,1000,2.266,2.8,1,15,284,382,177,71,70,,43307,24,Woman
766102,DepthScenes,v2_duration_discrimination,discrim_jsons/v2_shuffled_g0_rotated.json,http://54.210.137.18/DepthDuration/v2_depth_discrimination_MTurk/v2_DepthDiscrim_HTML.html#3,3,2049,986,1366,768,10-17-2021,5-30-13,9,depth_discrimination_stimuli/002444_2014-06-28_20-32-08_260595134347_rgbf000027-resize_0/002444_2014-06-28_20-32-08_260595134347_rgbf000027-resize_0-target.png,depth_discrimination_stimuli/002103_2014-06-25_20-00-40_260595134347_rgbf000049-resize_0/002103_2014-06-25_20-00-40_260595134347_rgbf000049-resize_0-target.png,250,4.389,4.105,1,254,284,382,177,71,506,,43307,24,Woman
766102,DepthScenes,v2_duration_discrimination,discrim_jsons/v2_shuffled_g0_rotated.json,http://54.210.137.18/DepthDuration/v2_depth_discrimination_MTurk/v2_DepthDiscrim_HTML.html#3,3,2049,986,1366,768,10-17-2021,5-30-13,10,depth_discrimination_stimuli/001011_2014-06-08_23-18-54_260595134347_rgbf000044-resize_4/001011_2014-06-08_23-18-54_260595134347_rgbf000044-resize_4-target.png,depth_discrimination_stimuli/002043_2014-06-24_20-29-38_260595134347_rgbf000039-resize_4/002043_2014-06-24_20-29-38_260595134347_rgbf000039-resize_4-target.png,250,2.473,2.8435,1,60,427,998,383,165,153,,43307,24,Woman
766102,DepthScenes,v2_duration_discrimination,discrim_jsons/v2_shuffled_g0_rotated.json,http://54.210.137.18/DepthDuration/v2_depth_discrimination_MTurk/v2_DepthDiscrim_HTML.html#3,3,2049,986,1366,768,10-17-2021,5-30-13,11,depth_discrimination_stimuli/000454_2014-06-08_16-37-28_260595134347_rgbf000048-resize_2/000454_2014-06-08_16-37-28_260595134347_rgbf000048-resize_2-target.png,depth_discrimination_stimuli/000454_2014-06-08_16-37-28_260595134347_rgbf000048-resize_2/000454_2014-06-08_16-37-28_260595134347_rgbf000048-resize_2-target.png,1000,1.213,1.213,1,85,75,246,383,175,45,,43307,24,Woman
766102,DepthScenes,v2_duration_discrimination,discrim_jsons/v2_shuffled_g0_rotated.json,http://54.210.137.18/DepthDuration/v2_depth_discrimination_MTurk/v2_DepthDiscrim_HTML.html#3,3,2049,986,1366,768,10-17-2021,5-30-13,12,depth_discrimination_stimuli/002039_2014-06-24_20-22-38_260595134347_rgbf000084-resize_1/002039_2014-06-24_20-22-38_260595134347_rgbf000084-resize_1-target.png,depth_discrimination_stimuli/000691_2014-06-08_13-08-50_260595134347_rgbf000132-resize_3/000691_2014-06-08_13-08-50_260595134347_rgbf000132-resize_3-target.png,1000,4.408,4.153,0,150,75,246,383,175,155,,43307,24,Woman
766102,DepthScenes,v2_duration_discrimination,discrim_jsons/v2_shuffled_g0_rotated.json,http://54.210.137.18/DepthDuration/v2_depth_discrimination_MTurk/v2_DepthDiscrim_HTML.html#3,3,2049,986,1366,768,10-17-2021,5-30-13,13,depth_discrimination_stimuli/000709_2014-06-08_13-51-55_260595134347_rgbf000068-resize_3/000709_2014-06-08_13-51-55_260595134347_rgbf000068-resize_3-target.png,depth_discrimination_stimuli/003587_2014-05-23_16-48-02_094959634447_rgbf002384-resize_2/003587_2014-05-23_16-48-02_094959634447_rgbf002384-resize_2-target.png,1000,1.803,1.357,0,150,75,246,383,175,155,,43307,24,Woman
766102,DepthScenes,v2_duration_discrimination,discrim_jsons/v2_shuffled_g0_rotated.json,http://54.210.137.18/DepthDuration/v2_depth_discrimination_MTurk/v2_DepthDiscrim_HTML.html#3,3,2049,986,1366,768,10-17-2021,5-30-13,14,depth_discrimination_stimuli/002905_2014-06-03_18-04-43_094959634447_rgbf000151-resize_2/002905_2014-06-03_18-04-43_094959634447_rgbf000151-resize_2-target.png,depth_discrimination_stimuli/002340_2014-06-28_20-05-46_260595134347_rgbf000113-resize_0/002340_2014-06-28_20-05-46_260595134347_rgbf000113-resize_0-target.png,1000,2.0295,2.4735,0,75,97,15,167,35,15,,43307,24,Woman
766102,DepthScenes,v2_duration_discrimination,discrim_jsons/v2_shuffled_g0_rotated.json,http://54.210.137.18/DepthDuration/v2_depth_discrimination_MTurk/v2_DepthDiscrim_HTML.html#3,3,2049,986,1366,768,10-17-2021,5-30-13,15,depth_discrimination_stimuli/000409_2014-06-04_19-23-33_260595134347_rgbf000067-resize_0/000409_2014-06-04_19-23-33_260595134347_rgbf000067-resize_0-target.png,depth_discrimination_stimuli/000493_2014-06-09_21-01-18_260595134347_rgbf000196-resize_3/000493_2014-06-09_21-01-18_260595134347_rgbf000196-resize_3-target.png,250,3.7335,3.44,1,75,118,302,435,388,146,,43307,24,Woman
766102,DepthScenes,v2_duration_discrimination,discrim_jsons/v2_shuffled_g0_rotated.json,http://54.210.137.18/DepthDuration/v2_depth_discrimination_MTurk/v2_DepthDiscrim_HTML.html#3,3,2049,986,1366,768,10-17-2021,5-30-13,16,depth_discrimination_stimuli/002675_2014-06-13_16-08-49_094959634447_rgbf000151-resize_2/002675_2014-06-13_16-08-49_094959634447_rgbf000151-resize_2-target.png,depth_discrimination_stimuli/002675_2014-06-13_16-08-49_094959634447_rgbf000151-resize_2/002675_2014-06-13_16-08-49_094959634447_rgbf000151-resize_2-target.png,1000,4.5065,4.5065,1,76,100,107,0,250,78,,43307,24,Woman
766102,DepthScenes,v2_duration_discrimination,discrim_jsons/v2_shuffled_g0_rotated.json,http://54.210.137.18/DepthDuration/v2_depth_discrimination_MTurk/v2_DepthDiscrim_HTML.html#3,3,2049,986,1366,768,10-17-2021,5-30-13,17,depth_discrimination_stimuli/001016_2014-06-09_16-16-10_260595134347_rgbf000112-resize_5/001016_2014-06-09_16-16-10_260595134347_rgbf000112-resize_5-target.png,depth_discrimination_stimuli/002199_2014-06-28_18-33-56_260595134347_rgbf000074-resize_0/002199_2014-06-28_18-33-56_260595134347_rgbf000074-resize_0-target.png,250,1.6565,1.996,1,250,175,248,161,236,225,,43307,24,Woman
766102,DepthScenes,v2_duration_discrimination,discrim_jsons/v2_shuffled_g0_rotated.json,http://54.210.137.18/DepthDuration/v2_depth_discrimination_MTurk/v2_DepthDiscrim_HTML.html#3,3,2049,986,1366,768,10-17-2021,5-30-13,18,depth_discrimination_stimuli/000470_2014-06-09_19-42-40_260595134347_rgbf000094-resize_1/000470_2014-06-09_19-42-40_260595134347_rgbf000094-resize_1-target.png,depth_discrimination_stimuli/002953_2014-06-08_17-32-18_094959634447_rgbf000059-resize_5/002953_2014-06-08_17-32-18_094959634447_rgbf000059-resize_5-target.png,250,1.831,1.551,0,432,175,348,161,236,423,,43307,24,Woman
766102,DepthScenes,v2_duration_discrimination,discrim_jsons/v2_shuffled_g0_rotated.json,http://54.210.137.18/DepthDuration/v2_depth_discrimination_MTurk/v2_DepthDiscrim_HTML.html#3,3,2049,986,1366,768,10-17-2021,5-30-13,19,depth_discrimination_stimuli/000569_2014-06-09_22-51-47_260595134347_rgbf000141-resize_3/000569_2014-06-09_22-51-47_260595134347_rgbf000141-resize_3-target.png,depth_discrimination_stimuli/000569_2014-06-09_22-51-47_260595134347_rgbf000141-resize_3/000569_2014-06-09_22-51-47_260595134347_rgbf000141-resize_3-target.png,250,4.512,4.512,0,432,175,348,161,236,423,,43307,24,Woman
766102,DepthScenes,v2_duration_discrimination,discrim_jsons/v2_shuffled_g0_rotated.json,http://54.210.137.18/DepthDuration/v2_depth_discrimination_MTurk/v2_DepthDiscrim_HTML.html#3,3,2049,986,1366,768,10-17-2021,5-30-13,20,depth_discrimination_stimuli/001055_2014-06-08_18-45-35_260595134347_rgbf000111-resize_4/001055_2014-06-08_18-45-35_260595134347_rgbf000111-resize_4-target.png,depth_discrimination_stimuli/000929_2014-06-09_16-33-19_260595134347_rgbf000139-resize_0/000929_2014-06-09_16-33-19_260595134347_rgbf000139-resize_0-target.png,1000,2.429,2.868,1,61,67,36,161,236,498,,43307,24,Woman
766102,DepthScenes,v2_duration_discrimination,discrim_jsons/v2_shuffled_g0_rotated.json,http://54.210.137.18/DepthDuration/v2_depth_discrimination_MTurk/v2_DepthDiscrim_HTML.html#3,3,2049,986,1366,768,10-17-2021,5-30-13,21,depth_discrimination_stimuli/001164_2014-06-17_15-35-46_260595134347_rgbf000085-resize_3/001164_2014-06-17_15-35-46_260595134347_rgbf000085-resize_3-target.png,depth_discrimination_stimuli/002118_2014-06-25_20-32-08_260595134347_rgbf000078-resize_1/002118_2014-06-25_20-32-08_260595134347_rgbf000078-resize_1-target.png,1000,2.354,2.646,1,15,25,90,0,253,393,,43307,24,Woman
766102,DepthScenes,v2_duration_discrimination,discrim_jsons/v2_shuffled_g0_rotated.json,http://54.210.137.18/DepthDuration/v2_depth_discrimination_MTurk/v2_DepthDiscrim_HTML.html#3,3,2049,986,1366,768,10-17-2021,5-30-13,22,depth_discrimination_stimuli/000866_2014-06-09_20-45-42_260595134347_rgbf000139-resize_1/000866_2014-06-09_20-45-42_260595134347_rgbf000139-resize_1-target.png,depth_discrimination_stimuli/003490_2014-05-21_15-50-11_094959634447_rgbf000101-resize_3/003490_2014-05-21_15-50-11_094959634447_rgbf000101-resize_3-target.png,1000,3.2155,3.6445,0,152,25,90,50,100,498,,43307,24,Woman
766102,DepthScenes,v2_duration_discrimination,discrim_jsons/v2_shuffled_g0_rotated.json,http://54.210.137.18/DepthDuration/v2_depth_discrimination_MTurk/v2_DepthDiscrim_HTML.html#3,3,2049,986,1366,768,10-17-2021,5-30-13,23,depth_discrimination_stimuli/001584_2014-06-20_11-07-43_260595134347_rgbf000002-resize_1/001584_2014-06-20_11-07-43_260595134347_rgbf000002-resize_1-target.png,depth_discrimination_stimuli/002805_2014-06-22_19-54-03_094959634447_rgbf000079-resize_1/002805_2014-06-22_19-54-03_094959634447_rgbf000079-resize_1-target.png,250,3.53,3.144,1,233,25,90,499,51,191,,43307,24,Woman
766102,DepthScenes,v2_duration_discrimination,discrim_jsons/v2_shuffled_g0_rotated.json,http://54.210.137.18/DepthDuration/v2_depth_discrimination_MTurk/v2_DepthDiscrim_HTML.html#3,3,2049,986,1366,768,10-17-2021,5-30-13,24,depth_discrimination_stimuli/002414_2014-06-28_20-24-58_260595134347_rgbf000067-resize_4/002414_2014-06-28_20-24-58_260595134347_rgbf000067-resize_4-target.png,depth_discrimination_stimuli/001450_2014-06-19_17-02-03_260595134347_rgbf000203-resize_4/001450_2014-06-19_17-02-03_260595134347_rgbf000203-resize_4-target.png,250,4.363,4.0106666666667,1,55,25,1001,76,5,193,,43307,24,Woman
766102,DepthScenes,v2_duration_discrimination,discrim_jsons/v2_shuffled_g0_rotated.json,http://54.210.137.18/DepthDuration/v2_depth_discrimination_MTurk/v2_DepthDiscrim_HTML.html#3,3,2049,986,1366,768,10-17-2021,5-30-13,25,depth_discrimination_stimuli/002072_2014-06-24_21-48-06_260595134347_rgbf000115-resize_0/002072_2014-06-24_21-48-06_260595134347_rgbf000115-resize_0-target.png,depth_discrimination_stimuli/002072_2014-06-24_21-48-06_260595134347_rgbf000115-resize_0/002072_2014-06-24_21-48-06_260595134347_rgbf000115-resize_0-target.png,250,4.702,4.702,1,126,168,86,76,254,25,,43307,24,Woman
766102,DepthScenes,v2_duration_discrimination,discrim_jsons/v2_shuffled_g0_rotated.json,http://54.210.137.18/DepthDuration/v2_depth_discrimination_MTurk/v2_DepthDiscrim_HTML.html#3,3,2049,986,1366,768,10-17-2021,5-30-13,26,depth_discrimination_stimuli/001498_2014-06-19_17-45-14_260595134347_rgbf000129-resize_4/001498_2014-06-19_17-45-14_260595134347_rgbf000129-resize_4-target.png,depth_discrimination_stimuli/001498_2014-06-19_17-45-14_260595134347_rgbf000129-resize_4/001498_2014-06-19_17-45-14_260595134347_rgbf000129-resize_4-target.png,1000,1.4075,1.4075,1,131,168,86,76,254,25,,43307,24,Woman
766102,DepthScenes,v2_duration_discrimination,discrim_jsons/v2_shuffled_g0_rotated.json,http://54.210.137.18/DepthDuration/v2_depth_discrimination_MTurk/v2_DepthDiscrim_HTML.html#3,3,2049,986,1366,768,10-17-2021,5-30-13,27,depth_discrimination_stimuli/002949_2014-06-26_15-57-42_094959634447_rgbf000079-resize_1/002949_2014-06-26_15-57-42_094959634447_rgbf000079-resize_1-target.png,depth_discrimination_stimuli/003495_2014-05-21_16-01-51_094959634447_rgbf000100-resize_3/003495_2014-05-21_16-01-51_094959634447_rgbf000100-resize_3-target.png,250,1.8915,1.6255,0,311,168,246,76,419,85,,43307,24,Woman
766102,DepthScenes,v2_duration_discrimination,discrim_jsons/v2_shuffled_g0_rotated.json,http://54.210.137.18/DepthDuration/v2_depth_discrimination_MTurk/v2_DepthDiscrim_HTML.html#3,3,2049,986,1366,768,10-17-2021,5-30-13,28,depth_discrimination_stimuli/001136_2014-06-17_15-19-41_260595134347_rgbf000076-resize_3/001136_2014-06-17_15-19-41_260595134347_rgbf000076-resize_3-target.png,depth_discrimination_stimuli/002549_2014-06-24_13-41-39_094959634447_rgbf000022-resize_3/002549_2014-06-24_13-41-39_094959634447_rgbf000022-resize_3-target.png,1000,1.8655,1.476,1,35,226,246,76,419,335,,43307,24,Woman
766102,DepthScenes,v2_duration_discrimination,discrim_jsons/v2_shuffled_g0_rotated.json,http://54.210.137.18/DepthDuration/v2_depth_discrimination_MTurk/v2_DepthDiscrim_HTML.html#3,3,2049,986,1366,768,10-17-2021,5-30-13,29,depth_discrimination_stimuli/002509_2014-06-24_13-19-22_094959634447_rgbf000077-resize_0/002509_2014-06-24_13-19-22_094959634447_rgbf000077-resize_0-target.png,depth_discrimination_stimuli/000549_2014-06-08_22-10-24_260595134347_rgbf000247-resize_3/000549_2014-06-08_22-10-24_260595134347_rgbf000247-resize_3-target.png,1000,1.3065,1.841,1,40,226,246,76,419,335,,43307,24,Woman
766102,DepthScenes,v2_duration_discrimination,discrim_jsons/v2_shuffled_g0_rotated.json,http://54.210.137.18/DepthDuration/v2_depth_discrimination_MTurk/v2_DepthDiscrim_HTML.html#3,3,2049,986,1366,768,10-17-2021,5-30-13,30,depth_discrimination_stimuli/000542_2014-06-08_18-27-08_260595134347_rgbf000118-resize_1/000542_2014-06-08_18-27-08_260595134347_rgbf000118-resize_1-target.png,depth_discrimination_stimuli/003292_2014-05-14_21-53-49_094959634447_rgbf000100-resize_2/003292_2014-05-14_21-53-49_094959634447_rgbf000100-resize_2-target.png,1000,3,3.4815,1,125,226,245,446,419,501,,43307,24,Woman
766102,DepthScenes,v2_duration_discrimination,discrim_jsons/v2_shuffled_g0_rotated.json,http://54.210.137.18/DepthDuration/v2_depth_discrimination_MTurk/v2_DepthDiscrim_HTML.html#3,3,2049,986,1366,768,10-17-2021,5-30-13,31,depth_discrimination_stimuli/001148_2014-06-17_15-26-42_260595134347_rgbf000129-resize_0/001148_2014-06-17_15-26-42_260595134347_rgbf000129-resize_0-target.png,depth_discrimination_stimuli/000556_2014-06-09_22-42-56_260595134347_rgbf000214-resize_1/000556_2014-06-09_22-42-56_260595134347_rgbf000214-resize_1-target.png,1000,4.368,4.8415,1,150,533,15,408,30,20,,43307,24,Woman
766102,DepthScenes,v2_duration_discrimination,discrim_jsons/v2_shuffled_g0_rotated.json,http://54.210.137.18/DepthDuration/v2_depth_discrimination_MTurk/v2_DepthDiscrim_HTML.html#3,3,2049,986,1366,768,10-17-2021,5-30-13,32,depth_discrimination_stimuli/001181_2014-06-17_15-50-57_260595134347_rgbf000106-resize_4/001181_2014-06-17_15-50-57_260595134347_rgbf000106-resize_4-target.png,depth_discrimination_stimuli/001158_2014-06-17_15-32-16_260595134347_rgbf000138-resize_2/001158_2014-06-17_15-32-16_260595134347_rgbf000138-resize_2-target.png,250,4.149,4.5315,0,201,533,15,408,30,186,,43307,24,Woman
766102,DepthScenes,v2_duration_discrimination,discrim_jsons/v2_shuffled_g0_rotated.json,http://54.210.137.18/DepthDuration/v2_depth_discrimination_MTurk/v2_DepthDiscrim_HTML.html#3,3,2049,986,1366,768,10-17-2021,5-30-13,33,depth_discrimination_stimuli/001235_2014-06-17_16-37-36_260595134347_rgbf000084-resize_4/001235_2014-06-17_16-37-36_260595134347_rgbf000084-resize_4-target.png,depth_discrimination_stimuli/001197_2014-06-17_16-01-50_260595134347_rgbf000103-resize_4/001197_2014-06-17_16-01-50_260595134347_rgbf000103-resize_4-target.png,250,3.6605,3.4025,1,448,533,306,408,251,150,,43307,24,Woman
766102,DepthScenes,v2_duration_discrimination,discrim_jsons/v2_shuffled_g0_rotated.json,http://54.210.137.18/DepthDuration/v2_depth_discrimination_MTurk/v2_DepthDiscrim_HTML.html#3,3,2049,986,1366,768,10-17-2021,5-30-13,34,depth_discrimination_stimuli/001032_2014-06-08_13-23-17_260595134347_rgbf000021-resize_3/001032_2014-06-08_13-23-17_260595134347_rgbf000021-resize_3-target.png,depth_discrimination_stimuli/002323_2014-06-28_20-01-54_260595134347_rgbf000051-resize_4/002323_2014-06-28_20-01-54_260595134347_rgbf000051-resize_4-target.png,250,3.2725,3.731,1,448,533,306,408,251,150,,43307,24,Woman
766102,DepthScenes,v2_duration_discrimination,discrim_jsons/v2_shuffled_g0_rotated.json,http://54.210.137.18/DepthDuration/v2_depth_discrimination_MTurk/v2_DepthDiscrim_HTML.html#3,3,2049,986,1366,768,10-17-2021,5-30-13,35,depth_discrimination_stimuli/003395_2014-05-20_15-39-18_094959634447_rgbf000101-resize_0/003395_2014-05-20_15-39-18_094959634447_rgbf000101-resize_0-target.png,depth_discrimination_stimuli/003395_2014-05-20_15-39-18_094959634447_rgbf000101-resize_0/003395_2014-05-20_15-39-18_094959634447_rgbf000101-resize_0-target.png,1000,4.835,4.835,0,535,533,494,408,251,278,,43307,24,Woman
766102,DepthScenes,v2_duration_discrimination,discrim_jsons/v2_shuffled_g0_rotated.json,http://54.210.137.18/DepthDuration/v2_depth_discrimination_MTurk/v2_DepthDiscrim_HTML.html#3,3,2049,986,1366,768,10-17-2021,5-30-13,36,depth_discrimination_stimuli/001170_2014-06-17_15-43-44_260595134347_rgbf000096-resize_6/001170_2014-06-17_15-43-44_260595134347_rgbf000096-resize_6-target.png,depth_discrimination_stimuli/001170_2014-06-17_15-43-44_260595134347_rgbf000096-resize_6/001170_2014-06-17_15-43-44_260595134347_rgbf000096-resize_6-target.png,250,1.191,1.191,1,177,533,494,66,251,501,,43307,24,Woman
766102,DepthScenes,v2_duration_discrimination,discrim_jsons/v2_shuffled_g0_rotated.json,http://54.210.137.18/DepthDuration/v2_depth_discrimination_MTurk/v2_DepthDiscrim_HTML.html#3,3,2049,986,1366,768,10-17-2021,5-30-13,37,depth_discrimination_stimuli/000137_2014-05-20_17-04-49_260595134347_rgbf000120-resize_1/000137_2014-05-20_17-04-49_260595134347_rgbf000120-resize_1-target.png,depth_discrimination_stimuli/003423_2014-05-21_10-23-26_094959634447_rgbf002665-resize_2/003423_2014-05-21_10-23-26_094959634447_rgbf002665-resize_2-target.png,250,3.786,3.2575,1,70,213,762,548,247,503,,43307,24,Woman
766102,DepthScenes,v2_duration_discrimination,discrim_jsons/v2_shuffled_g0_rotated.json,http://54.210.137.18/DepthDuration/v2_depth_discrimination_MTurk/v2_DepthDiscrim_HTML.html#3,3,2049,986,1366,768,10-17-2021,5-30-13,38,depth_discrimination_stimuli/002678_2014-06-13_16-15-32_094959634447_rgbf000151-resize_6/002678_2014-06-13_16-15-32_094959634447_rgbf000151-resize_6-target.png,depth_discrimination_stimuli/000927_2014-06-09_16-32-30_260595134347_rgbf000123-resize_3/000927_2014-06-09_16-32-30_260595134347_rgbf000123-resize_3-target.png,250,2.183,2.6785,1,377,361,250,62,250,500,,43307,24,Woman
766102,DepthScenes,v2_duration_discrimination,discrim_jsons/v2_shuffled_g0_rotated.json,http://54.210.137.18/DepthDuration/v2_depth_discrimination_MTurk/v2_DepthDiscrim_HTML.html#3,3,2049,986,1366,768,10-17-2021,5-30-13,39,depth_discrimination_stimuli/002748_2014-06-22_19-07-22_094959634447_rgbf000078-resize_1/002748_2014-06-22_19-07-22_094959634447_rgbf000078-resize_1-target.png,depth_discrimination_stimuli/001808_2014-06-26_20-50-58_260595134347_rgbf000029-resize_1/001808_2014-06-26_20-50-58_260595134347_rgbf000029-resize_1-target.png,250,4.6705,4.249,0,145,86,65,5,40,25,,43307,24,Woman
766102,DepthScenes,v2_duration_discrimination,discrim_jsons/v2_shuffled_g0_rotated.json,http://54.210.137.18/DepthDuration/v2_depth_discrimination_MTurk/v2_DepthDiscrim_HTML.html#3,3,2049,986,1366,768,10-17-2021,5-30-13,40,depth_discrimination_stimuli/001133_2014-06-17_14-49-16_260595134347_rgbf000100-resize_0/001133_2014-06-17_14-49-16_260595134347_rgbf000100-resize_0-target.png,depth_discrimination_stimuli/002467_2014-06-28_20-38-07_260595134347_rgbf000026-resize_2/002467_2014-06-28_20-38-07_260595134347_rgbf000026-resize_2-target.png,250,4.2115,4.742,0,157,86,251,155,65,45,,43307,24,Woman
766102,DepthScenes,v2_duration_discrimination,discrim_jsons/v2_shuffled_g0_rotated.json,http://54.210.137.18/DepthDuration/v2_depth_discrimination_MTurk/v2_DepthDiscrim_HTML.html#3,3,2049,986,1366,768,10-17-2021,5-30-13,41,depth_discrimination_stimuli/003081_2014-06-15_15-19-16_094959634447_rgbf000150-resize_1/003081_2014-06-15_15-19-16_094959634447_rgbf000150-resize_1-target.png,depth_discrimination_stimuli/002660_2014-06-13_15-44-18_094959634447_rgbf001878-resize_2/002660_2014-06-13_15-44-18_094959634447_rgbf001878-resize_2-target.png,1000,3.9125,3.576,1,125,10,251,364,65,25,,43307,24,Woman
766102,DepthScenes,v2_duration_discrimination,discrim_jsons/v2_shuffled_g0_rotated.json,http://54.210.137.18/DepthDuration/v2_depth_discrimination_MTurk/v2_DepthDiscrim_HTML.html#3,3,2049,986,1366,768,10-17-2021,5-30-13,44,,,,,,3,3125,478,251,1003,65,502,,43307,24,Woman
,,,,,,,,,,,,,,,,,,,,,,,,,,43307,24,Woman
,,,,,,,,,,,,,,,,,,,,,,,,,,43307,24,Woman
,,,,,,,,,,,,,,,,,,,,,,,,,,43307,24,Woman
,,,,,,,,,,,,,,,,,,,,,,,,,,43307,24,Woman
