subjID,experimentName,versionName,sequenceName,url,selected_row,windowWidth,windowHeight,screenWidth,screenHeight,startDate,startTime,trial,stimulus_0,stimulus_1,duration,actual_depth_0,actual_depth_1,discrim_choice,trial_RT,log_fixation,log_sceneDuration1,log_mask1,log_sceneDuration2,log_mask2,unitSelection,meanDepth_rating,navigability_rating,rated_stimulus,rating_RT,experimentTime,totalTime,age,practice_performance_0,practice_performance_1,practice_performance_2,practice_performance_3,practice_performance_4,practice_performance_5,practice_performance_6,practice_performance_7,practice_performance_8
901932,DepthScenes,v2_duration_discrimination,discrim_jsons/v2_shuffled_g0.json,http://34.201.58.129/DepthDuration/v2_depth_discrimination_MTurk/v2_DepthDiscrim_HTML.html#4,4,1920,937,1920,1080,8-21-2021,8-52-13,2,depth_discrimination_stimuli/002043_2014-06-24_20-29-38_260595134347_rgbf000039-resize_4/002043_2014-06-24_20-29-38_260595134347_rgbf000039-resize_4-target.png,depth_discrimination_stimuli/001011_2014-06-08_23-18-54_260595134347_rgbf000044-resize_4/001011_2014-06-08_23-18-54_260595134347_rgbf000044-resize_4-target.png,250,2.8435,2.473,0,1113,1091,181,1058,169,501,,,,,,,699714,27,0,1,0,0,1,1,1,0,0
901932,DepthScenes,v2_duration_discrimination,discrim_jsons/v2_shuffled_g0.json,http://34.201.58.129/DepthDuration/v2_depth_discrimination_MTurk/v2_DepthDiscrim_HTML.html#4,4,1920,937,1920,1080,8-21-2021,8-52-13,3,depth_discrimination_stimuli/000953_2014-06-08_11-42-19_260595134347_rgbf000083-resize_0/000953_2014-06-08_11-42-19_260595134347_rgbf000083-resize_0-target.png,depth_discrimination_stimuli/000953_2014-06-08_11-42-19_260595134347_rgbf000083-resize_0/000953_2014-06-08_11-42-19_260595134347_rgbf000083-resize_0-target.png,250,1.369,1.369,0,1114,1013,251,988,259,508,,,,,,,699714,27,0,1,0,0,1,1,1,0,0
901932,DepthScenes,v2_duration_discrimination,discrim_jsons/v2_shuffled_g0.json,http://34.201.58.129/DepthDuration/v2_depth_discrimination_MTurk/v2_DepthDiscrim_HTML.html#4,4,1920,937,1920,1080,8-21-2021,8-52-13,4,depth_discrimination_stimuli/003083_2014-06-15_15-21-03_094959634447_rgbf000063-resize_1/003083_2014-06-15_15-21-03_094959634447_rgbf000063-resize_1-target.png,depth_discrimination_stimuli/000742_2014-06-08_18-48-09_260595134347_rgbf000164-resize_4/000742_2014-06-08_18-48-09_260595134347_rgbf000164-resize_4-target.png,250,4.1405,4.632,0,1600,1004,1051,944,1006,556,,,,,,,699714,27,0,1,0,0,1,1,1,0,0
901932,DepthScenes,v2_duration_discrimination,discrim_jsons/v2_shuffled_g0.json,http://34.201.58.129/DepthDuration/v2_depth_discrimination_MTurk/v2_DepthDiscrim_HTML.html#4,4,1920,937,1920,1080,8-21-2021,8-52-13,5,depth_discrimination_stimuli/001092_2014-06-15_17-34-58_260595134347_rgbf000171-resize_3/001092_2014-06-15_17-34-58_260595134347_rgbf000171-resize_3-target.png,depth_discrimination_stimuli/000502_2014-06-08_23-02-32_260595134347_rgbf000063-resize_4/000502_2014-06-08_23-02-32_260595134347_rgbf000063-resize_4-target.png,1000,2.6935,2.431,1,1645,1074,941,1064,927,505,,,,,,,699714,27,0,1,0,0,1,1,1,0,0
901932,DepthScenes,v2_duration_discrimination,discrim_jsons/v2_shuffled_g0.json,http://34.201.58.129/DepthDuration/v2_depth_discrimination_MTurk/v2_DepthDiscrim_HTML.html#4,4,1920,937,1920,1080,8-21-2021,8-52-13,6,depth_discrimination_stimuli/001532_2014-06-20_16-50-41_260595134347_rgbf000081-resize_4/001532_2014-06-20_16-50-41_260595134347_rgbf000081-resize_4-target.png,depth_discrimination_stimuli/000943_2014-06-09_19-31-07_260595134347_rgbf000128-resize_1/000943_2014-06-09_19-31-07_260595134347_rgbf000128-resize_1-target.png,1000,1.5758333333333,1.9765,0,807,1001,253,1009,170,544,,,,,,,699714,27,0,1,0,0,1,1,1,0,0
901932,DepthScenes,v2_duration_discrimination,discrim_jsons/v2_shuffled_g0.json,http://34.201.58.129/DepthDuration/v2_depth_discrimination_MTurk/v2_DepthDiscrim_HTML.html#4,4,1920,937,1920,1080,8-21-2021,8-52-13,7,depth_discrimination_stimuli/002103_2014-06-25_20-00-40_260595134347_rgbf000049-resize_0/002103_2014-06-25_20-00-40_260595134347_rgbf000049-resize_0-target.png,depth_discrimination_stimuli/002444_2014-06-28_20-32-08_260595134347_rgbf000027-resize_0/002444_2014-06-28_20-32-08_260595134347_rgbf000027-resize_0-target.png,250,4.105,4.389,0,284492,1001,1063,1056,885,472,,,,,,,699714,27,0,1,0,0,1,1,1,0,0
901932,DepthScenes,v2_duration_discrimination,discrim_jsons/v2_shuffled_g0.json,http://34.201.58.129/DepthDuration/v2_depth_discrimination_MTurk/v2_DepthDiscrim_HTML.html#4,4,1920,937,1920,1080,8-21-2021,8-52-13,8,depth_discrimination_stimuli/000800_2014-06-08_22-42-09_260595134347_rgbf000095-resize_3/000800_2014-06-08_22-42-09_260595134347_rgbf000095-resize_3-target.png,depth_discrimination_stimuli/000869_2014-06-09_20-50-18_260595134347_rgbf000060-resize_3/000869_2014-06-09_20-50-18_260595134347_rgbf000060-resize_3-target.png,1000,2.8,2.266,0,1498,1003,249,999,279,492,,,,,,,699714,27,0,1,0,0,1,1,1,0,0
901932,DepthScenes,v2_duration_discrimination,discrim_jsons/v2_shuffled_g0.json,http://34.201.58.129/DepthDuration/v2_depth_discrimination_MTurk/v2_DepthDiscrim_HTML.html#4,4,1920,937,1920,1080,8-21-2021,8-52-13,9,depth_discrimination_stimuli/001618_2014-06-20_11-37-31_260595134347_rgbf000027-resize_3/001618_2014-06-20_11-37-31_260595134347_rgbf000027-resize_3-target.png,depth_discrimination_stimuli/000109_2014-05-14_23-41-52_260595134347_rgbf000035-resize_9/000109_2014-05-14_23-41-52_260595134347_rgbf000035-resize_9-target.png,250,1.8725,1.3545,3,3482,1132,882,995,1002,491,,,,,,,699714,27,0,1,0,0,1,1,1,0,0
901932,DepthScenes,v2_duration_discrimination,discrim_jsons/v2_shuffled_g0.json,http://34.201.58.129/DepthDuration/v2_depth_discrimination_MTurk/v2_DepthDiscrim_HTML.html#4,4,1920,937,1920,1080,8-21-2021,8-52-13,10,depth_discrimination_stimuli/000454_2014-06-08_16-37-28_260595134347_rgbf000048-resize_2/000454_2014-06-08_16-37-28_260595134347_rgbf000048-resize_2-target.png,depth_discrimination_stimuli/000454_2014-06-08_16-37-28_260595134347_rgbf000048-resize_2/000454_2014-06-08_16-37-28_260595134347_rgbf000048-resize_2-target.png,1000,1.213,1.213,3,14197,1072,928,1002,1032,474,,,,,,,699714,27,0,1,0,0,1,1,1,0,0
901932,DepthScenes,v2_duration_discrimination,discrim_jsons/v2_shuffled_g0.json,http://34.201.58.129/DepthDuration/v2_depth_discrimination_MTurk/v2_DepthDiscrim_HTML.html#4,4,1920,937,1920,1080,8-21-2021,8-52-13,11,depth_discrimination_stimuli/000749_2014-06-08_21-55-06_260595134347_rgbf000070-resize_2/000749_2014-06-08_21-55-06_260595134347_rgbf000070-resize_2-target.png,depth_discrimination_stimuli/001056_2014-06-08_18-46-44_260595134347_rgbf000068-resize_0/001056_2014-06-08_18-46-44_260595134347_rgbf000068-resize_0-target.png,1000,2.331,2.6625,1,1238,1026,237,1000,247,525,,,,,,,699714,27,0,1,0,0,1,1,1,0,0
901932,DepthScenes,v2_duration_discrimination,discrim_jsons/v2_shuffled_g0.json,http://34.201.58.129/DepthDuration/v2_depth_discrimination_MTurk/v2_DepthDiscrim_HTML.html#4,4,1920,937,1920,1080,8-21-2021,8-52-13,12,depth_discrimination_stimuli/002199_2014-06-28_18-33-56_260595134347_rgbf000074-resize_0/002199_2014-06-28_18-33-56_260595134347_rgbf000074-resize_0-target.png,depth_discrimination_stimuli/001016_2014-06-09_16-16-10_260595134347_rgbf000112-resize_5/001016_2014-06-09_16-16-10_260595134347_rgbf000112-resize_5-target.png,250,1.996,1.6565,1,1781,1002,1012,990,998,530,,,,,,,699714,27,0,1,0,0,1,1,1,0,0
901932,DepthScenes,v2_duration_discrimination,discrim_jsons/v2_shuffled_g0.json,http://34.201.58.129/DepthDuration/v2_depth_discrimination_MTurk/v2_DepthDiscrim_HTML.html#4,4,1920,937,1920,1080,8-21-2021,8-52-13,13,depth_discrimination_stimuli/002118_2014-06-25_20-32-08_260595134347_rgbf000078-resize_1/002118_2014-06-25_20-32-08_260595134347_rgbf000078-resize_1-target.png,depth_discrimination_stimuli/001164_2014-06-17_15-35-46_260595134347_rgbf000085-resize_3/001164_2014-06-17_15-35-46_260595134347_rgbf000085-resize_3-target.png,1000,2.646,2.354,0,1006,1030,223,1013,233,568,,,,,,,699714,27,0,1,0,0,1,1,1,0,0
901932,DepthScenes,v2_duration_discrimination,discrim_jsons/v2_shuffled_g0.json,http://34.201.58.129/DepthDuration/v2_depth_discrimination_MTurk/v2_DepthDiscrim_HTML.html#4,4,1920,937,1920,1080,8-21-2021,8-52-13,14,depth_discrimination_stimuli/002953_2014-06-08_17-32-18_094959634447_rgbf000059-resize_5/002953_2014-06-08_17-32-18_094959634447_rgbf000059-resize_5-target.png,depth_discrimination_stimuli/000470_2014-06-09_19-42-40_260595134347_rgbf000094-resize_1/000470_2014-06-09_19-42-40_260595134347_rgbf000094-resize_1-target.png,250,1.551,1.831,0,2550,1014,993,995,1003,514,,,,,,,699714,27,0,1,0,0,1,1,1,0,0
901932,DepthScenes,v2_duration_discrimination,discrim_jsons/v2_shuffled_g0.json,http://34.201.58.129/DepthDuration/v2_depth_discrimination_MTurk/v2_DepthDiscrim_HTML.html#4,4,1920,937,1920,1080,8-21-2021,8-52-13,15,depth_discrimination_stimuli/000929_2014-06-09_16-33-19_260595134347_rgbf000139-resize_0/000929_2014-06-09_16-33-19_260595134347_rgbf000139-resize_0-target.png,depth_discrimination_stimuli/001055_2014-06-08_18-45-35_260595134347_rgbf000111-resize_4/001055_2014-06-08_18-45-35_260595134347_rgbf000111-resize_4-target.png,1000,2.868,2.429,1,796,1021,232,1059,196,521,,,,,,,699714,27,0,1,0,0,1,1,1,0,0
901932,DepthScenes,v2_duration_discrimination,discrim_jsons/v2_shuffled_g0.json,http://34.201.58.129/DepthDuration/v2_depth_discrimination_MTurk/v2_DepthDiscrim_HTML.html#4,4,1920,937,1920,1080,8-21-2021,8-52-13,16,depth_discrimination_stimuli/000493_2014-06-09_21-01-18_260595134347_rgbf000196-resize_3/000493_2014-06-09_21-01-18_260595134347_rgbf000196-resize_3-target.png,depth_discrimination_stimuli/000409_2014-06-04_19-23-33_260595134347_rgbf000067-resize_0/000409_2014-06-04_19-23-33_260595134347_rgbf000067-resize_0-target.png,250,3.44,3.7335,1,1915,1024,228,1008,243,516,,,,,,,699714,27,0,1,0,0,1,1,1,0,0
901932,DepthScenes,v2_duration_discrimination,discrim_jsons/v2_shuffled_g0.json,http://34.201.58.129/DepthDuration/v2_depth_discrimination_MTurk/v2_DepthDiscrim_HTML.html#4,4,1920,937,1920,1080,8-21-2021,8-52-13,17,depth_discrimination_stimuli/000569_2014-06-09_22-51-47_260595134347_rgbf000141-resize_3/000569_2014-06-09_22-51-47_260595134347_rgbf000141-resize_3-target.png,depth_discrimination_stimuli/000569_2014-06-09_22-51-47_260595134347_rgbf000141-resize_3/000569_2014-06-09_22-51-47_260595134347_rgbf000141-resize_3-target.png,250,4.512,4.512,0,1679,1002,1039,959,1012,540,,,,,,,699714,27,0,1,0,0,1,1,1,0,0
901932,DepthScenes,v2_duration_discrimination,discrim_jsons/v2_shuffled_g0.json,http://34.201.58.129/DepthDuration/v2_depth_discrimination_MTurk/v2_DepthDiscrim_HTML.html#4,4,1920,937,1920,1080,8-21-2021,8-52-13,18,depth_discrimination_stimuli/003587_2014-05-23_16-48-02_094959634447_rgbf002384-resize_2/003587_2014-05-23_16-48-02_094959634447_rgbf002384-resize_2-target.png,depth_discrimination_stimuli/000709_2014-06-08_13-51-55_260595134347_rgbf000068-resize_3/000709_2014-06-08_13-51-55_260595134347_rgbf000068-resize_3-target.png,1000,1.357,1.803,0,1543,1060,951,1010,988,501,,,,,,,699714,27,0,1,0,0,1,1,1,0,0
901932,DepthScenes,v2_duration_discrimination,discrim_jsons/v2_shuffled_g0.json,http://34.201.58.129/DepthDuration/v2_depth_discrimination_MTurk/v2_DepthDiscrim_HTML.html#4,4,1920,937,1920,1080,8-21-2021,8-52-13,19,depth_discrimination_stimuli/002675_2014-06-13_16-08-49_094959634447_rgbf000151-resize_2/002675_2014-06-13_16-08-49_094959634447_rgbf000151-resize_2-target.png,depth_discrimination_stimuli/002675_2014-06-13_16-08-49_094959634447_rgbf000151-resize_2/002675_2014-06-13_16-08-49_094959634447_rgbf000151-resize_2-target.png,1000,4.5065,4.5065,1,1555,1005,998,1007,990,525,,,,,,,699714,27,0,1,0,0,1,1,1,0,0
901932,DepthScenes,v2_duration_discrimination,discrim_jsons/v2_shuffled_g0.json,http://34.201.58.129/DepthDuration/v2_depth_discrimination_MTurk/v2_DepthDiscrim_HTML.html#4,4,1920,937,1920,1080,8-21-2021,8-52-13,20,depth_discrimination_stimuli/002340_2014-06-28_20-05-46_260595134347_rgbf000113-resize_0/002340_2014-06-28_20-05-46_260595134347_rgbf000113-resize_0-target.png,depth_discrimination_stimuli/002905_2014-06-03_18-04-43_094959634447_rgbf000151-resize_2/002905_2014-06-03_18-04-43_094959634447_rgbf000151-resize_2-target.png,1000,2.4735,2.0295,1,1701,1002,1007,1004,986,505,,,,,,,699714,27,0,1,0,0,1,1,1,0,0
901932,DepthScenes,v2_duration_discrimination,discrim_jsons/v2_shuffled_g0.json,http://34.201.58.129/DepthDuration/v2_depth_discrimination_MTurk/v2_DepthDiscrim_HTML.html#4,4,1920,937,1920,1080,8-21-2021,8-52-13,21,depth_discrimination_stimuli/000691_2014-06-08_13-08-50_260595134347_rgbf000132-resize_3/000691_2014-06-08_13-08-50_260595134347_rgbf000132-resize_3-target.png,depth_discrimination_stimuli/002039_2014-06-24_20-22-38_260595134347_rgbf000084-resize_1/002039_2014-06-24_20-22-38_260595134347_rgbf000084-resize_1-target.png,1000,4.153,4.408,3,49492,1013,1086,901,1021,479,,,,,,,699714,27,0,1,0,0,1,1,1,0,0
901932,DepthScenes,v2_duration_discrimination,discrim_jsons/v2_shuffled_g0.json,http://34.201.58.129/DepthDuration/v2_depth_discrimination_MTurk/v2_DepthDiscrim_HTML.html#4,4,1920,937,1920,1080,8-21-2021,8-52-13,22,depth_discrimination_stimuli/000549_2014-06-08_22-10-24_260595134347_rgbf000247-resize_3/000549_2014-06-08_22-10-24_260595134347_rgbf000247-resize_3-target.png,depth_discrimination_stimuli/002509_2014-06-24_13-19-22_094959634447_rgbf000077-resize_0/002509_2014-06-24_13-19-22_094959634447_rgbf000077-resize_0-target.png,1000,1.841,1.3065,0,1108,1012,239,1005,279,474,,,,,,,699714,27,0,1,0,0,1,1,1,0,0
901932,DepthScenes,v2_duration_discrimination,discrim_jsons/v2_shuffled_g0.json,http://34.201.58.129/DepthDuration/v2_depth_discrimination_MTurk/v2_DepthDiscrim_HTML.html#4,4,1920,937,1920,1080,8-21-2021,8-52-13,23,depth_discrimination_stimuli/003495_2014-05-21_16-01-51_094959634447_rgbf000100-resize_3/003495_2014-05-21_16-01-51_094959634447_rgbf000100-resize_3-target.png,depth_discrimination_stimuli/002949_2014-06-26_15-57-42_094959634447_rgbf000079-resize_1/002949_2014-06-26_15-57-42_094959634447_rgbf000079-resize_1-target.png,250,1.6255,1.8915,1,2183,1001,1012,987,1000,504,,,,,,,699714,27,0,1,0,0,1,1,1,0,0
901932,DepthScenes,v2_duration_discrimination,discrim_jsons/v2_shuffled_g0.json,http://34.201.58.129/DepthDuration/v2_depth_discrimination_MTurk/v2_DepthDiscrim_HTML.html#4,4,1920,937,1920,1080,8-21-2021,8-52-13,24,depth_discrimination_stimuli/001498_2014-06-19_17-45-14_260595134347_rgbf000129-resize_4/001498_2014-06-19_17-45-14_260595134347_rgbf000129-resize_4-target.png,depth_discrimination_stimuli/001498_2014-06-19_17-45-14_260595134347_rgbf000129-resize_4/001498_2014-06-19_17-45-14_260595134347_rgbf000129-resize_4-target.png,1000,1.4075,1.4075,0,1959,1087,974,976,1098,377,,,,,,,699714,27,0,1,0,0,1,1,1,0,0
901932,DepthScenes,v2_duration_discrimination,discrim_jsons/v2_shuffled_g0.json,http://34.201.58.129/DepthDuration/v2_depth_discrimination_MTurk/v2_DepthDiscrim_HTML.html#4,4,1920,937,1920,1080,8-21-2021,8-52-13,25,depth_discrimination_stimuli/003490_2014-05-21_15-50-11_094959634447_rgbf000101-resize_3/003490_2014-05-21_15-50-11_094959634447_rgbf000101-resize_3-target.png,depth_discrimination_stimuli/000866_2014-06-09_20-45-42_260595134347_rgbf000139-resize_1/000866_2014-06-09_20-45-42_260595134347_rgbf000139-resize_1-target.png,1000,3.6445,3.2155,1,981,1137,148,974,244,503,,,,,,,699714,27,0,1,0,0,1,1,1,0,0
901932,DepthScenes,v2_duration_discrimination,discrim_jsons/v2_shuffled_g0.json,http://34.201.58.129/DepthDuration/v2_depth_discrimination_MTurk/v2_DepthDiscrim_HTML.html#4,4,1920,937,1920,1080,8-21-2021,8-52-13,26,depth_discrimination_stimuli/002072_2014-06-24_21-48-06_260595134347_rgbf000115-resize_0/002072_2014-06-24_21-48-06_260595134347_rgbf000115-resize_0-target.png,depth_discrimination_stimuli/002072_2014-06-24_21-48-06_260595134347_rgbf000115-resize_0/002072_2014-06-24_21-48-06_260595134347_rgbf000115-resize_0-target.png,250,4.702,4.702,1,1988,1020,237,1007,237,506,,,,,,,699714,27,0,1,0,0,1,1,1,0,0
901932,DepthScenes,v2_duration_discrimination,discrim_jsons/v2_shuffled_g0.json,http://34.201.58.129/DepthDuration/v2_depth_discrimination_MTurk/v2_DepthDiscrim_HTML.html#4,4,1920,937,1920,1080,8-21-2021,8-52-13,27,depth_discrimination_stimuli/002805_2014-06-22_19-54-03_094959634447_rgbf000079-resize_1/002805_2014-06-22_19-54-03_094959634447_rgbf000079-resize_1-target.png,depth_discrimination_stimuli/001584_2014-06-20_11-07-43_260595134347_rgbf000002-resize_1/001584_2014-06-20_11-07-43_260595134347_rgbf000002-resize_1-target.png,250,3.144,3.53,1,3058,1005,1011,991,994,516,,,,,,,699714,27,0,1,0,0,1,1,1,0,0
901932,DepthScenes,v2_duration_discrimination,discrim_jsons/v2_shuffled_g0.json,http://34.201.58.129/DepthDuration/v2_depth_discrimination_MTurk/v2_DepthDiscrim_HTML.html#4,4,1920,937,1920,1080,8-21-2021,8-52-13,28,depth_discrimination_stimuli/003292_2014-05-14_21-53-49_094959634447_rgbf000100-resize_2/003292_2014-05-14_21-53-49_094959634447_rgbf000100-resize_2-target.png,depth_discrimination_stimuli/000542_2014-06-08_18-27-08_260595134347_rgbf000118-resize_1/000542_2014-06-08_18-27-08_260595134347_rgbf000118-resize_1-target.png,1000,3.4815,3,0,1582,1007,994,1019,991,490,,,,,,,699714,27,0,1,0,0,1,1,1,0,0
901932,DepthScenes,v2_duration_discrimination,discrim_jsons/v2_shuffled_g0.json,http://34.201.58.129/DepthDuration/v2_depth_discrimination_MTurk/v2_DepthDiscrim_HTML.html#4,4,1920,937,1920,1080,8-21-2021,8-52-13,29,depth_discrimination_stimuli/002549_2014-06-24_13-41-39_094959634447_rgbf000022-resize_3/002549_2014-06-24_13-41-39_094959634447_rgbf000022-resize_3-target.png,depth_discrimination_stimuli/001136_2014-06-17_15-19-41_260595134347_rgbf000076-resize_3/001136_2014-06-17_15-19-41_260595134347_rgbf000076-resize_3-target.png,1000,1.476,1.8655,1,2174,1017,995,1078,913,506,,,,,,,699714,27,0,1,0,0,1,1,1,0,0
901932,DepthScenes,v2_duration_discrimination,discrim_jsons/v2_shuffled_g0.json,http://34.201.58.129/DepthDuration/v2_depth_discrimination_MTurk/v2_DepthDiscrim_HTML.html#4,4,1920,937,1920,1080,8-21-2021,8-52-13,30,depth_discrimination_stimuli/000556_2014-06-09_22-42-56_260595134347_rgbf000214-resize_1/000556_2014-06-09_22-42-56_260595134347_rgbf000214-resize_1-target.png,depth_discrimination_stimuli/001148_2014-06-17_15-26-42_260595134347_rgbf000129-resize_0/001148_2014-06-17_15-26-42_260595134347_rgbf000129-resize_0-target.png,1000,4.8415,4.368,0,740,1017,245,1003,281,454,,,,,,,699714,27,0,1,0,0,1,1,1,0,0
901932,DepthScenes,v2_duration_discrimination,discrim_jsons/v2_shuffled_g0.json,http://34.201.58.129/DepthDuration/v2_depth_discrimination_MTurk/v2_DepthDiscrim_HTML.html#4,4,1920,937,1920,1080,8-21-2021,8-52-13,31,depth_discrimination_stimuli/001450_2014-06-19_17-02-03_260595134347_rgbf000203-resize_4/001450_2014-06-19_17-02-03_260595134347_rgbf000203-resize_4-target.png,depth_discrimination_stimuli/002414_2014-06-28_20-24-58_260595134347_rgbf000067-resize_4/002414_2014-06-28_20-24-58_260595134347_rgbf000067-resize_4-target.png,250,4.0106666666667,4.363,1,786,1004,261,1001,263,478,,,,,,,699714,27,0,1,0,0,1,1,1,0,0
901932,DepthScenes,v2_duration_discrimination,discrim_jsons/v2_shuffled_g0.json,http://34.201.58.129/DepthDuration/v2_depth_discrimination_MTurk/v2_DepthDiscrim_HTML.html#4,4,1920,937,1920,1080,8-21-2021,8-52-13,32,depth_discrimination_stimuli/000927_2014-06-09_16-32-30_260595134347_rgbf000123-resize_3/000927_2014-06-09_16-32-30_260595134347_rgbf000123-resize_3-target.png,depth_discrimination_stimuli/002678_2014-06-13_16-15-32_094959634447_rgbf000151-resize_6/002678_2014-06-13_16-15-32_094959634447_rgbf000151-resize_6-target.png,250,2.6785,2.183,1,1059,1003,257,994,247,513,,,,,,,699714,27,0,1,0,0,1,1,1,0,0
901932,DepthScenes,v2_duration_discrimination,discrim_jsons/v2_shuffled_g0.json,http://34.201.58.129/DepthDuration/v2_depth_discrimination_MTurk/v2_DepthDiscrim_HTML.html#4,4,1920,937,1920,1080,8-21-2021,8-52-13,33,depth_discrimination_stimuli/003423_2014-05-21_10-23-26_094959634447_rgbf002665-resize_2/003423_2014-05-21_10-23-26_094959634447_rgbf002665-resize_2-target.png,depth_discrimination_stimuli/000137_2014-05-20_17-04-49_260595134347_rgbf000120-resize_1/000137_2014-05-20_17-04-49_260595134347_rgbf000120-resize_1-target.png,250,3.2575,3.786,1,797,1002,307,946,258,489,,,,,,,699714,27,0,1,0,0,1,1,1,0,0
901932,DepthScenes,v2_duration_discrimination,discrim_jsons/v2_shuffled_g0.json,http://34.201.58.129/DepthDuration/v2_depth_discrimination_MTurk/v2_DepthDiscrim_HTML.html#4,4,1920,937,1920,1080,8-21-2021,8-52-13,34,depth_discrimination_stimuli/001158_2014-06-17_15-32-16_260595134347_rgbf000138-resize_2/001158_2014-06-17_15-32-16_260595134347_rgbf000138-resize_2-target.png,depth_discrimination_stimuli/001181_2014-06-17_15-50-57_260595134347_rgbf000106-resize_4/001181_2014-06-17_15-50-57_260595134347_rgbf000106-resize_4-target.png,250,4.5315,4.149,0,1145,1005,312,941,245,583,,,,,,,699714,27,0,1,0,0,1,1,1,0,0
901932,DepthScenes,v2_duration_discrimination,discrim_jsons/v2_shuffled_g0.json,http://34.201.58.129/DepthDuration/v2_depth_discrimination_MTurk/v2_DepthDiscrim_HTML.html#4,4,1920,937,1920,1080,8-21-2021,8-52-13,35,depth_discrimination_stimuli/002467_2014-06-28_20-38-07_260595134347_rgbf000026-resize_2/002467_2014-06-28_20-38-07_260595134347_rgbf000026-resize_2-target.png,depth_discrimination_stimuli/001133_2014-06-17_14-49-16_260595134347_rgbf000100-resize_0/001133_2014-06-17_14-49-16_260595134347_rgbf000100-resize_0-target.png,250,4.742,4.2115,0,1243,1012,236,1004,258,567,,,,,,,699714,27,0,1,0,0,1,1,1,0,0
901932,DepthScenes,v2_duration_discrimination,discrim_jsons/v2_shuffled_g0.json,http://34.201.58.129/DepthDuration/v2_depth_discrimination_MTurk/v2_DepthDiscrim_HTML.html#4,4,1920,937,1920,1080,8-21-2021,8-52-13,36,depth_discrimination_stimuli/001197_2014-06-17_16-01-50_260595134347_rgbf000103-resize_4/001197_2014-06-17_16-01-50_260595134347_rgbf000103-resize_4-target.png,depth_discrimination_stimuli/001235_2014-06-17_16-37-36_260595134347_rgbf000084-resize_4/001235_2014-06-17_16-37-36_260595134347_rgbf000084-resize_4-target.png,250,3.4025,3.6605,0,1154,1007,365,896,231,499,,,,,,,699714,27,0,1,0,0,1,1,1,0,0
901932,DepthScenes,v2_duration_discrimination,discrim_jsons/v2_shuffled_g0.json,http://34.201.58.129/DepthDuration/v2_depth_discrimination_MTurk/v2_DepthDiscrim_HTML.html#4,4,1920,937,1920,1080,8-21-2021,8-52-13,37,depth_discrimination_stimuli/001170_2014-06-17_15-43-44_260595134347_rgbf000096-resize_6/001170_2014-06-17_15-43-44_260595134347_rgbf000096-resize_6-target.png,depth_discrimination_stimuli/001170_2014-06-17_15-43-44_260595134347_rgbf000096-resize_6/001170_2014-06-17_15-43-44_260595134347_rgbf000096-resize_6-target.png,250,1.191,1.191,0,886,1034,226,995,244,513,,,,,,,699714,27,0,1,0,0,1,1,1,0,0
901932,DepthScenes,v2_duration_discrimination,discrim_jsons/v2_shuffled_g0.json,http://34.201.58.129/DepthDuration/v2_depth_discrimination_MTurk/v2_DepthDiscrim_HTML.html#4,4,1920,937,1920,1080,8-21-2021,8-52-13,38,depth_discrimination_stimuli/002323_2014-06-28_20-01-54_260595134347_rgbf000051-resize_4/002323_2014-06-28_20-01-54_260595134347_rgbf000051-resize_4-target.png,depth_discrimination_stimuli/001032_2014-06-08_13-23-17_260595134347_rgbf000021-resize_3/001032_2014-06-08_13-23-17_260595134347_rgbf000021-resize_3-target.png,250,3.731,3.2725,1,723,1016,237,1038,213,500,,,,,,,699714,27,0,1,0,0,1,1,1,0,0
901932,DepthScenes,v2_duration_discrimination,discrim_jsons/v2_shuffled_g0.json,http://34.201.58.129/DepthDuration/v2_depth_discrimination_MTurk/v2_DepthDiscrim_HTML.html#4,4,1920,937,1920,1080,8-21-2021,8-52-13,39,depth_discrimination_stimuli/001808_2014-06-26_20-50-58_260595134347_rgbf000029-resize_1/001808_2014-06-26_20-50-58_260595134347_rgbf000029-resize_1-target.png,depth_discrimination_stimuli/002748_2014-06-22_19-07-22_094959634447_rgbf000078-resize_1/002748_2014-06-22_19-07-22_094959634447_rgbf000078-resize_1-target.png,250,4.249,4.6705,1,1715,1002,998,1012,1009,612,,,,,,,699714,27,0,1,0,0,1,1,1,0,0
901932,DepthScenes,v2_duration_discrimination,discrim_jsons/v2_shuffled_g0.json,http://34.201.58.129/DepthDuration/v2_depth_discrimination_MTurk/v2_DepthDiscrim_HTML.html#4,4,1920,937,1920,1080,8-21-2021,8-52-13,40,depth_discrimination_stimuli/002660_2014-06-13_15-44-18_094959634447_rgbf001878-resize_2/002660_2014-06-13_15-44-18_094959634447_rgbf001878-resize_2-target.png,depth_discrimination_stimuli/003081_2014-06-15_15-19-16_094959634447_rgbf000150-resize_1/003081_2014-06-15_15-19-16_094959634447_rgbf000150-resize_1-target.png,1000,3.576,3.9125,1,1525,1050,960,1006,1062,425,,,,,,,699714,27,0,1,0,0,1,1,1,0,0
901932,DepthScenes,v2_duration_discrimination,discrim_jsons/v2_shuffled_g0.json,http://34.201.58.129/DepthDuration/v2_depth_discrimination_MTurk/v2_DepthDiscrim_HTML.html#4,4,1920,937,1920,1080,8-21-2021,8-52-13,40,,,,,,,1525,1050,960,1006,1062,425,,,,,,,699714,27,0,1,0,0,1,1,1,0,0
,,,,,,,,,,,,,,,,,,,,,,,,,,,,,,,699714,27,0,1,0,0,1,1,1,0,0
