subjID,experimentName,versionName,sequenceName,url,selected_row,windowWidth,windowHeight,screenWidth,screenHeight,startDate,startTime,trial,stimulus_0,stimulus_1,duration,actual_depth_0,actual_depth_1,discrim_choice,trial_RT,log_fixation,log_sceneDuration1,log_mask1,log_sceneDuration2,log_mask2,unitSelection,meanDepth_rating,navigability_rating,rated_stimulus,rating_RT,experimentTime,totalTime,age
570118,DepthScenes,duration_discrimination,discrim_jsons/d0_rotated.json,http://54.197.185.130/DepthDuration/depth_discrimination_MTurk/DepthDiscrim_HTML.html#3,3,1366,768,1366,768,6-12-2021,11-5-27,1,depth_discrimination_stimuli/001175_2014-06-17_15-45-55_260595134347_rgbf000129-resize_4/001175_2014-06-17_15-45-55_260595134347_rgbf000129-resize_4-target.png,depth_discrimination_stimuli/002467_2014-06-28_20-38-07_260595134347_rgbf000026-resize_2/002467_2014-06-28_20-38-07_260595134347_rgbf000026-resize_2-target.png,1000,4.255,4.742,0,2195,505,1010,500,990,500,feet,,,,,1566550,1996574,56
570118,DepthScenes,duration_discrimination,discrim_jsons/d0_rotated.json,http://54.197.185.130/DepthDuration/depth_discrimination_MTurk/DepthDiscrim_HTML.html#3,3,1366,768,1366,768,6-12-2021,11-5-27,2,depth_discrimination_stimuli/000709_2014-06-08_13-51-55_260595134347_rgbf000068-resize_3/000709_2014-06-08_13-51-55_260595134347_rgbf000068-resize_3-target.png,depth_discrimination_stimuli/003587_2014-05-23_16-48-02_094959634447_rgbf002384-resize_2/003587_2014-05-23_16-48-02_094959634447_rgbf002384-resize_2-target.png,250,1.803,1.357,1,2075,511,250,502,248,505,feet,,,,,1566550,1996574,56
570118,DepthScenes,duration_discrimination,discrim_jsons/d0_rotated.json,http://54.197.185.130/DepthDuration/depth_discrimination_MTurk/DepthDiscrim_HTML.html#3,3,1366,768,1366,768,6-12-2021,11-5-27,3,depth_discrimination_stimuli/000943_2014-06-09_19-31-07_260595134347_rgbf000128-resize_1/000943_2014-06-09_19-31-07_260595134347_rgbf000128-resize_1-target.png,depth_discrimination_stimuli/001555_2014-06-20_17-12-10_260595134347_rgbf000065-resize_4/001555_2014-06-20_17-12-10_260595134347_rgbf000065-resize_4-target.png,1000,1.9765,1.633,1,1829,502,1010,500,992,507,feet,,,,,1566550,1996574,56
570118,DepthScenes,duration_discrimination,discrim_jsons/d0_rotated.json,http://54.197.185.130/DepthDuration/depth_discrimination_MTurk/DepthDiscrim_HTML.html#3,3,1366,768,1366,768,6-12-2021,11-5-27,4,depth_discrimination_stimuli/002344_2014-06-28_20-06-29_260595134347_rgbf000030-resize_1/002344_2014-06-28_20-06-29_260595134347_rgbf000030-resize_1-target.png,depth_discrimination_stimuli/002509_2014-06-24_13-19-22_094959634447_rgbf000077-resize_0/002509_2014-06-24_13-19-22_094959634447_rgbf000077-resize_0-target.png,250,1.5795,1.3065,0,1850,505,258,502,248,501,feet,,,,,1566550,1996574,56
570118,DepthScenes,duration_discrimination,discrim_jsons/d0_rotated.json,http://54.197.185.130/DepthDuration/depth_discrimination_MTurk/DepthDiscrim_HTML.html#3,3,1366,768,1366,768,6-12-2021,11-5-27,5,depth_discrimination_stimuli/002949_2014-06-26_15-57-42_094959634447_rgbf000079-resize_1/002949_2014-06-26_15-57-42_094959634447_rgbf000079-resize_1-target.png,depth_discrimination_stimuli/002279_2014-06-28_18-55-32_260595134347_rgbf000040-resize_5/002279_2014-06-28_18-55-32_260595134347_rgbf000040-resize_5-target.png,1000,1.8915,1.5043333333333,1,1894,517,995,496,1010,495,feet,,,,,1566550,1996574,56
570118,DepthScenes,duration_discrimination,discrim_jsons/d0_rotated.json,http://54.197.185.130/DepthDuration/depth_discrimination_MTurk/DepthDiscrim_HTML.html#3,3,1366,768,1366,768,6-12-2021,11-5-27,6,depth_discrimination_stimuli/002630_2014-06-24_14-47-50_094959634447_rgbf000055-resize_1/002630_2014-06-24_14-47-50_094959634447_rgbf000055-resize_1-target.png,depth_discrimination_stimuli/001449_2014-06-19_17-01-27_260595134347_rgbf000116-resize_2/001449_2014-06-19_17-01-27_260595134347_rgbf000116-resize_2-target.png,250,3.0095,3.452,1,1293,504,249,505,245,510,feet,,,,,1566550,1996574,56
570118,DepthScenes,duration_discrimination,discrim_jsons/d0_rotated.json,http://54.197.185.130/DepthDuration/depth_discrimination_MTurk/DepthDiscrim_HTML.html#3,3,1366,768,1366,768,6-12-2021,11-5-27,7,depth_discrimination_stimuli/002039_2014-06-24_20-22-38_260595134347_rgbf000084-resize_1/002039_2014-06-24_20-22-38_260595134347_rgbf000084-resize_1-target.png,depth_discrimination_stimuli/001450_2014-06-19_17-02-03_260595134347_rgbf000203-resize_4/001450_2014-06-19_17-02-03_260595134347_rgbf000203-resize_4-target.png,250,4.408,4.0106666666667,0,1251,514,238,516,248,498,feet,,,,,1566550,1996574,56
570118,DepthScenes,duration_discrimination,discrim_jsons/d0_rotated.json,http://54.197.185.130/DepthDuration/depth_discrimination_MTurk/DepthDiscrim_HTML.html#3,3,1366,768,1366,768,6-12-2021,11-5-27,8,depth_discrimination_stimuli/002103_2014-06-25_20-00-40_260595134347_rgbf000049-resize_0/002103_2014-06-25_20-00-40_260595134347_rgbf000049-resize_0-target.png,depth_discrimination_stimuli/000692_2014-06-08_13-09-42_260595134347_rgbf000199-resize_2/000692_2014-06-08_13-09-42_260595134347_rgbf000199-resize_2-target.png,250,4.105,3.661,0,1297,512,248,503,251,504,feet,,,,,1566550,1996574,56
570118,DepthScenes,duration_discrimination,discrim_jsons/d0_rotated.json,http://54.197.185.130/DepthDuration/depth_discrimination_MTurk/DepthDiscrim_HTML.html#3,3,1366,768,1366,768,6-12-2021,11-5-27,9,depth_discrimination_stimuli/001148_2014-06-17_15-26-42_260595134347_rgbf000129-resize_0/001148_2014-06-17_15-26-42_260595134347_rgbf000129-resize_0-target.png,depth_discrimination_stimuli/000734_2014-06-08_17-39-11_260595134347_rgbf000128-resize_2/000734_2014-06-08_17-39-11_260595134347_rgbf000128-resize_2-target.png,250,4.368,4.098,0,1273,513,241,521,241,496,feet,,,,,1566550,1996574,56
570118,DepthScenes,duration_discrimination,discrim_jsons/d0_rotated.json,http://54.197.185.130/DepthDuration/depth_discrimination_MTurk/DepthDiscrim_HTML.html#3,3,1366,768,1366,768,6-12-2021,11-5-27,10,depth_discrimination_stimuli/002043_2014-06-24_20-29-38_260595134347_rgbf000039-resize_4/002043_2014-06-24_20-29-38_260595134347_rgbf000039-resize_4-target.png,depth_discrimination_stimuli/002445_2014-06-28_20-32-16_260595134347_rgbf000029-resize_4/002445_2014-06-28_20-32-16_260595134347_rgbf000029-resize_4-target.png,250,2.8435,2.5315,1,1333,505,248,528,224,500,feet,,,,,1566550,1996574,56
570118,DepthScenes,duration_discrimination,discrim_jsons/d0_rotated.json,http://54.197.185.130/DepthDuration/depth_discrimination_MTurk/DepthDiscrim_HTML.html#3,3,1366,768,1366,768,6-12-2021,11-5-27,11,depth_discrimination_stimuli/002545_2014-06-24_13-38-53_094959634447_rgbf000080-resize_4/002545_2014-06-24_13-38-53_094959634447_rgbf000080-resize_4-target.png,depth_discrimination_stimuli/002549_2014-06-24_13-41-39_094959634447_rgbf000022-resize_3/002549_2014-06-24_13-41-39_094959634447_rgbf000022-resize_3-target.png,250,1.9205,1.476,1,1007,503,260,491,263,496,feet,,,,,1566550,1996574,56
570118,DepthScenes,duration_discrimination,discrim_jsons/d0_rotated.json,http://54.197.185.130/DepthDuration/depth_discrimination_MTurk/DepthDiscrim_HTML.html#3,3,1366,768,1366,768,6-12-2021,11-5-27,12,depth_discrimination_stimuli/000137_2014-05-20_17-04-49_260595134347_rgbf000120-resize_1/000137_2014-05-20_17-04-49_260595134347_rgbf000120-resize_1-target.png,depth_discrimination_stimuli/000691_2014-06-08_13-08-50_260595134347_rgbf000132-resize_3/000691_2014-06-08_13-08-50_260595134347_rgbf000132-resize_3-target.png,250,3.786,4.153,0,1035,513,251,490,253,507,feet,,,,,1566550,1996574,56
570118,DepthScenes,duration_discrimination,discrim_jsons/d0_rotated.json,http://54.197.185.130/DepthDuration/depth_discrimination_MTurk/DepthDiscrim_HTML.html#3,3,1366,768,1366,768,6-12-2021,11-5-27,13,depth_discrimination_stimuli/003395_2014-05-20_15-39-18_094959634447_rgbf000101-resize_0/003395_2014-05-20_15-39-18_094959634447_rgbf000101-resize_0-target.png,depth_discrimination_stimuli/001540_2014-06-20_17-01-05_260595134347_rgbf000086-resize_2/001540_2014-06-20_17-01-05_260595134347_rgbf000086-resize_2-target.png,250,4.835,1.459,1,1081,502,256,502,254,500,feet,,,,,1566550,1996574,56
570118,DepthScenes,duration_discrimination,discrim_jsons/d0_rotated.json,http://54.197.185.130/DepthDuration/depth_discrimination_MTurk/DepthDiscrim_HTML.html#3,3,1366,768,1366,768,6-12-2021,11-5-27,14,depth_discrimination_stimuli/001806_2014-06-26_20-50-20_260595134347_rgbf000091-resize_1/001806_2014-06-26_20-50-20_260595134347_rgbf000091-resize_1-target.png,depth_discrimination_stimuli/002460_2014-06-28_20-35-43_260595134347_rgbf000028-resize_4/002460_2014-06-28_20-35-43_260595134347_rgbf000028-resize_4-target.png,1000,2.7305,2.269,1,1882,507,1001,497,1008,498,feet,,,,,1566550,1996574,56
570118,DepthScenes,duration_discrimination,discrim_jsons/d0_rotated.json,http://54.197.185.130/DepthDuration/depth_discrimination_MTurk/DepthDiscrim_HTML.html#3,3,1366,768,1366,768,6-12-2021,11-5-27,15,depth_discrimination_stimuli/001132_2014-06-17_14-48-54_260595134347_rgbf000100-resize_2/001132_2014-06-17_14-48-54_260595134347_rgbf000100-resize_2-target.png,depth_discrimination_stimuli/002639_2014-06-24_14-51-37_094959634447_rgbf000074-resize_4/002639_2014-06-24_14-51-37_094959634447_rgbf000074-resize_4-target.png,1000,3.753,4.0375,1,1994,515,1001,487,1003,503,feet,,,,,1566550,1996574,56
570118,DepthScenes,duration_discrimination,discrim_jsons/d0_rotated.json,http://54.197.185.130/DepthDuration/depth_discrimination_MTurk/DepthDiscrim_HTML.html#3,3,1366,768,1366,768,6-12-2021,11-5-27,16,depth_discrimination_stimuli/003621_2014-05-23_18-06-08_094959634447_rgbf000101-resize_1/003621_2014-05-23_18-06-08_094959634447_rgbf000101-resize_1-target.png,depth_discrimination_stimuli/001808_2014-06-26_20-50-58_260595134347_rgbf000029-resize_1/001808_2014-06-26_20-50-58_260595134347_rgbf000029-resize_1-target.png,250,3.9835,4.249,0,1168,515,243,497,247,516,feet,,,,,1566550,1996574,56
570118,DepthScenes,duration_discrimination,discrim_jsons/d0_rotated.json,http://54.197.185.130/DepthDuration/depth_discrimination_MTurk/DepthDiscrim_HTML.html#3,3,1366,768,1366,768,6-12-2021,11-5-27,17,depth_discrimination_stimuli/001516_2014-06-20_16-25-09_260595134347_rgbf000076-resize_2/001516_2014-06-20_16-25-09_260595134347_rgbf000076-resize_2-target.png,depth_discrimination_stimuli/000635_2014-06-08_16-38-42_260595134347_rgbf000106-resize_1/000635_2014-06-08_16-38-42_260595134347_rgbf000106-resize_1-target.png,1000,1.7445,2.074,1,1980,501,1001,508,1003,497,feet,,,,,1566550,1996574,56
570118,DepthScenes,duration_discrimination,discrim_jsons/d0_rotated.json,http://54.197.185.130/DepthDuration/depth_discrimination_MTurk/DepthDiscrim_HTML.html#3,3,1366,768,1366,768,6-12-2021,11-5-27,18,depth_discrimination_stimuli/002464_2014-06-28_20-36-57_260595134347_rgbf000029-resize_0/002464_2014-06-28_20-36-57_260595134347_rgbf000029-resize_0-target.png,depth_discrimination_stimuli/000409_2014-06-04_19-23-33_260595134347_rgbf000067-resize_0/000409_2014-06-04_19-23-33_260595134347_rgbf000067-resize_0-target.png,1000,3.9525,3.7335,0,2169,515,989,500,1007,500,feet,,,,,1566550,1996574,56
570118,DepthScenes,duration_discrimination,discrim_jsons/d0_rotated.json,http://54.197.185.130/DepthDuration/depth_discrimination_MTurk/DepthDiscrim_HTML.html#3,3,1366,768,1366,768,6-12-2021,11-5-27,19,depth_discrimination_stimuli/003048_2014-06-15_13-49-43_094959634447_rgbf000150-resize_1/003048_2014-06-15_13-49-43_094959634447_rgbf000150-resize_1-target.png,depth_discrimination_stimuli/002444_2014-06-28_20-32-08_260595134347_rgbf000027-resize_0/002444_2014-06-28_20-32-08_260595134347_rgbf000027-resize_0-target.png,1000,4.0035,4.389,0,2114,506,1015,485,1009,487,feet,,,,,1566550,1996574,56
570118,DepthScenes,duration_discrimination,discrim_jsons/d0_rotated.json,http://54.197.185.130/DepthDuration/depth_discrimination_MTurk/DepthDiscrim_HTML.html#3,3,1366,768,1366,768,6-12-2021,11-5-27,20,depth_discrimination_stimuli/002136_2014-06-25_21-18-03_260595134347_rgbf000109-resize_3/002136_2014-06-25_21-18-03_260595134347_rgbf000109-resize_3-target.png,depth_discrimination_stimuli/000469_2014-06-09_19-42-10_260595134347_rgbf000081-resize_1/000469_2014-06-09_19-42-10_260595134347_rgbf000081-resize_1-target.png,250,1.957,1.652,1,1131,505,248,506,243,502,feet,,,,,1566550,1996574,56
570118,DepthScenes,duration_discrimination,discrim_jsons/d0_rotated.json,http://54.197.185.130/DepthDuration/depth_discrimination_MTurk/DepthDiscrim_HTML.html#3,3,1366,768,1366,768,6-12-2021,11-5-27,21,depth_discrimination_stimuli/002131_2014-06-25_21-12-01_260595134347_rgbf000083-resize_0/002131_2014-06-25_21-12-01_260595134347_rgbf000083-resize_0-target.png,depth_discrimination_stimuli/001100_2014-06-15_17-46-26_260595134347_rgbf000225-resize_2/001100_2014-06-15_17-46-26_260595134347_rgbf000225-resize_2-target.png,1000,1.7685,2.24,1,1839,504,1001,509,991,507,feet,,,,,1566550,1996574,56
570118,DepthScenes,duration_discrimination,discrim_jsons/d0_rotated.json,http://54.197.185.130/DepthDuration/depth_discrimination_MTurk/DepthDiscrim_HTML.html#3,3,1366,768,1366,768,6-12-2021,11-5-27,22,depth_discrimination_stimuli/002468_2014-06-28_20-38-39_260595134347_rgbf000045-resize_1/002468_2014-06-28_20-38-39_260595134347_rgbf000045-resize_1-target.png,depth_discrimination_stimuli/002579_2014-06-24_14-08-03_094959634447_rgbf000061-resize_2/002579_2014-06-24_14-08-03_094959634447_rgbf000061-resize_2-target.png,250,1.956,2.223125,1,1408,508,255,498,246,498,feet,,,,,1566550,1996574,56
570118,DepthScenes,duration_discrimination,discrim_jsons/d0_rotated.json,http://54.197.185.130/DepthDuration/depth_discrimination_MTurk/DepthDiscrim_HTML.html#3,3,1366,768,1366,768,6-12-2021,11-5-27,23,depth_discrimination_stimuli/000454_2014-06-08_16-37-28_260595134347_rgbf000048-resize_2/000454_2014-06-08_16-37-28_260595134347_rgbf000048-resize_2-target.png,depth_discrimination_stimuli/000375_2014-06-08_11-17-29_260595134347_rgbf000133-resize_2/000375_2014-06-08_11-17-29_260595134347_rgbf000133-resize_2-target.png,1000,1.213,4.718,0,2091,507,1007,501,989,515,feet,,,,,1566550,1996574,56
570118,DepthScenes,duration_discrimination,discrim_jsons/d0_rotated.json,http://54.197.185.130/DepthDuration/depth_discrimination_MTurk/DepthDiscrim_HTML.html#3,3,1366,768,1366,768,6-12-2021,11-5-27,24,depth_discrimination_stimuli/001532_2014-06-20_16-50-41_260595134347_rgbf000081-resize_4/001532_2014-06-20_16-50-41_260595134347_rgbf000081-resize_4-target.png,depth_discrimination_stimuli/002784_2014-06-22_19-26-30_094959634447_rgbf000083-resize_3/002784_2014-06-22_19-26-30_094959634447_rgbf000083-resize_3-target.png,1000,1.5758333333333,1.8046666666667,0,2110,514,995,495,1014,494,feet,,,,,1566550,1996574,56
570118,DepthScenes,duration_discrimination,discrim_jsons/d0_rotated.json,http://54.197.185.130/DepthDuration/depth_discrimination_MTurk/DepthDiscrim_HTML.html#3,3,1366,768,1366,768,6-12-2021,11-5-27,25,depth_discrimination_stimuli/000542_2014-06-08_18-27-08_260595134347_rgbf000118-resize_1/000542_2014-06-08_18-27-08_260595134347_rgbf000118-resize_1-target.png,depth_discrimination_stimuli/002118_2014-06-25_20-32-08_260595134347_rgbf000078-resize_1/002118_2014-06-25_20-32-08_260595134347_rgbf000078-resize_1-target.png,1000,3,2.646,1,1908,512,1002,497,1000,496,feet,,,,,1566550,1996574,56
570118,DepthScenes,duration_discrimination,discrim_jsons/d0_rotated.json,http://54.197.185.130/DepthDuration/depth_discrimination_MTurk/DepthDiscrim_HTML.html#3,3,1366,768,1366,768,6-12-2021,11-5-27,26,depth_discrimination_stimuli/002272_2014-06-28_18-53-56_260595134347_rgbf000067-resize_2/002272_2014-06-28_18-53-56_260595134347_rgbf000067-resize_2-target.png,depth_discrimination_stimuli/003534_2014-05-22_15-06-10_094959634447_rgbf000102-resize_4/003534_2014-05-22_15-06-10_094959634447_rgbf000102-resize_4-target.png,1000,1.138,1.426,1,1857,503,1004,507,991,517,feet,,,,,1566550,1996574,56
570118,DepthScenes,duration_discrimination,discrim_jsons/d0_rotated.json,http://54.197.185.130/DepthDuration/depth_discrimination_MTurk/DepthDiscrim_HTML.html#3,3,1366,768,1366,768,6-12-2021,11-5-27,27,depth_discrimination_stimuli/002748_2014-06-22_19-07-22_094959634447_rgbf000078-resize_1/002748_2014-06-22_19-07-22_094959634447_rgbf000078-resize_1-target.png,depth_discrimination_stimuli/002657_2014-06-13_15-29-54_094959634447_rgbf000150-resize_1/002657_2014-06-13_15-29-54_094959634447_rgbf000150-resize_1-target.png,250,4.6705,4.919,1,1392,507,247,508,240,501,feet,,,,,1566550,1996574,56
570118,DepthScenes,duration_discrimination,discrim_jsons/d0_rotated.json,http://54.197.185.130/DepthDuration/depth_discrimination_MTurk/DepthDiscrim_HTML.html#3,3,1366,768,1366,768,6-12-2021,11-5-27,28,depth_discrimination_stimuli/002365_2014-06-28_20-11-21_260595134347_rgbf000102-resize_1/002365_2014-06-28_20-11-21_260595134347_rgbf000102-resize_1-target.png,depth_discrimination_stimuli/000457_2014-06-08_16-52-43_260595134347_rgbf000199-resize_1/000457_2014-06-08_16-52-43_260595134347_rgbf000199-resize_1-target.png,1000,4.013,3.649,1,1957,504,1006,501,1001,497,feet,,,,,1566550,1996574,56
570118,DepthScenes,duration_discrimination,discrim_jsons/d0_rotated.json,http://54.197.185.130/DepthDuration/depth_discrimination_MTurk/DepthDiscrim_HTML.html#3,3,1366,768,1366,768,6-12-2021,11-5-27,29,depth_discrimination_stimuli/000736_2014-06-08_18-24-15_260595134347_rgbf000206-resize_3/000736_2014-06-08_18-24-15_260595134347_rgbf000206-resize_3-target.png,depth_discrimination_stimuli/002323_2014-06-28_20-01-54_260595134347_rgbf000051-resize_4/002323_2014-06-28_20-01-54_260595134347_rgbf000051-resize_4-target.png,250,3.515,3.731,0,1155,513,245,500,267,490,feet,,,,,1566550,1996574,56
570118,DepthScenes,duration_discrimination,discrim_jsons/d0_rotated.json,http://54.197.185.130/DepthDuration/depth_discrimination_MTurk/DepthDiscrim_HTML.html#3,3,1366,768,1366,768,6-12-2021,11-5-27,30,depth_discrimination_stimuli/000522_2014-06-08_13-35-06_260595134347_rgbf000244-resize_1/000522_2014-06-08_13-35-06_260595134347_rgbf000244-resize_1-target.png,depth_discrimination_stimuli/001092_2014-06-15_17-34-58_260595134347_rgbf000171-resize_3/001092_2014-06-15_17-34-58_260595134347_rgbf000171-resize_3-target.png,250,2.3715,2.6935,0,1522,503,250,500,255,495,feet,,,,,1566550,1996574,56
570118,DepthScenes,duration_discrimination,discrim_jsons/d0_rotated.json,http://54.197.185.130/DepthDuration/depth_discrimination_MTurk/DepthDiscrim_HTML.html#3,3,1366,768,1366,768,6-12-2021,11-5-27,31,depth_discrimination_stimuli/002995_2014-06-15_12-31-26_094959634447_rgbf000150-resize_1/002995_2014-06-15_12-31-26_094959634447_rgbf000150-resize_1-target.png,depth_discrimination_stimuli/000739_2014-06-08_18-45-58_260595134347_rgbf000068-resize_1/000739_2014-06-08_18-45-58_260595134347_rgbf000068-resize_1-target.png,1000,3.836,3.534,1,1817,507,1000,500,995,515,feet,,,,,1566550,1996574,56
570118,DepthScenes,duration_discrimination,discrim_jsons/d0_rotated.json,http://54.197.185.130/DepthDuration/depth_discrimination_MTurk/DepthDiscrim_HTML.html#3,3,1366,768,1366,768,6-12-2021,11-5-27,32,depth_discrimination_stimuli/001571_2014-06-20_17-21-32_260595134347_rgbf000089-resize_1/001571_2014-06-20_17-21-32_260595134347_rgbf000089-resize_1-target.png,depth_discrimination_stimuli/002953_2014-06-08_17-32-18_094959634447_rgbf000059-resize_5/002953_2014-06-08_17-32-18_094959634447_rgbf000059-resize_5-target.png,1000,1.86,1.551,1,1847,520,990,520,990,491,feet,,,,,1566550,1996574,56
570118,DepthScenes,duration_discrimination,discrim_jsons/d0_rotated.json,http://54.197.185.130/DepthDuration/depth_discrimination_MTurk/DepthDiscrim_HTML.html#3,3,1366,768,1366,768,6-12-2021,11-5-27,33,depth_discrimination_stimuli/001724_2014-06-26_19-28-50_260595134347_rgbf000037-resize_7/001724_2014-06-26_19-28-50_260595134347_rgbf000037-resize_7-target.png,depth_discrimination_stimuli/002989_2014-06-15_12-25-03_094959634447_rgbf000150-resize_3/002989_2014-06-15_12-25-03_094959634447_rgbf000150-resize_3-target.png,1000,3.827,4.1975,0,2270,502,1008,492,1012,498,feet,,,,,1566550,1996574,56
570118,DepthScenes,duration_discrimination,discrim_jsons/d0_rotated.json,http://54.197.185.130/DepthDuration/depth_discrimination_MTurk/DepthDiscrim_HTML.html#3,3,1366,768,1366,768,6-12-2021,11-5-27,34,depth_discrimination_stimuli/001170_2014-06-17_15-43-44_260595134347_rgbf000096-resize_6/001170_2014-06-17_15-43-44_260595134347_rgbf000096-resize_6-target.png,depth_discrimination_stimuli/002364_2014-06-28_20-11-05_260595134347_rgbf000042-resize_0/002364_2014-06-28_20-11-05_260595134347_rgbf000042-resize_0-target.png,1000,1.191,4.682,0,2058,519,991,506,987,505,feet,,,,,1566550,1996574,56
570118,DepthScenes,duration_discrimination,discrim_jsons/d0_rotated.json,http://54.197.185.130/DepthDuration/depth_discrimination_MTurk/DepthDiscrim_HTML.html#3,3,1366,768,1366,768,6-12-2021,11-5-27,35,depth_discrimination_stimuli/003228_2014-05-14_13-42-35_094959634447_rgbf000101-resize_1/003228_2014-05-14_13-42-35_094959634447_rgbf000101-resize_1-target.png,depth_discrimination_stimuli/001164_2014-06-17_15-35-46_260595134347_rgbf000085-resize_3/001164_2014-06-17_15-35-46_260595134347_rgbf000085-resize_3-target.png,250,1.968,2.354,0,1456,508,247,511,241,495,feet,,,,,1566550,1996574,56
570118,DepthScenes,duration_discrimination,discrim_jsons/d0_rotated.json,http://54.197.185.130/DepthDuration/depth_discrimination_MTurk/DepthDiscrim_HTML.html#3,3,1366,768,1366,768,6-12-2021,11-5-27,36,depth_discrimination_stimuli/000906_2014-06-08_13-35-43_260595134347_rgbf000155-resize_1/000906_2014-06-08_13-35-43_260595134347_rgbf000155-resize_1-target.png,depth_discrimination_stimuli/001059_2014-06-08_21-53-27_260595134347_rgbf000061-resize_4/001059_2014-06-08_21-53-27_260595134347_rgbf000061-resize_4-target.png,250,2.849,2.4185,1,1174,509,254,500,245,500,feet,,,,,1566550,1996574,56
570118,DepthScenes,duration_discrimination,discrim_jsons/d0_rotated.json,http://54.197.185.130/DepthDuration/depth_discrimination_MTurk/DepthDiscrim_HTML.html#3,3,1366,768,1366,768,6-12-2021,11-5-27,37,depth_discrimination_stimuli/000866_2014-06-09_20-45-42_260595134347_rgbf000139-resize_1/000866_2014-06-09_20-45-42_260595134347_rgbf000139-resize_1-target.png,depth_discrimination_stimuli/000682_2014-06-08_23-14-58_260595134347_rgbf000041-resize_5/000682_2014-06-08_23-14-58_260595134347_rgbf000041-resize_5-target.png,250,3.2155,2.724,1,1440,504,248,511,250,504,feet,,,,,1566550,1996574,56
570118,DepthScenes,duration_discrimination,discrim_jsons/d0_rotated.json,http://54.197.185.130/DepthDuration/depth_discrimination_MTurk/DepthDiscrim_HTML.html#3,3,1366,768,1366,768,6-12-2021,11-5-27,38,depth_discrimination_stimuli/001214_2014-06-17_16-13-55_260595134347_rgbf000111-resize_0/001214_2014-06-17_16-13-55_260595134347_rgbf000111-resize_0-target.png,depth_discrimination_stimuli/000665_2014-06-09_20-42-35_260595134347_rgbf000110-resize_1/000665_2014-06-09_20-42-35_260595134347_rgbf000110-resize_1-target.png,250,2.6505,3.057,0,1422,512,239,505,255,503,feet,,,,,1566550,1996574,56
570118,DepthScenes,duration_discrimination,discrim_jsons/d0_rotated.json,http://54.197.185.130/DepthDuration/depth_discrimination_MTurk/DepthDiscrim_HTML.html#3,3,1366,768,1366,768,6-12-2021,11-5-27,39,depth_discrimination_stimuli/001570_2014-06-20_17-21-09_260595134347_rgbf000135-resize_4/001570_2014-06-20_17-21-09_260595134347_rgbf000135-resize_4-target.png,depth_discrimination_stimuli/002375_2014-06-28_20-13-44_260595134347_rgbf000032-resize_1/002375_2014-06-28_20-13-44_260595134347_rgbf000032-resize_1-target.png,250,4.467,4.0175,1,1143,508,250,505,255,487,feet,,,,,1566550,1996574,56
570118,DepthScenes,duration_discrimination,discrim_jsons/d0_rotated.json,http://54.197.185.130/DepthDuration/depth_discrimination_MTurk/DepthDiscrim_HTML.html#3,3,1366,768,1366,768,6-12-2021,11-5-27,40,depth_discrimination_stimuli/003288_2014-05-14_21-50-30_094959634447_rgbf000028-resize_3/003288_2014-05-14_21-50-30_094959634447_rgbf000028-resize_3-target.png,depth_discrimination_stimuli/000735_2014-06-08_18-23-50_260595134347_rgbf000163-resize_2/000735_2014-06-08_18-23-50_260595134347_rgbf000163-resize_2-target.png,250,3.877,4.1695,0,1037,501,256,503,250,494,feet,,,,,1566550,1996574,56
570118,DepthScenes,duration_discrimination,discrim_jsons/d0_rotated.json,http://54.197.185.130/DepthDuration/depth_discrimination_MTurk/DepthDiscrim_HTML.html#3,3,1366,768,1366,768,6-12-2021,11-5-27,41,depth_discrimination_stimuli/001618_2014-06-20_11-37-31_260595134347_rgbf000027-resize_3/001618_2014-06-20_11-37-31_260595134347_rgbf000027-resize_3-target.png,depth_discrimination_stimuli/001016_2014-06-09_16-16-10_260595134347_rgbf000112-resize_5/001016_2014-06-09_16-16-10_260595134347_rgbf000112-resize_5-target.png,250,1.8725,1.6565,0,1172,502,258,506,243,522,feet,,,,,1566550,1996574,56
570118,DepthScenes,duration_discrimination,discrim_jsons/d0_rotated.json,http://54.197.185.130/DepthDuration/depth_discrimination_MTurk/DepthDiscrim_HTML.html#3,3,1366,768,1366,768,6-12-2021,11-5-27,42,depth_discrimination_stimuli/002340_2014-06-28_20-05-46_260595134347_rgbf000113-resize_0/002340_2014-06-28_20-05-46_260595134347_rgbf000113-resize_0-target.png,depth_discrimination_stimuli/001264_2014-06-16_16-10-23_260595134347_rgbf000109-resize_1/001264_2014-06-16_16-10-23_260595134347_rgbf000109-resize_1-target.png,1000,2.4735,2.9665,1,2008,508,1003,505,987,503,feet,,,,,1566550,1996574,56
570118,DepthScenes,duration_discrimination,discrim_jsons/d0_rotated.json,http://54.197.185.130/DepthDuration/depth_discrimination_MTurk/DepthDiscrim_HTML.html#3,3,1366,768,1366,768,6-12-2021,11-5-27,43,depth_discrimination_stimuli/000447_2014-06-08_16-15-46_260595134347_rgbf000130-resize_1/000447_2014-06-08_16-15-46_260595134347_rgbf000130-resize_1-target.png,depth_discrimination_stimuli/002988_2014-06-15_12-24-20_094959634447_rgbf000150-resize_1/002988_2014-06-15_12-24-20_094959634447_rgbf000150-resize_1-target.png,1000,4.479,4.767,0,1898,509,999,496,1013,494,feet,,,,,1566550,1996574,56
570118,DepthScenes,duration_discrimination,discrim_jsons/d0_rotated.json,http://54.197.185.130/DepthDuration/depth_discrimination_MTurk/DepthDiscrim_HTML.html#3,3,1366,768,1366,768,6-12-2021,11-5-27,44,depth_discrimination_stimuli/000800_2014-06-08_22-42-09_260595134347_rgbf000095-resize_3/000800_2014-06-08_22-42-09_260595134347_rgbf000095-resize_3-target.png,depth_discrimination_stimuli/002700_2014-06-22_11-27-02_094959634447_rgbf000124-resize_3/002700_2014-06-22_11-27-02_094959634447_rgbf000124-resize_3-target.png,1000,2.8,3.301,1,1887,509,998,501,997,509,feet,,,,,1566550,1996574,56
570118,DepthScenes,duration_discrimination,discrim_jsons/d0_rotated.json,http://54.197.185.130/DepthDuration/depth_discrimination_MTurk/DepthDiscrim_HTML.html#3,3,1366,768,1366,768,6-12-2021,11-5-27,45,depth_discrimination_stimuli/000917_2014-06-09_22-45-29_260595134347_rgbf000149-resize_3/000917_2014-06-09_22-45-29_260595134347_rgbf000149-resize_3-target.png,depth_discrimination_stimuli/003081_2014-06-15_15-19-16_094959634447_rgbf000150-resize_1/003081_2014-06-15_15-19-16_094959634447_rgbf000150-resize_1-target.png,250,4.1865,3.9125,1,1655,505,258,502,240,509,feet,,,,,1566550,1996574,56
570118,DepthScenes,duration_discrimination,discrim_jsons/d0_rotated.json,http://54.197.185.130/DepthDuration/depth_discrimination_MTurk/DepthDiscrim_HTML.html#3,3,1366,768,1366,768,6-12-2021,11-5-27,46,depth_discrimination_stimuli/003010_2014-06-15_12-54-35_094959634447_rgbf000112-resize_0/003010_2014-06-15_12-54-35_094959634447_rgbf000112-resize_0-target.png,depth_discrimination_stimuli/003546_2014-05-22_15-48-53_094959634447_rgbf004816-resize_3/003546_2014-05-22_15-48-53_094959634447_rgbf004816-resize_3-target.png,1000,3.1185,2.62625,1,1966,504,1002,510,1006,487,feet,,,,,1566550,1996574,56
570118,DepthScenes,duration_discrimination,discrim_jsons/d0_rotated.json,http://54.197.185.130/DepthDuration/depth_discrimination_MTurk/DepthDiscrim_HTML.html#3,3,1366,768,1366,768,6-12-2021,11-5-27,47,depth_discrimination_stimuli/000569_2014-06-09_22-51-47_260595134347_rgbf000141-resize_3/000569_2014-06-09_22-51-47_260595134347_rgbf000141-resize_3-target.png,depth_discrimination_stimuli/000868_2014-06-09_20-49-52_260595134347_rgbf000064-resize_4/000868_2014-06-09_20-49-52_260595134347_rgbf000064-resize_4-target.png,250,4.512,1.2815,1,1053,510,255,500,248,495,feet,,,,,1566550,1996574,56
570118,DepthScenes,duration_discrimination,discrim_jsons/d0_rotated.json,http://54.197.185.130/DepthDuration/depth_discrimination_MTurk/DepthDiscrim_HTML.html#3,3,1366,768,1366,768,6-12-2021,11-5-27,48,depth_discrimination_stimuli/002875_2014-06-01_15-19-00_094959634447_rgbf000151-resize_1/002875_2014-06-01_15-19-00_094959634447_rgbf000151-resize_1-target.png,depth_discrimination_stimuli/000749_2014-06-08_21-55-06_260595134347_rgbf000070-resize_2/000749_2014-06-08_21-55-06_260595134347_rgbf000070-resize_2-target.png,250,1.9675,2.331,0,1270,513,244,529,227,497,feet,,,,,1566550,1996574,56
570118,DepthScenes,duration_discrimination,discrim_jsons/d0_rotated.json,http://54.197.185.130/DepthDuration/depth_discrimination_MTurk/DepthDiscrim_HTML.html#3,3,1366,768,1366,768,6-12-2021,11-5-27,49,depth_discrimination_stimuli/000830_2014-06-04_19-49-31_260595134347_rgbf000096-resize_2/000830_2014-06-04_19-49-31_260595134347_rgbf000096-resize_2-target.png,depth_discrimination_stimuli/000929_2014-06-09_16-33-19_260595134347_rgbf000139-resize_0/000929_2014-06-09_16-33-19_260595134347_rgbf000139-resize_0-target.png,250,2.6353333333333,2.868,1,2154,502,262,490,258,505,feet,,,,,1566550,1996574,56
570118,DepthScenes,duration_discrimination,discrim_jsons/d0_rotated.json,http://54.197.185.130/DepthDuration/depth_discrimination_MTurk/DepthDiscrim_HTML.html#3,3,1366,768,1366,768,6-12-2021,11-5-27,50,depth_discrimination_stimuli/000953_2014-06-08_11-42-19_260595134347_rgbf000083-resize_0/000953_2014-06-08_11-42-19_260595134347_rgbf000083-resize_0-target.png,depth_discrimination_stimuli/000787_2014-06-08_22-33-53_260595134347_rgbf000175-resize_1/000787_2014-06-08_22-33-53_260595134347_rgbf000175-resize_1-target.png,1000,1.369,4.784,0,2670,510,996,512,988,505,feet,,,,,1566550,1996574,56
570118,DepthScenes,duration_discrimination,discrim_jsons/d0_rotated.json,http://54.197.185.130/DepthDuration/depth_discrimination_MTurk/DepthDiscrim_HTML.html#3,3,1366,768,1366,768,6-12-2021,11-5-27,51,depth_discrimination_stimuli/001136_2014-06-17_15-19-41_260595134347_rgbf000076-resize_3/001136_2014-06-17_15-19-41_260595134347_rgbf000076-resize_3-target.png,depth_discrimination_stimuli/000869_2014-06-09_20-50-18_260595134347_rgbf000060-resize_3/000869_2014-06-09_20-50-18_260595134347_rgbf000060-resize_3-target.png,250,1.8655,2.266,1,1516,504,258,502,257,497,feet,,,,,1566550,1996574,56
570118,DepthScenes,duration_discrimination,discrim_jsons/d0_rotated.json,http://54.197.185.130/DepthDuration/depth_discrimination_MTurk/DepthDiscrim_HTML.html#3,3,1366,768,1366,768,6-12-2021,11-5-27,52,depth_discrimination_stimuli/001815_2014-06-26_20-52-55_260595134347_rgbf000020-resize_0/001815_2014-06-26_20-52-55_260595134347_rgbf000020-resize_0-target.png,depth_discrimination_stimuli/000642_2014-06-08_16-59-25_260595134347_rgbf000098-resize_2/000642_2014-06-08_16-59-25_260595134347_rgbf000098-resize_2-target.png,1000,3.3865,2.8815,1,2792,511,997,498,1009,489,feet,,,,,1566550,1996574,56
570118,DepthScenes,duration_discrimination,discrim_jsons/d0_rotated.json,http://54.197.185.130/DepthDuration/depth_discrimination_MTurk/DepthDiscrim_HTML.html#3,3,1366,768,1366,768,6-12-2021,11-5-27,53,depth_discrimination_stimuli/000368_2014-06-09_15-53-01_260595134347_rgbf000155-resize_2/000368_2014-06-09_15-53-01_260595134347_rgbf000155-resize_2-target.png,depth_discrimination_stimuli/002199_2014-06-28_18-33-56_260595134347_rgbf000074-resize_0/002199_2014-06-28_18-33-56_260595134347_rgbf000074-resize_0-target.png,250,2.486,1.996,1,1424,508,256,491,248,508,feet,,,,,1566550,1996574,56
570118,DepthScenes,duration_discrimination,discrim_jsons/d0_rotated.json,http://54.197.185.130/DepthDuration/depth_discrimination_MTurk/DepthDiscrim_HTML.html#3,3,1366,768,1366,768,6-12-2021,11-5-27,54,depth_discrimination_stimuli/002788_2014-06-22_19-36-03_094959634447_rgbf000088-resize_2/002788_2014-06-22_19-36-03_094959634447_rgbf000088-resize_2-target.png,depth_discrimination_stimuli/001289_2014-06-16_16-25-52_260595134347_rgbf000067-resize_1/001289_2014-06-16_16-25-52_260595134347_rgbf000067-resize_1-target.png,1000,1.6465,1.8835,1,1919,514,989,501,1000,509,feet,,,,,1566550,1996574,56
570118,DepthScenes,duration_discrimination,discrim_jsons/d0_rotated.json,http://54.197.185.130/DepthDuration/depth_discrimination_MTurk/DepthDiscrim_HTML.html#3,3,1366,768,1366,768,6-12-2021,11-5-27,55,depth_discrimination_stimuli/000191_2014-05-12_17-07-38_260595134347_rgbf000199-resize_0/000191_2014-05-12_17-07-38_260595134347_rgbf000199-resize_0-target.png,depth_discrimination_stimuli/000780_2014-06-08_22-28-29_260595134347_rgbf000126-resize_1/000780_2014-06-08_22-28-29_260595134347_rgbf000126-resize_1-target.png,1000,3.7995,3.3825,1,1614,518,990,500,997,506,feet,,,,,1566550,1996574,56
570118,DepthScenes,duration_discrimination,discrim_jsons/d0_rotated.json,http://54.197.185.130/DepthDuration/depth_discrimination_MTurk/DepthDiscrim_HTML.html#3,3,1366,768,1366,768,6-12-2021,11-5-27,56,depth_discrimination_stimuli/003495_2014-05-21_16-01-51_094959634447_rgbf000100-resize_3/003495_2014-05-21_16-01-51_094959634447_rgbf000100-resize_3-target.png,depth_discrimination_stimuli/001167_2014-06-17_15-38-07_260595134347_rgbf000108-resize_0/001167_2014-06-17_15-38-07_260595134347_rgbf000108-resize_0-target.png,250,1.6255,1.8505,0,1060,513,253,492,252,494,feet,,,,,1566550,1996574,56
570118,DepthScenes,duration_discrimination,discrim_jsons/d0_rotated.json,http://54.197.185.130/DepthDuration/depth_discrimination_MTurk/DepthDiscrim_HTML.html#3,3,1366,768,1366,768,6-12-2021,11-5-27,57,depth_discrimination_stimuli/001498_2014-06-19_17-45-14_260595134347_rgbf000129-resize_4/001498_2014-06-19_17-45-14_260595134347_rgbf000129-resize_4-target.png,depth_discrimination_stimuli/003125_2014-05-12_10-39-22_094959634447_rgbf000100-resize_0/003125_2014-05-12_10-39-22_094959634447_rgbf000100-resize_0-target.png,250,1.4075,4.8655,0,1050,511,251,500,240,502,feet,,,,,1566550,1996574,56
570118,DepthScenes,duration_discrimination,discrim_jsons/d0_rotated.json,http://54.197.185.130/DepthDuration/depth_discrimination_MTurk/DepthDiscrim_HTML.html#3,3,1366,768,1366,768,6-12-2021,11-5-27,58,depth_discrimination_stimuli/001181_2014-06-17_15-50-57_260595134347_rgbf000106-resize_4/001181_2014-06-17_15-50-57_260595134347_rgbf000106-resize_4-target.png,depth_discrimination_stimuli/002425_2014-06-28_20-27-29_260595134347_rgbf000031-resize_8/002425_2014-06-28_20-27-29_260595134347_rgbf000031-resize_8-target.png,250,4.149,3.896,1,3164,507,247,513,248,491,feet,,,,,1566550,1996574,56
570118,DepthScenes,duration_discrimination,discrim_jsons/d0_rotated.json,http://54.197.185.130/DepthDuration/depth_discrimination_MTurk/DepthDiscrim_HTML.html#3,3,1366,768,1366,768,6-12-2021,11-5-27,59,depth_discrimination_stimuli/002805_2014-06-22_19-54-03_094959634447_rgbf000079-resize_1/002805_2014-06-22_19-54-03_094959634447_rgbf000079-resize_1-target.png,depth_discrimination_stimuli/003292_2014-05-14_21-53-49_094959634447_rgbf000100-resize_2/003292_2014-05-14_21-53-49_094959634447_rgbf000100-resize_2-target.png,1000,3.144,3.4815,1,1861,512,1000,490,1013,494,feet,,,,,1566550,1996574,56
570118,DepthScenes,duration_discrimination,discrim_jsons/d0_rotated.json,http://54.197.185.130/DepthDuration/depth_discrimination_MTurk/DepthDiscrim_HTML.html#3,3,1366,768,1366,768,6-12-2021,11-5-27,60,depth_discrimination_stimuli/002637_2014-06-24_14-51-13_094959634447_rgbf000066-resize_4/002637_2014-06-24_14-51-13_094959634447_rgbf000066-resize_4-target.png,depth_discrimination_stimuli/000720_2014-06-08_18-37-27_260595134347_rgbf000203-resize_4/000720_2014-06-08_18-37-27_260595134347_rgbf000203-resize_4-target.png,1000,1.9955,1.558,1,3184,508,1003,494,1007,496,feet,,,,,1566550,1996574,56
570118,DepthScenes,duration_discrimination,discrim_jsons/d0_rotated.json,http://54.197.185.130/DepthDuration/depth_discrimination_MTurk/DepthDiscrim_HTML.html#3,3,1366,768,1366,768,6-12-2021,11-5-27,61,depth_discrimination_stimuli/003083_2014-06-15_15-21-03_094959634447_rgbf000063-resize_1/003083_2014-06-15_15-21-03_094959634447_rgbf000063-resize_1-target.png,depth_discrimination_stimuli/001417_2014-06-19_16-25-36_260595134347_rgbf000115-resize_5/001417_2014-06-19_16-25-36_260595134347_rgbf000115-resize_5-target.png,250,4.1405,4.6255,0,4105,526,239,495,252,492,feet,,,,,1566550,1996574,56
570118,DepthScenes,duration_discrimination,discrim_jsons/d0_rotated.json,http://54.197.185.130/DepthDuration/depth_discrimination_MTurk/DepthDiscrim_HTML.html#3,3,1366,768,1366,768,6-12-2021,11-5-27,62,depth_discrimination_stimuli/000788_2014-06-08_22-34-36_260595134347_rgbf000131-resize_1/000788_2014-06-08_22-34-36_260595134347_rgbf000131-resize_1-target.png,depth_discrimination_stimuli/000521_2014-06-08_13-34-35_260595134347_rgbf000191-resize_2/000521_2014-06-08_13-34-35_260595134347_rgbf000191-resize_2-target.png,250,3.359,3.0385,1,1207,511,247,500,256,492,feet,,,,,1566550,1996574,56
570118,DepthScenes,duration_discrimination,discrim_jsons/d0_rotated.json,http://54.197.185.130/DepthDuration/depth_discrimination_MTurk/DepthDiscrim_HTML.html#3,3,1366,768,1366,768,6-12-2021,11-5-27,63,depth_discrimination_stimuli/003092_2014-06-24_21-01-49_094959634447_rgbf000049-resize_2/003092_2014-06-24_21-01-49_094959634447_rgbf000049-resize_2-target.png,depth_discrimination_stimuli/000753_2014-06-08_21-57-44_260595134347_rgbf000123-resize_3/000753_2014-06-08_21-57-44_260595134347_rgbf000123-resize_3-target.png,1000,1.666,1.916,1,2194,513,1000,508,993,502,feet,,,,,1566550,1996574,56
570118,DepthScenes,duration_discrimination,discrim_jsons/d0_rotated.json,http://54.197.185.130/DepthDuration/depth_discrimination_MTurk/DepthDiscrim_HTML.html#3,3,1366,768,1366,768,6-12-2021,11-5-27,64,depth_discrimination_stimuli/003338_2014-05-20_11-01-23_094959634447_rgbf000051-resize_6/003338_2014-05-20_11-01-23_094959634447_rgbf000051-resize_6-target.png,depth_discrimination_stimuli/000878_2014-06-08_22-52-45_260595134347_rgbf000045-resize_2/000878_2014-06-08_22-52-45_260595134347_rgbf000045-resize_2-target.png,1000,1.693,2.092,0,3502,512,1003,500,999,500,feet,,,,,1566550,1996574,56
570118,DepthScenes,duration_discrimination,discrim_jsons/d0_rotated.json,http://54.197.185.130/DepthDuration/depth_discrimination_MTurk/DepthDiscrim_HTML.html#3,3,1366,768,1366,768,6-12-2021,11-5-27,65,depth_discrimination_stimuli/000636_2014-06-08_16-39-02_260595134347_rgbf000108-resize_4/000636_2014-06-08_16-39-02_260595134347_rgbf000108-resize_4-target.png,depth_discrimination_stimuli/002568_2014-06-24_13-59-21_094959634447_rgbf000062-resize_4/002568_2014-06-24_13-59-21_094959634447_rgbf000062-resize_4-target.png,250,2.682,3.015,1,4212,509,253,490,256,500,feet,,,,,1566550,1996574,56
570118,DepthScenes,duration_discrimination,discrim_jsons/d0_rotated.json,http://54.197.185.130/DepthDuration/depth_discrimination_MTurk/DepthDiscrim_HTML.html#3,3,1366,768,1366,768,6-12-2021,11-5-27,66,depth_discrimination_stimuli/003423_2014-05-21_10-23-26_094959634447_rgbf002665-resize_2/003423_2014-05-21_10-23-26_094959634447_rgbf002665-resize_2-target.png,depth_discrimination_stimuli/001235_2014-06-17_16-37-36_260595134347_rgbf000084-resize_4/001235_2014-06-17_16-37-36_260595134347_rgbf000084-resize_4-target.png,1000,3.2575,3.6605,0,2085,516,990,500,997,515,feet,,,,,1566550,1996574,56
570118,DepthScenes,duration_discrimination,discrim_jsons/d0_rotated.json,http://54.197.185.130/DepthDuration/depth_discrimination_MTurk/DepthDiscrim_HTML.html#3,3,1366,768,1366,768,6-12-2021,11-5-27,67,depth_discrimination_stimuli/000927_2014-06-09_16-32-30_260595134347_rgbf000123-resize_3/000927_2014-06-09_16-32-30_260595134347_rgbf000123-resize_3-target.png,depth_discrimination_stimuli/001810_2014-06-26_20-51-35_260595134347_rgbf000040-resize_3/001810_2014-06-26_20-51-35_260595134347_rgbf000040-resize_3-target.png,250,2.6785,2.2525,1,1197,534,223,495,257,506,feet,,,,,1566550,1996574,56
570118,DepthScenes,duration_discrimination,discrim_jsons/d0_rotated.json,http://54.197.185.130/DepthDuration/depth_discrimination_MTurk/DepthDiscrim_HTML.html#3,3,1366,768,1366,768,6-12-2021,11-5-27,68,depth_discrimination_stimuli/000758_2014-06-08_22-05-08_260595134347_rgbf000085-resize_0/000758_2014-06-08_22-05-08_260595134347_rgbf000085-resize_0-target.png,depth_discrimination_stimuli/003070_2014-06-15_14-58-27_094959634447_rgbf000150-resize_3/003070_2014-06-15_14-58-27_094959634447_rgbf000150-resize_3-target.png,1000,3.381,2.9415,1,2105,501,1018,493,990,504,feet,,,,,1566550,1996574,56
570118,DepthScenes,duration_discrimination,discrim_jsons/d0_rotated.json,http://54.197.185.130/DepthDuration/depth_discrimination_MTurk/DepthDiscrim_HTML.html#3,3,1366,768,1366,768,6-12-2021,11-5-27,69,depth_discrimination_stimuli/002139_2014-06-25_21-19-37_260595134347_rgbf000124-resize_2/002139_2014-06-25_21-19-37_260595134347_rgbf000124-resize_2-target.png,depth_discrimination_stimuli/000549_2014-06-08_22-10-24_260595134347_rgbf000247-resize_3/000549_2014-06-08_22-10-24_260595134347_rgbf000247-resize_3-target.png,250,2.107,1.841,1,1311,512,251,493,247,505,feet,,,,,1566550,1996574,56
570118,DepthScenes,duration_discrimination,discrim_jsons/d0_rotated.json,http://54.197.185.130/DepthDuration/depth_discrimination_MTurk/DepthDiscrim_HTML.html#3,3,1366,768,1366,768,6-12-2021,11-5-27,70,depth_discrimination_stimuli/001029_2014-06-08_13-17-57_260595134347_rgbf000065-resize_1/001029_2014-06-08_13-17-57_260595134347_rgbf000065-resize_1-target.png,depth_discrimination_stimuli/001199_2014-06-17_16-03-48_260595134347_rgbf000077-resize_0/001199_2014-06-17_16-03-48_260595134347_rgbf000077-resize_0-target.png,250,3.0835,3.4375,0,2322,511,255,487,248,513,feet,,,,,1566550,1996574,56
570118,DepthScenes,duration_discrimination,discrim_jsons/d0_rotated.json,http://54.197.185.130/DepthDuration/depth_discrimination_MTurk/DepthDiscrim_HTML.html#3,3,1366,768,1366,768,6-12-2021,11-5-27,71,depth_discrimination_stimuli/001133_2014-06-17_14-49-16_260595134347_rgbf000100-resize_0/001133_2014-06-17_14-49-16_260595134347_rgbf000100-resize_0-target.png,depth_discrimination_stimuli/001617_2014-06-20_11-35-32_260595134347_rgbf000066-resize_1/001617_2014-06-20_11-35-32_260595134347_rgbf000066-resize_1-target.png,1000,4.2115,3.791,1,1930,514,990,509,997,501,feet,,,,,1566550,1996574,56
570118,DepthScenes,duration_discrimination,discrim_jsons/d0_rotated.json,http://54.197.185.130/DepthDuration/depth_discrimination_MTurk/DepthDiscrim_HTML.html#3,3,1366,768,1366,768,6-12-2021,11-5-27,72,depth_discrimination_stimuli/000009_2014-05-26_14-32-05_260595134347_rgbf000034-resize_3/000009_2014-05-26_14-32-05_260595134347_rgbf000034-resize_3-target.png,depth_discrimination_stimuli/002660_2014-06-13_15-44-18_094959634447_rgbf001878-resize_2/002660_2014-06-13_15-44-18_094959634447_rgbf001878-resize_2-target.png,1000,3.8715,3.576,1,1871,512,1004,491,1005,490,feet,,,,,1566550,1996574,56
570118,DepthScenes,duration_discrimination,discrim_jsons/d0_rotated.json,http://54.197.185.130/DepthDuration/depth_discrimination_MTurk/DepthDiscrim_HTML.html#3,3,1366,768,1366,768,6-12-2021,11-5-27,73,depth_discrimination_stimuli/001150_2014-06-17_15-27-34_260595134347_rgbf000108-resize_2/001150_2014-06-17_15-27-34_260595134347_rgbf000108-resize_2-target.png,depth_discrimination_stimuli/000677_2014-06-08_23-10-32_260595134347_rgbf000158-resize_6/000677_2014-06-08_23-10-32_260595134347_rgbf000158-resize_6-target.png,250,4.0325,3.556,1,1772,506,254,499,257,495,feet,,,,,1566550,1996574,56
570118,DepthScenes,duration_discrimination,discrim_jsons/d0_rotated.json,http://54.197.185.130/DepthDuration/depth_discrimination_MTurk/DepthDiscrim_HTML.html#3,3,1366,768,1366,768,6-12-2021,11-5-27,74,depth_discrimination_stimuli/002663_2014-06-13_15-50-26_094959634447_rgbf000075-resize_1/002663_2014-06-13_15-50-26_094959634447_rgbf000075-resize_1-target.png,depth_discrimination_stimuli/000414_2014-06-04_19-49-13_260595134347_rgbf000044-resize_0/000414_2014-06-04_19-49-13_260595134347_rgbf000044-resize_0-target.png,1000,4.7495,4.329,0,2114,513,990,507,1004,498,feet,,,,,1566550,1996574,56
570118,DepthScenes,duration_discrimination,discrim_jsons/d0_rotated.json,http://54.197.185.130/DepthDuration/depth_discrimination_MTurk/DepthDiscrim_HTML.html#3,3,1366,768,1366,768,6-12-2021,11-5-27,75,depth_discrimination_stimuli/002964_2014-06-08_17-46-11_094959634447_rgbf000091-resize_4/002964_2014-06-08_17-46-11_094959634447_rgbf000091-resize_4-target.png,depth_discrimination_stimuli/000483_2014-06-09_20-41-45_260595134347_rgbf000116-resize_4/000483_2014-06-09_20-41-45_260595134347_rgbf000116-resize_4-target.png,250,1.691,1.337,1,1278,503,250,514,238,504,feet,,,,,1566550,1996574,56
570118,DepthScenes,duration_discrimination,discrim_jsons/d0_rotated.json,http://54.197.185.130/DepthDuration/depth_discrimination_MTurk/DepthDiscrim_HTML.html#3,3,1366,768,1366,768,6-12-2021,11-5-27,76,depth_discrimination_stimuli/002057_2014-06-24_21-00-13_260595134347_rgbf000120-resize_1/002057_2014-06-24_21-00-13_260595134347_rgbf000120-resize_1-target.png,depth_discrimination_stimuli/000505_2014-06-08_23-03-23_260595134347_rgbf000091-resize_0/000505_2014-06-08_23-03-23_260595134347_rgbf000091-resize_0-target.png,1000,2.967,3.3105,1,1819,513,1000,499,1000,505,feet,,,,,1566550,1996574,56
570118,DepthScenes,duration_discrimination,discrim_jsons/d0_rotated.json,http://54.197.185.130/DepthDuration/depth_discrimination_MTurk/DepthDiscrim_HTML.html#3,3,1366,768,1366,768,6-12-2021,11-5-27,77,depth_discrimination_stimuli/001188_2014-06-17_15-54-10_260595134347_rgbf000090-resize_2/001188_2014-06-17_15-54-10_260595134347_rgbf000090-resize_2-target.png,depth_discrimination_stimuli/002750_2014-06-22_19-08-03_094959634447_rgbf000094-resize_4/002750_2014-06-22_19-08-03_094959634447_rgbf000094-resize_4-target.png,250,2.744,2.354,0,1355,512,240,514,241,508,feet,,,,,1566550,1996574,56
570118,DepthScenes,duration_discrimination,discrim_jsons/d0_rotated.json,http://54.197.185.130/DepthDuration/depth_discrimination_MTurk/DepthDiscrim_HTML.html#3,3,1366,768,1366,768,6-12-2021,11-5-27,78,depth_discrimination_stimuli/002072_2014-06-24_21-48-06_260595134347_rgbf000115-resize_0/002072_2014-06-24_21-48-06_260595134347_rgbf000115-resize_0-target.png,depth_discrimination_stimuli/001012_2014-06-08_23-19-38_260595134347_rgbf000057-resize_0/001012_2014-06-08_23-19-38_260595134347_rgbf000057-resize_0-target.png,250,4.702,1.38325,1,1142,510,254,501,244,503,feet,,,,,1566550,1996574,56
570118,DepthScenes,duration_discrimination,discrim_jsons/d0_rotated.json,http://54.197.185.130/DepthDuration/depth_discrimination_MTurk/DepthDiscrim_HTML.html#3,3,1366,768,1366,768,6-12-2021,11-5-27,79,depth_discrimination_stimuli/000555_2014-06-09_22-42-23_260595134347_rgbf000037-resize_4/000555_2014-06-09_22-42-23_260595134347_rgbf000037-resize_4-target.png,depth_discrimination_stimuli/001110_2014-06-15_17-25-28_260595134347_rgbf000150-resize_1/001110_2014-06-15_17-25-28_260595134347_rgbf000150-resize_1-target.png,250,1.9765,1.7115,0,1144,501,263,499,244,496,feet,,,,,1566550,1996574,56
570118,DepthScenes,duration_discrimination,discrim_jsons/d0_rotated.json,http://54.197.185.130/DepthDuration/depth_discrimination_MTurk/DepthDiscrim_HTML.html#3,3,1366,768,1366,768,6-12-2021,11-5-27,80,depth_discrimination_stimuli/002763_2014-06-22_19-13-10_094959634447_rgbf000075-resize_4/002763_2014-06-22_19-13-10_094959634447_rgbf000075-resize_4-target.png,depth_discrimination_stimuli/001244_2014-06-17_16-47-45_260595134347_rgbf000030-resize_4/001244_2014-06-17_16-47-45_260595134347_rgbf000030-resize_4-target.png,1000,1.68375,2.0425,1,1936,506,1008,499,994,507,feet,,,,,1566550,1996574,56
570118,DepthScenes,duration_discrimination,discrim_jsons/d0_rotated.json,http://54.197.185.130/DepthDuration/depth_discrimination_MTurk/DepthDiscrim_HTML.html#3,3,1366,768,1366,768,6-12-2021,11-5-27,81,depth_discrimination_stimuli/003492_2014-05-21_15-50-55_094959634447_rgbf000828-resize_1/003492_2014-05-21_15-50-55_094959634447_rgbf000828-resize_1-target.png,depth_discrimination_stimuli/001158_2014-06-17_15-32-16_260595134347_rgbf000138-resize_2/001158_2014-06-17_15-32-16_260595134347_rgbf000138-resize_2-target.png,250,4.06875,4.5315,0,1180,511,247,509,244,504,feet,,,,,1566550,1996574,56
570118,DepthScenes,duration_discrimination,discrim_jsons/d0_rotated.json,http://54.197.185.130/DepthDuration/depth_discrimination_MTurk/DepthDiscrim_HTML.html#3,3,1366,768,1366,768,6-12-2021,11-5-27,82,depth_discrimination_stimuli/001584_2014-06-20_11-07-43_260595134347_rgbf000002-resize_1/001584_2014-06-20_11-07-43_260595134347_rgbf000002-resize_1-target.png,depth_discrimination_stimuli/002570_2014-06-24_13-59-54_094959634447_rgbf000059-resize_0/002570_2014-06-24_13-59-54_094959634447_rgbf000059-resize_0-target.png,250,3.53,4.037,0,1502,509,283,473,247,493,feet,,,,,1566550,1996574,56
570118,DepthScenes,duration_discrimination,discrim_jsons/d0_rotated.json,http://54.197.185.130/DepthDuration/depth_discrimination_MTurk/DepthDiscrim_HTML.html#3,3,1366,768,1366,768,6-12-2021,11-5-27,83,depth_discrimination_stimuli/000742_2014-06-08_18-48-09_260595134347_rgbf000164-resize_4/000742_2014-06-08_18-48-09_260595134347_rgbf000164-resize_4-target.png,depth_discrimination_stimuli/000773_2014-06-08_22-24-54_260595134347_rgbf000093-resize_1/000773_2014-06-08_22-24-54_260595134347_rgbf000093-resize_1-target.png,250,4.632,4.973,0,2023,506,247,512,249,528,feet,,,,,1566550,1996574,56
570118,DepthScenes,duration_discrimination,discrim_jsons/d0_rotated.json,http://54.197.185.130/DepthDuration/depth_discrimination_MTurk/DepthDiscrim_HTML.html#3,3,1366,768,1366,768,6-12-2021,11-5-27,84,depth_discrimination_stimuli/002987_2014-06-08_18-48-20_094959634447_rgbf000022-resize_0/002987_2014-06-08_18-48-20_094959634447_rgbf000022-resize_0-target.png,depth_discrimination_stimuli/000502_2014-06-08_23-02-32_260595134347_rgbf000063-resize_4/000502_2014-06-08_23-02-32_260595134347_rgbf000063-resize_4-target.png,1000,2.6775,2.431,1,2021,504,1019,491,991,500,feet,,,,,1566550,1996574,56
570118,DepthScenes,duration_discrimination,discrim_jsons/d0_rotated.json,http://54.197.185.130/DepthDuration/depth_discrimination_MTurk/DepthDiscrim_HTML.html#3,3,1366,768,1366,768,6-12-2021,11-5-27,85,depth_discrimination_stimuli/002905_2014-06-03_18-04-43_094959634447_rgbf000151-resize_2/002905_2014-06-03_18-04-43_094959634447_rgbf000151-resize_2-target.png,depth_discrimination_stimuli/000740_2014-06-08_18-46-23_260595134347_rgbf000049-resize_6/000740_2014-06-08_18-46-23_260595134347_rgbf000049-resize_6-target.png,1000,2.0295,1.687,0,2042,511,997,497,1012,487,feet,,,,,1566550,1996574,56
570118,DepthScenes,duration_discrimination,discrim_jsons/d0_rotated.json,http://54.197.185.130/DepthDuration/depth_discrimination_MTurk/DepthDiscrim_HTML.html#3,3,1366,768,1366,768,6-12-2021,11-5-27,86,depth_discrimination_stimuli/002675_2014-06-13_16-08-49_094959634447_rgbf000151-resize_2/002675_2014-06-13_16-08-49_094959634447_rgbf000151-resize_2-target.png,depth_discrimination_stimuli/001222_2014-06-17_16-24-06_260595134347_rgbf000073-resize_0/001222_2014-06-17_16-24-06_260595134347_rgbf000073-resize_0-target.png,1000,4.5065,1.4385,1,1899,510,995,498,1011,490,feet,,,,,1566550,1996574,56
570118,DepthScenes,duration_discrimination,discrim_jsons/d0_rotated.json,http://54.197.185.130/DepthDuration/depth_discrimination_MTurk/DepthDiscrim_HTML.html#3,3,1366,768,1366,768,6-12-2021,11-5-27,87,depth_discrimination_stimuli/000109_2014-05-14_23-41-52_260595134347_rgbf000035-resize_9/000109_2014-05-14_23-41-52_260595134347_rgbf000035-resize_9-target.png,depth_discrimination_stimuli/000470_2014-06-09_19-42-40_260595134347_rgbf000094-resize_1/000470_2014-06-09_19-42-40_260595134347_rgbf000094-resize_1-target.png,1000,1.3545,1.831,0,2402,506,1003,499,1001,507,feet,,,,,1566550,1996574,56
570118,DepthScenes,duration_discrimination,discrim_jsons/d0_rotated.json,http://54.197.185.130/DepthDuration/depth_discrimination_MTurk/DepthDiscrim_HTML.html#3,3,1366,768,1366,768,6-12-2021,11-5-27,88,depth_discrimination_stimuli/003079_2014-06-15_15-18-20_094959634447_rgbf000152-resize_8/003079_2014-06-15_15-18-20_094959634447_rgbf000152-resize_8-target.png,depth_discrimination_stimuli/001056_2014-06-08_18-46-44_260595134347_rgbf000068-resize_0/001056_2014-06-08_18-46-44_260595134347_rgbf000068-resize_0-target.png,250,2.8775,2.6625,0,1498,503,254,506,250,504,feet,,,,,1566550,1996574,56
570118,DepthScenes,duration_discrimination,discrim_jsons/d0_rotated.json,http://54.197.185.130/DepthDuration/depth_discrimination_MTurk/DepthDiscrim_HTML.html#3,3,1366,768,1366,768,6-12-2021,11-5-27,89,depth_discrimination_stimuli/002153_2014-06-25_21-27-18_260595134347_rgbf000038-resize_5/002153_2014-06-25_21-27-18_260595134347_rgbf000038-resize_5-target.png,depth_discrimination_stimuli/002725_2014-06-22_11-47-51_094959634447_rgbf000070-resize_1/002725_2014-06-22_11-47-51_094959634447_rgbf000070-resize_1-target.png,1000,2.505,2.195,0,2664,507,1007,493,1010,494,feet,,,,,1566550,1996574,56
570118,DepthScenes,duration_discrimination,discrim_jsons/d0_rotated.json,http://54.197.185.130/DepthDuration/depth_discrimination_MTurk/DepthDiscrim_HTML.html#3,3,1366,768,1366,768,6-12-2021,11-5-27,90,depth_discrimination_stimuli/001828_2014-06-26_21-40-03_260595134347_rgbf000024-resize_0/001828_2014-06-26_21-40-03_260595134347_rgbf000024-resize_0-target.png,depth_discrimination_stimuli/002414_2014-06-28_20-24-58_260595134347_rgbf000067-resize_4/002414_2014-06-28_20-24-58_260595134347_rgbf000067-resize_4-target.png,1000,4.826,4.363,0,2110,507,999,504,993,512,feet,,,,,1566550,1996574,56
570118,DepthScenes,duration_discrimination,discrim_jsons/d0_rotated.json,http://54.197.185.130/DepthDuration/depth_discrimination_MTurk/DepthDiscrim_HTML.html#3,3,1366,768,1366,768,6-12-2021,11-5-27,91,depth_discrimination_stimuli/003490_2014-05-21_15-50-11_094959634447_rgbf000101-resize_3/003490_2014-05-21_15-50-11_094959634447_rgbf000101-resize_3-target.png,depth_discrimination_stimuli/001392_2014-06-19_16-07-59_260595134347_rgbf000046-resize_1/001392_2014-06-19_16-07-59_260595134347_rgbf000046-resize_1-target.png,1000,3.6445,4.135,1,1991,515,997,501,1002,497,feet,,,,,1566550,1996574,56
570118,DepthScenes,duration_discrimination,discrim_jsons/d0_rotated.json,http://54.197.185.130/DepthDuration/depth_discrimination_MTurk/DepthDiscrim_HTML.html#3,3,1366,768,1366,768,6-12-2021,11-5-27,92,depth_discrimination_stimuli/002678_2014-06-13_16-15-32_094959634447_rgbf000151-resize_6/002678_2014-06-13_16-15-32_094959634447_rgbf000151-resize_6-target.png,depth_discrimination_stimuli/001011_2014-06-08_23-18-54_260595134347_rgbf000044-resize_4/001011_2014-06-08_23-18-54_260595134347_rgbf000044-resize_4-target.png,1000,2.183,2.473,1,1860,505,1001,504,998,503,feet,,,,,1566550,1996574,56
570118,DepthScenes,duration_discrimination,discrim_jsons/d0_rotated.json,http://54.197.185.130/DepthDuration/depth_discrimination_MTurk/DepthDiscrim_HTML.html#3,3,1366,768,1366,768,6-12-2021,11-5-27,93,depth_discrimination_stimuli/002758_2014-06-22_19-11-20_094959634447_rgbf000128-resize_1/002758_2014-06-22_19-11-20_094959634447_rgbf000128-resize_1-target.png,depth_discrimination_stimuli/000854_2014-06-09_19-43-13_260595134347_rgbf000066-resize_0/000854_2014-06-09_19-43-13_260595134347_rgbf000066-resize_0-target.png,1000,2.555,3.068,1,2025,509,996,510,994,496,feet,,,,,1566550,1996574,56
570118,DepthScenes,duration_discrimination,discrim_jsons/d0_rotated.json,http://54.197.185.130/DepthDuration/depth_discrimination_MTurk/DepthDiscrim_HTML.html#3,3,1366,768,1366,768,6-12-2021,11-5-27,94,depth_discrimination_stimuli/000810_2014-06-08_17-20-01_260595134347_rgbf000105-resize_0/000810_2014-06-08_17-20-01_260595134347_rgbf000105-resize_0-target.png,depth_discrimination_stimuli/000103_2014-05-14_22-01-17_260595134347_rgbf000152-resize_5/000103_2014-05-14_22-01-17_260595134347_rgbf000152-resize_5-target.png,1000,1.4865,1.993,0,1839,503,1004,510,985,513,feet,,,,,1566550,1996574,56
570118,DepthScenes,duration_discrimination,discrim_jsons/d0_rotated.json,http://54.197.185.130/DepthDuration/depth_discrimination_MTurk/DepthDiscrim_HTML.html#3,3,1366,768,1366,768,6-12-2021,11-5-27,95,depth_discrimination_stimuli/002790_2014-06-22_19-36-35_094959634447_rgbf000074-resize_4/002790_2014-06-22_19-36-35_094959634447_rgbf000074-resize_4-target.png,depth_discrimination_stimuli/001032_2014-06-08_13-23-17_260595134347_rgbf000021-resize_3/001032_2014-06-08_13-23-17_260595134347_rgbf000021-resize_3-target.png,1000,3.512,3.2725,1,1885,512,1001,496,997,511,feet,,,,,1566550,1996574,56
570118,DepthScenes,duration_discrimination,discrim_jsons/d0_rotated.json,http://54.197.185.130/DepthDuration/depth_discrimination_MTurk/DepthDiscrim_HTML.html#3,3,1366,768,1366,768,6-12-2021,11-5-27,96,depth_discrimination_stimuli/002209_2014-06-28_18-36-10_260595134347_rgbf000051-resize_1/002209_2014-06-28_18-36-10_260595134347_rgbf000051-resize_1-target.png,depth_discrimination_stimuli/001055_2014-06-08_18-45-35_260595134347_rgbf000111-resize_4/001055_2014-06-08_18-45-35_260595134347_rgbf000111-resize_4-target.png,250,2.057,2.429,0,1470,509,257,532,204,507,feet,,,,,1566550,1996574,56
570118,DepthScenes,duration_discrimination,discrim_jsons/d0_rotated.json,http://54.197.185.130/DepthDuration/depth_discrimination_MTurk/DepthDiscrim_HTML.html#3,3,1366,768,1366,768,6-12-2021,11-5-27,96,,,,,,,1470,509,257,532,204,507,feet,,,,,1566550,1996574,56
570118,DepthScenes,duration_discrimination,discrim_jsons/d0_rotated.json,http://54.197.185.130/DepthDuration/depth_discrimination_MTurk/DepthDiscrim_HTML.html#3,3,1499,853,1366,768,6-12-2021,11-5-27,98,,,,,,,1470,509,257,532,204,507,feet,4,3,depth_discrimination_stimuli/002660_2014-06-13_15-44-18_094959634447_rgbf001878-resize_2/002660_2014-06-13_15-44-18_094959634447_rgbf001878-resize-original.jpg,9479,1566550,1996574,56
570118,DepthScenes,duration_discrimination,discrim_jsons/d0_rotated.json,http://54.197.185.130/DepthDuration/depth_discrimination_MTurk/DepthDiscrim_HTML.html#3,3,1499,853,1366,768,6-12-2021,11-5-27,99,,,,,,,1470,509,257,532,204,507,feet,5,4,depth_discrimination_stimuli/003490_2014-05-21_15-50-11_094959634447_rgbf000101-resize_3/003490_2014-05-21_15-50-11_094959634447_rgbf000101-resize-original.jpg,12857,1566550,1996574,56
570118,DepthScenes,duration_discrimination,discrim_jsons/d0_rotated.json,http://54.197.185.130/DepthDuration/depth_discrimination_MTurk/DepthDiscrim_HTML.html#3,3,1499,853,1366,768,6-12-2021,11-5-27,100,,,,,,,1470,509,257,532,204,507,feet,4,2,depth_discrimination_stimuli/003288_2014-05-14_21-50-30_094959634447_rgbf000028-resize_3/003288_2014-05-14_21-50-30_094959634447_rgbf000028-resize-original.jpg,7557,1566550,1996574,56
570118,DepthScenes,duration_discrimination,discrim_jsons/d0_rotated.json,http://54.197.185.130/DepthDuration/depth_discrimination_MTurk/DepthDiscrim_HTML.html#3,3,1499,853,1366,768,6-12-2021,11-5-27,101,,,,,,,1470,509,257,532,204,507,feet,5,2,depth_discrimination_stimuli/002964_2014-06-08_17-46-11_094959634447_rgbf000091-resize_4/002964_2014-06-08_17-46-11_094959634447_rgbf000091-resize-original.jpg,6607,1566550,1996574,56
570118,DepthScenes,duration_discrimination,discrim_jsons/d0_rotated.json,http://54.197.185.130/DepthDuration/depth_discrimination_MTurk/DepthDiscrim_HTML.html#3,3,1499,853,1366,768,6-12-2021,11-5-27,102,,,,,,,1470,509,257,532,204,507,feet,4,3,depth_discrimination_stimuli/001584_2014-06-20_11-07-43_260595134347_rgbf000002-resize_1/001584_2014-06-20_11-07-43_260595134347_rgbf000002-resize-original.jpg,5892,1566550,1996574,56
570118,DepthScenes,duration_discrimination,discrim_jsons/d0_rotated.json,http://54.197.185.130/DepthDuration/depth_discrimination_MTurk/DepthDiscrim_HTML.html#3,3,1499,853,1366,768,6-12-2021,11-5-27,103,,,,,,,1470,509,257,532,204,507,feet,5,4,depth_discrimination_stimuli/001447_2014-06-19_17-00-32_260595134347_rgbf000082-resize_5/001447_2014-06-19_17-00-32_260595134347_rgbf000082-resize-original.jpg,6104,1566550,1996574,56
570118,DepthScenes,duration_discrimination,discrim_jsons/d0_rotated.json,http://54.197.185.130/DepthDuration/depth_discrimination_MTurk/DepthDiscrim_HTML.html#3,3,1499,853,1366,768,6-12-2021,11-5-27,104,,,,,,,1470,509,257,532,204,507,feet,4,3,depth_discrimination_stimuli/002460_2014-06-28_20-35-43_260595134347_rgbf000028-resize_4/002460_2014-06-28_20-35-43_260595134347_rgbf000028-resize-original.jpg,7839,1566550,1996574,56
570118,DepthScenes,duration_discrimination,discrim_jsons/d0_rotated.json,http://54.197.185.130/DepthDuration/depth_discrimination_MTurk/DepthDiscrim_HTML.html#3,3,1499,853,1366,768,6-12-2021,11-5-27,105,,,,,,,1470,509,257,532,204,507,feet,4,3,depth_discrimination_stimuli/001029_2014-06-08_13-17-57_260595134347_rgbf000065-resize_1/001029_2014-06-08_13-17-57_260595134347_rgbf000065-resize-original.jpg,10560,1566550,1996574,56
570118,DepthScenes,duration_discrimination,discrim_jsons/d0_rotated.json,http://54.197.185.130/DepthDuration/depth_discrimination_MTurk/DepthDiscrim_HTML.html#3,3,1499,853,1366,768,6-12-2021,11-5-27,106,,,,,,,1470,509,257,532,204,507,feet,4,3,depth_discrimination_stimuli/003423_2014-05-21_10-23-26_094959634447_rgbf002665-resize_2/003423_2014-05-21_10-23-26_094959634447_rgbf002665-resize-original.jpg,6668,1566550,1996574,56
570118,DepthScenes,duration_discrimination,discrim_jsons/d0_rotated.json,http://54.197.185.130/DepthDuration/depth_discrimination_MTurk/DepthDiscrim_HTML.html#3,3,1499,853,1366,768,6-12-2021,11-5-27,107,,,,,,,1470,509,257,532,204,507,feet,5,3,depth_discrimination_stimuli/000457_2014-06-08_16-52-43_260595134347_rgbf000199-resize_1/000457_2014-06-08_16-52-43_260595134347_rgbf000199-resize-original.jpg,5598,1566550,1996574,56
570118,DepthScenes,duration_discrimination,discrim_jsons/d0_rotated.json,http://54.197.185.130/DepthDuration/depth_discrimination_MTurk/DepthDiscrim_HTML.html#3,3,1499,853,1366,768,6-12-2021,11-5-27,108,,,,,,,1470,509,257,532,204,507,feet,2,4,depth_discrimination_stimuli/000691_2014-06-08_13-08-50_260595134347_rgbf000132-resize_3/000691_2014-06-08_13-08-50_260595134347_rgbf000132-resize-original.jpg,24684,1566550,1996574,56
570118,DepthScenes,duration_discrimination,discrim_jsons/d0_rotated.json,http://54.197.185.130/DepthDuration/depth_discrimination_MTurk/DepthDiscrim_HTML.html#3,3,1499,853,1366,768,6-12-2021,11-5-27,109,,,,,,,1470,509,257,532,204,507,feet,4,3,depth_discrimination_stimuli/001199_2014-06-17_16-03-48_260595134347_rgbf000077-resize_0/001199_2014-06-17_16-03-48_260595134347_rgbf000077-resize-original.jpg,6030,1566550,1996574,56
570118,DepthScenes,duration_discrimination,discrim_jsons/d0_rotated.json,http://54.197.185.130/DepthDuration/depth_discrimination_MTurk/DepthDiscrim_HTML.html#3,3,1499,853,1366,768,6-12-2021,11-5-27,110,,,,,,,1470,509,257,532,204,507,feet,4,5,depth_discrimination_stimuli/002905_2014-06-03_18-04-43_094959634447_rgbf000151-resize_2/002905_2014-06-03_18-04-43_094959634447_rgbf000151-resize-original.jpg,5039,1566550,1996574,56
570118,DepthScenes,duration_discrimination,discrim_jsons/d0_rotated.json,http://54.197.185.130/DepthDuration/depth_discrimination_MTurk/DepthDiscrim_HTML.html#3,3,1499,853,1366,768,6-12-2021,11-5-27,111,,,,,,,1470,509,257,532,204,507,feet,3,5,depth_discrimination_stimuli/003492_2014-05-21_15-50-55_094959634447_rgbf000828-resize_1/003492_2014-05-21_15-50-55_094959634447_rgbf000828-resize-original.jpg,5173,1566550,1996574,56
570118,DepthScenes,duration_discrimination,discrim_jsons/d0_rotated.json,http://54.197.185.130/DepthDuration/depth_discrimination_MTurk/DepthDiscrim_HTML.html#3,3,1708,960,1366,768,6-12-2021,11-5-27,112,,,,,,,1470,509,257,532,204,507,feet,4,2,depth_discrimination_stimuli/002995_2014-06-15_12-31-26_094959634447_rgbf000150-resize_1/002995_2014-06-15_12-31-26_094959634447_rgbf000150-resize-original.jpg,6998,1566550,1996574,56
570118,DepthScenes,duration_discrimination,discrim_jsons/d0_rotated.json,http://54.197.185.130/DepthDuration/depth_discrimination_MTurk/DepthDiscrim_HTML.html#3,3,1708,960,1366,768,6-12-2021,11-5-27,113,,,,,,,1470,509,257,532,204,507,feet,5,4,depth_discrimination_stimuli/001617_2014-06-20_11-35-32_260595134347_rgbf000066-resize_1/001617_2014-06-20_11-35-32_260595134347_rgbf000066-resize-original.jpg,5144,1566550,1996574,56
570118,DepthScenes,duration_discrimination,discrim_jsons/d0_rotated.json,http://54.197.185.130/DepthDuration/depth_discrimination_MTurk/DepthDiscrim_HTML.html#3,3,1708,960,1366,768,6-12-2021,11-5-27,114,,,,,,,1470,509,257,532,204,507,feet,4,2,depth_discrimination_stimuli/002790_2014-06-22_19-36-35_094959634447_rgbf000074-resize_4/002790_2014-06-22_19-36-35_094959634447_rgbf000074-resize-original.jpg,3569,1566550,1996574,56
570118,DepthScenes,duration_discrimination,discrim_jsons/d0_rotated.json,http://54.197.185.130/DepthDuration/depth_discrimination_MTurk/DepthDiscrim_HTML.html#3,3,1708,960,1366,768,6-12-2021,11-5-27,115,,,,,,,1470,509,257,532,204,507,feet,4,2,depth_discrimination_stimuli/002725_2014-06-22_11-47-51_094959634447_rgbf000070-resize_1/002725_2014-06-22_11-47-51_094959634447_rgbf000070-resize-original.jpg,4655,1566550,1996574,56
570118,DepthScenes,duration_discrimination,discrim_jsons/d0_rotated.json,http://54.197.185.130/DepthDuration/depth_discrimination_MTurk/DepthDiscrim_HTML.html#3,3,1708,960,1366,768,6-12-2021,11-5-27,116,,,,,,,1470,509,257,532,204,507,feet,3,1,depth_discrimination_stimuli/002323_2014-06-28_20-01-54_260595134347_rgbf000051-resize_4/002323_2014-06-28_20-01-54_260595134347_rgbf000051-resize-original.jpg,6431,1566550,1996574,56
570118,DepthScenes,duration_discrimination,discrim_jsons/d0_rotated.json,http://54.197.185.130/DepthDuration/depth_discrimination_MTurk/DepthDiscrim_HTML.html#3,3,1708,960,1366,768,6-12-2021,11-5-27,117,,,,,,,1470,509,257,532,204,507,feet,3,4,depth_discrimination_stimuli/001724_2014-06-26_19-28-50_260595134347_rgbf000037-resize_7/001724_2014-06-26_19-28-50_260595134347_rgbf000037-resize-original.jpg,5998,1566550,1996574,56
570118,DepthScenes,duration_discrimination,discrim_jsons/d0_rotated.json,http://54.197.185.130/DepthDuration/depth_discrimination_MTurk/DepthDiscrim_HTML.html#3,3,1708,960,1366,768,6-12-2021,11-5-27,118,,,,,,,1470,509,257,532,204,507,feet,3,5,depth_discrimination_stimuli/002445_2014-06-28_20-32-16_260595134347_rgbf000029-resize_4/002445_2014-06-28_20-32-16_260595134347_rgbf000029-resize-original.jpg,4391,1566550,1996574,56
570118,DepthScenes,duration_discrimination,discrim_jsons/d0_rotated.json,http://54.197.185.130/DepthDuration/depth_discrimination_MTurk/DepthDiscrim_HTML.html#3,3,1708,960,1366,768,6-12-2021,11-5-27,119,,,,,,,1470,509,257,532,204,507,feet,5,2,depth_discrimination_stimuli/002136_2014-06-25_21-18-03_260595134347_rgbf000109-resize_3/002136_2014-06-25_21-18-03_260595134347_rgbf000109-resize-original.jpg,6902,1566550,1996574,56
570118,DepthScenes,duration_discrimination,discrim_jsons/d0_rotated.json,http://54.197.185.130/DepthDuration/depth_discrimination_MTurk/DepthDiscrim_HTML.html#3,3,1708,960,1366,768,6-12-2021,11-5-27,120,,,,,,,1470,509,257,532,204,507,feet,4,2,depth_discrimination_stimuli/002579_2014-06-24_14-08-03_094959634447_rgbf000061-resize_2/002579_2014-06-24_14-08-03_094959634447_rgbf000061-resize-original.jpg,6134,1566550,1996574,56
570118,DepthScenes,duration_discrimination,discrim_jsons/d0_rotated.json,http://54.197.185.130/DepthDuration/depth_discrimination_MTurk/DepthDiscrim_HTML.html#3,3,1708,960,1366,768,6-12-2021,11-5-27,121,,,,,,,1470,509,257,532,204,507,feet,4,3,depth_discrimination_stimuli/001132_2014-06-17_14-48-54_260595134347_rgbf000100-resize_2/001132_2014-06-17_14-48-54_260595134347_rgbf000100-resize-original.jpg,7006,1566550,1996574,56
570118,DepthScenes,duration_discrimination,discrim_jsons/d0_rotated.json,http://54.197.185.130/DepthDuration/depth_discrimination_MTurk/DepthDiscrim_HTML.html#3,3,1708,960,1366,768,6-12-2021,11-5-27,122,,,,,,,1470,509,257,532,204,507,feet,3,4,depth_discrimination_stimuli/001092_2014-06-15_17-34-58_260595134347_rgbf000171-resize_3/001092_2014-06-15_17-34-58_260595134347_rgbf000171-resize-original.jpg,4959,1566550,1996574,56
570118,DepthScenes,duration_discrimination,discrim_jsons/d0_rotated.json,http://54.197.185.130/DepthDuration/depth_discrimination_MTurk/DepthDiscrim_HTML.html#3,3,1708,960,1366,768,6-12-2021,11-5-27,123,,,,,,,1470,509,257,532,204,507,feet,4,3,depth_discrimination_stimuli/002758_2014-06-22_19-11-20_094959634447_rgbf000128-resize_1/002758_2014-06-22_19-11-20_094959634447_rgbf000128-resize-original.jpg,4286,1566550,1996574,56
570118,DepthScenes,duration_discrimination,discrim_jsons/d0_rotated.json,http://54.197.185.130/DepthDuration/depth_discrimination_MTurk/DepthDiscrim_HTML.html#3,3,1708,960,1366,768,6-12-2021,11-5-27,124,,,,,,,1470,509,257,532,204,507,feet,3,4,depth_discrimination_stimuli/003069_2014-06-15_14-57-50_094959634447_rgbf000150-resize_4/003069_2014-06-15_14-57-50_094959634447_rgbf000150-resize-original.jpg,5064,1566550,1996574,56
570118,DepthScenes,duration_discrimination,discrim_jsons/d0_rotated.json,http://54.197.185.130/DepthDuration/depth_discrimination_MTurk/DepthDiscrim_HTML.html#3,3,1708,960,1366,768,6-12-2021,11-5-27,125,,,,,,,1470,509,257,532,204,507,feet,3,5,depth_discrimination_stimuli/001052_2014-06-08_18-24-54_260595134347_rgbf000130-resize_1/001052_2014-06-08_18-24-54_260595134347_rgbf000130-resize-original.jpg,5584,1566550,1996574,56
570118,DepthScenes,duration_discrimination,discrim_jsons/d0_rotated.json,http://54.197.185.130/DepthDuration/depth_discrimination_MTurk/DepthDiscrim_HTML.html#3,3,1708,960,1366,768,6-12-2021,11-5-27,126,,,,,,,1470,509,257,532,204,507,feet,4,2,depth_discrimination_stimuli/000137_2014-05-20_17-04-49_260595134347_rgbf000120-resize_1/000137_2014-05-20_17-04-49_260595134347_rgbf000120-resize-original.jpg,5255,1566550,1996574,56
570118,DepthScenes,duration_discrimination,discrim_jsons/d0_rotated.json,http://54.197.185.130/DepthDuration/depth_discrimination_MTurk/DepthDiscrim_HTML.html#3,3,1708,960,1366,768,6-12-2021,11-5-27,127,,,,,,,1470,509,257,532,204,507,feet,4,1,scene_property_catch_stimuli/000675_2014-06-08_22-59-18_260595134347_rgbf000096-resize.jpg,3552,1566550,1996574,56
570118,DepthScenes,duration_discrimination,discrim_jsons/d0_rotated.json,http://54.197.185.130/DepthDuration/depth_discrimination_MTurk/DepthDiscrim_HTML.html#3,3,1708,960,1366,768,6-12-2021,11-5-27,128,,,,,,,1470,509,257,532,204,507,feet,4,3,depth_discrimination_stimuli/002039_2014-06-24_20-22-38_260595134347_rgbf000084-resize_1/002039_2014-06-24_20-22-38_260595134347_rgbf000084-resize-original.jpg,5782,1566550,1996574,56
570118,DepthScenes,duration_discrimination,discrim_jsons/d0_rotated.json,http://54.197.185.130/DepthDuration/depth_discrimination_MTurk/DepthDiscrim_HTML.html#3,3,1708,960,1366,768,6-12-2021,11-5-27,129,,,,,,,1470,509,257,532,204,507,feet,3,4,depth_discrimination_stimuli/000906_2014-06-08_13-35-43_260595134347_rgbf000155-resize_1/000906_2014-06-08_13-35-43_260595134347_rgbf000155-resize-original.jpg,3806,1566550,1996574,56
570118,DepthScenes,duration_discrimination,discrim_jsons/d0_rotated.json,http://54.197.185.130/DepthDuration/depth_discrimination_MTurk/DepthDiscrim_HTML.html#3,3,1708,960,1366,768,6-12-2021,11-5-27,130,,,,,,,1470,509,257,532,204,507,feet,3,5,depth_discrimination_stimuli/000493_2014-06-09_21-01-18_260595134347_rgbf000196-resize_3/000493_2014-06-09_21-01-18_260595134347_rgbf000196-resize-original.jpg,6985,1566550,1996574,56
570118,DepthScenes,duration_discrimination,discrim_jsons/d0_rotated.json,http://54.197.185.130/DepthDuration/depth_discrimination_MTurk/DepthDiscrim_HTML.html#3,3,1708,960,1366,768,6-12-2021,11-5-27,131,,,,,,,1470,509,257,532,204,507,feet,4,2,depth_discrimination_stimuli/000436_2014-06-09_22-25-11_260595134347_rgbf000137-resize_1/000436_2014-06-09_22-25-11_260595134347_rgbf000137-resize-original.jpg,4030,1566550,1996574,56
570118,DepthScenes,duration_discrimination,discrim_jsons/d0_rotated.json,http://54.197.185.130/DepthDuration/depth_discrimination_MTurk/DepthDiscrim_HTML.html#3,3,1708,960,1366,768,6-12-2021,11-5-27,132,,,,,,,1470,509,257,532,204,507,feet,3,2,depth_discrimination_stimuli/001016_2014-06-09_16-16-10_260595134347_rgbf000112-resize_5/001016_2014-06-09_16-16-10_260595134347_rgbf000112-resize-original.jpg,4439,1566550,1996574,56
570118,DepthScenes,duration_discrimination,discrim_jsons/d0_rotated.json,http://54.197.185.130/DepthDuration/depth_discrimination_MTurk/DepthDiscrim_HTML.html#3,3,1708,960,1366,768,6-12-2021,11-5-27,133,,,,,,,1470,509,257,532,204,507,feet,3,1,depth_discrimination_stimuli/003338_2014-05-20_11-01-23_094959634447_rgbf000051-resize_6/003338_2014-05-20_11-01-23_094959634447_rgbf000051-resize-original.jpg,32208,1566550,1996574,56
570118,DepthScenes,duration_discrimination,discrim_jsons/d0_rotated.json,http://54.197.185.130/DepthDuration/depth_discrimination_MTurk/DepthDiscrim_HTML.html#3,3,1708,960,1366,768,6-12-2021,11-5-27,134,,,,,,,1470,509,257,532,204,507,feet,3,4,depth_discrimination_stimuli/002748_2014-06-22_19-07-22_094959634447_rgbf000078-resize_1/002748_2014-06-22_19-07-22_094959634447_rgbf000078-resize-original.jpg,3526,1566550,1996574,56
570118,DepthScenes,duration_discrimination,discrim_jsons/d0_rotated.json,http://54.197.185.130/DepthDuration/depth_discrimination_MTurk/DepthDiscrim_HTML.html#3,3,1708,960,1366,768,6-12-2021,11-5-27,135,,,,,,,1470,509,257,532,204,507,feet,3,2,depth_discrimination_stimuli/000521_2014-06-08_13-34-35_260595134347_rgbf000191-resize_2/000521_2014-06-08_13-34-35_260595134347_rgbf000191-resize-original.jpg,5327,1566550,1996574,56
570118,DepthScenes,duration_discrimination,discrim_jsons/d0_rotated.json,http://54.197.185.130/DepthDuration/depth_discrimination_MTurk/DepthDiscrim_HTML.html#3,3,1708,960,1366,768,6-12-2021,11-5-27,136,,,,,,,1470,509,257,532,204,507,feet,3,4,depth_discrimination_stimuli/001828_2014-06-26_21-40-03_260595134347_rgbf000024-resize_0/001828_2014-06-26_21-40-03_260595134347_rgbf000024-resize-original.jpg,4919,1566550,1996574,56
570118,DepthScenes,duration_discrimination,discrim_jsons/d0_rotated.json,http://54.197.185.130/DepthDuration/depth_discrimination_MTurk/DepthDiscrim_HTML.html#3,3,1708,960,1366,768,6-12-2021,11-5-27,137,,,,,,,1470,509,257,532,204,507,feet,2,3,depth_discrimination_stimuli/001167_2014-06-17_15-38-07_260595134347_rgbf000108-resize_0/001167_2014-06-17_15-38-07_260595134347_rgbf000108-resize-original.jpg,4407,1566550,1996574,56
570118,DepthScenes,duration_discrimination,discrim_jsons/d0_rotated.json,http://54.197.185.130/DepthDuration/depth_discrimination_MTurk/DepthDiscrim_HTML.html#3,3,1708,960,1366,768,6-12-2021,11-5-27,138,,,,,,,1470,509,257,532,204,507,feet,3,4,depth_discrimination_stimuli/000720_2014-06-08_18-37-27_260595134347_rgbf000203-resize_4/000720_2014-06-08_18-37-27_260595134347_rgbf000203-resize-original.jpg,4239,1566550,1996574,56
570118,DepthScenes,duration_discrimination,discrim_jsons/d0_rotated.json,http://54.197.185.130/DepthDuration/depth_discrimination_MTurk/DepthDiscrim_HTML.html#3,3,1708,960,1366,768,6-12-2021,11-5-27,139,,,,,,,1470,509,257,532,204,507,feet,4,5,depth_discrimination_stimuli/000469_2014-06-09_19-42-10_260595134347_rgbf000081-resize_1/000469_2014-06-09_19-42-10_260595134347_rgbf000081-resize-original.jpg,3679,1566550,1996574,56
570118,DepthScenes,duration_discrimination,discrim_jsons/d0_rotated.json,http://54.197.185.130/DepthDuration/depth_discrimination_MTurk/DepthDiscrim_HTML.html#3,3,1708,960,1366,768,6-12-2021,11-5-27,140,,,,,,,1470,509,257,532,204,507,feet,4,2,depth_discrimination_stimuli/001417_2014-06-19_16-25-36_260595134347_rgbf000115-resize_5/001417_2014-06-19_16-25-36_260595134347_rgbf000115-resize-original.jpg,5447,1566550,1996574,56
570118,DepthScenes,duration_discrimination,discrim_jsons/d0_rotated.json,http://54.197.185.130/DepthDuration/depth_discrimination_MTurk/DepthDiscrim_HTML.html#3,3,1708,960,1366,768,6-12-2021,11-5-27,141,,,,,,,1470,509,257,532,204,507,feet,4,3,depth_discrimination_stimuli/000709_2014-06-08_13-51-55_260595134347_rgbf000068-resize_3/000709_2014-06-08_13-51-55_260595134347_rgbf000068-resize-original.jpg,3982,1566550,1996574,56
570118,DepthScenes,duration_discrimination,discrim_jsons/d0_rotated.json,http://54.197.185.130/DepthDuration/depth_discrimination_MTurk/DepthDiscrim_HTML.html#3,3,1708,960,1366,768,6-12-2021,11-5-27,142,,,,,,,1470,509,257,532,204,507,feet,4,2,depth_discrimination_stimuli/002199_2014-06-28_18-33-56_260595134347_rgbf000074-resize_0/002199_2014-06-28_18-33-56_260595134347_rgbf000074-resize-original.jpg,4759,1566550,1996574,56
570118,DepthScenes,duration_discrimination,discrim_jsons/d0_rotated.json,http://54.197.185.130/DepthDuration/depth_discrimination_MTurk/DepthDiscrim_HTML.html#3,3,1708,960,1366,768,6-12-2021,11-5-27,143,,,,,,,1470,509,257,532,204,507,feet,3,2,depth_discrimination_stimuli/000505_2014-06-08_23-03-23_260595134347_rgbf000091-resize_0/000505_2014-06-08_23-03-23_260595134347_rgbf000091-resize-original.jpg,3510,1566550,1996574,56
570118,DepthScenes,duration_discrimination,discrim_jsons/d0_rotated.json,http://54.197.185.130/DepthDuration/depth_discrimination_MTurk/DepthDiscrim_HTML.html#3,3,1708,960,1366,768,6-12-2021,11-5-27,144,,,,,,,1470,509,257,532,204,507,feet,3,4,depth_discrimination_stimuli/002700_2014-06-22_11-27-02_094959634447_rgbf000124-resize_3/002700_2014-06-22_11-27-02_094959634447_rgbf000124-resize-original.jpg,4136,1566550,1996574,56
570118,DepthScenes,duration_discrimination,discrim_jsons/d0_rotated.json,http://54.197.185.130/DepthDuration/depth_discrimination_MTurk/DepthDiscrim_HTML.html#3,3,1708,960,1366,768,6-12-2021,11-5-27,145,,,,,,,1470,509,257,532,204,507,feet,3,4,depth_discrimination_stimuli/000636_2014-06-08_16-39-02_260595134347_rgbf000108-resize_4/000636_2014-06-08_16-39-02_260595134347_rgbf000108-resize-original.jpg,3863,1566550,1996574,56
570118,DepthScenes,duration_discrimination,discrim_jsons/d0_rotated.json,http://54.197.185.130/DepthDuration/depth_discrimination_MTurk/DepthDiscrim_HTML.html#3,3,1708,960,1366,768,6-12-2021,11-5-27,146,,,,,,,1470,509,257,532,204,507,feet,2,4,depth_discrimination_stimuli/002545_2014-06-24_13-38-53_094959634447_rgbf000080-resize_4/002545_2014-06-24_13-38-53_094959634447_rgbf000080-resize-original.jpg,4957,1566550,1996574,56
570118,DepthScenes,duration_discrimination,discrim_jsons/d0_rotated.json,http://54.197.185.130/DepthDuration/depth_discrimination_MTurk/DepthDiscrim_HTML.html#3,3,1708,960,1366,768,6-12-2021,11-5-27,147,,,,,,,1470,509,257,532,204,507,feet,3,2,depth_discrimination_stimuli/000506_2014-06-08_23-21-00_260595134347_rgbf000070-resize_7/000506_2014-06-08_23-21-00_260595134347_rgbf000070-resize-original.jpg,4528,1566550,1996574,56
570118,DepthScenes,duration_discrimination,discrim_jsons/d0_rotated.json,http://54.197.185.130/DepthDuration/depth_discrimination_MTurk/DepthDiscrim_HTML.html#3,3,1708,960,1366,768,6-12-2021,11-5-27,148,,,,,,,1470,509,257,532,204,507,feet,4,3,depth_discrimination_stimuli/001449_2014-06-19_17-01-27_260595134347_rgbf000116-resize_2/001449_2014-06-19_17-01-27_260595134347_rgbf000116-resize-original.jpg,3511,1566550,1996574,56
570118,DepthScenes,duration_discrimination,discrim_jsons/d0_rotated.json,http://54.197.185.130/DepthDuration/depth_discrimination_MTurk/DepthDiscrim_HTML.html#3,3,1708,960,1366,768,6-12-2021,11-5-27,149,,,,,,,1470,509,257,532,204,507,feet,3,4,depth_discrimination_stimuli/001570_2014-06-20_17-21-09_260595134347_rgbf000135-resize_4/001570_2014-06-20_17-21-09_260595134347_rgbf000135-resize-original.jpg,7238,1566550,1996574,56
570118,DepthScenes,duration_discrimination,discrim_jsons/d0_rotated.json,http://54.197.185.130/DepthDuration/depth_discrimination_MTurk/DepthDiscrim_HTML.html#3,3,1708,960,1366,768,6-12-2021,11-5-27,150,,,,,,,1470,509,257,532,204,507,feet,3,5,depth_discrimination_stimuli/002375_2014-06-28_20-13-44_260595134347_rgbf000032-resize_1/002375_2014-06-28_20-13-44_260595134347_rgbf000032-resize-original.jpg,3967,1566550,1996574,56
570118,DepthScenes,duration_discrimination,discrim_jsons/d0_rotated.json,http://54.197.185.130/DepthDuration/depth_discrimination_MTurk/DepthDiscrim_HTML.html#3,3,1708,960,1366,768,6-12-2021,11-5-27,151,,,,,,,1470,509,257,532,204,507,feet,5,2,depth_discrimination_stimuli/002272_2014-06-28_18-53-56_260595134347_rgbf000067-resize_2/002272_2014-06-28_18-53-56_260595134347_rgbf000067-resize-original.jpg,4447,1566550,1996574,56
570118,DepthScenes,duration_discrimination,discrim_jsons/d0_rotated.json,http://54.197.185.130/DepthDuration/depth_discrimination_MTurk/DepthDiscrim_HTML.html#3,3,1708,960,1366,768,6-12-2021,11-5-27,152,,,,,,,1470,509,257,532,204,507,feet,4,3,depth_discrimination_stimuli/000927_2014-06-09_16-32-30_260595134347_rgbf000123-resize_3/000927_2014-06-09_16-32-30_260595134347_rgbf000123-resize-original.jpg,5238,1566550,1996574,56
570118,DepthScenes,duration_discrimination,discrim_jsons/d0_rotated.json,http://54.197.185.130/DepthDuration/depth_discrimination_MTurk/DepthDiscrim_HTML.html#3,3,1708,960,1366,768,6-12-2021,11-5-27,153,,,,,,,1470,509,257,532,204,507,feet,4,2,depth_discrimination_stimuli/000109_2014-05-14_23-41-52_260595134347_rgbf000035-resize_9/000109_2014-05-14_23-41-52_260595134347_rgbf000035-resize-original.jpg,3735,1566550,1996574,56
570118,DepthScenes,duration_discrimination,discrim_jsons/d0_rotated.json,http://54.197.185.130/DepthDuration/depth_discrimination_MTurk/DepthDiscrim_HTML.html#3,3,1708,960,1366,768,6-12-2021,11-5-27,154,,,,,,,1470,509,257,532,204,507,feet,4,3,depth_discrimination_stimuli/002464_2014-06-28_20-36-57_260595134347_rgbf000029-resize_0/002464_2014-06-28_20-36-57_260595134347_rgbf000029-resize-original.jpg,3998,1566550,1996574,56
570118,DepthScenes,duration_discrimination,discrim_jsons/d0_rotated.json,http://54.197.185.130/DepthDuration/depth_discrimination_MTurk/DepthDiscrim_HTML.html#3,3,1708,960,1366,768,6-12-2021,11-5-27,155,,,,,,,1470,509,257,532,204,507,feet,3,2,depth_discrimination_stimuli/001244_2014-06-17_16-47-45_260595134347_rgbf000030-resize_4/001244_2014-06-17_16-47-45_260595134347_rgbf000030-resize-original.jpg,4247,1566550,1996574,56
570118,DepthScenes,duration_discrimination,discrim_jsons/d0_rotated.json,http://54.197.185.130/DepthDuration/depth_discrimination_MTurk/DepthDiscrim_HTML.html#3,3,1708,960,1366,768,6-12-2021,11-5-27,156,,,,,,,1470,509,257,532,204,507,feet,4,3,depth_discrimination_stimuli/003546_2014-05-22_15-48-53_094959634447_rgbf004816-resize_3/003546_2014-05-22_15-48-53_094959634447_rgbf004816-resize-original.jpg,4678,1566550,1996574,56
570118,DepthScenes,duration_discrimination,discrim_jsons/d0_rotated.json,http://54.197.185.130/DepthDuration/depth_discrimination_MTurk/DepthDiscrim_HTML.html#3,3,1708,960,1366,768,6-12-2021,11-5-27,157,,,,,,,1470,509,257,532,204,507,feet,3,2,depth_discrimination_stimuli/000740_2014-06-08_18-46-23_260595134347_rgbf000049-resize_6/000740_2014-06-08_18-46-23_260595134347_rgbf000049-resize-original.jpg,3934,1566550,1996574,56
570118,DepthScenes,duration_discrimination,discrim_jsons/d0_rotated.json,http://54.197.185.130/DepthDuration/depth_discrimination_MTurk/DepthDiscrim_HTML.html#3,3,1708,960,1366,768,6-12-2021,11-5-27,158,,,,,,,1470,509,257,532,204,507,feet,3,4,depth_discrimination_stimuli/003083_2014-06-15_15-21-03_094959634447_rgbf000063-resize_1/003083_2014-06-15_15-21-03_094959634447_rgbf000063-resize-original.jpg,4686,1566550,1996574,56
570118,DepthScenes,duration_discrimination,discrim_jsons/d0_rotated.json,http://54.197.185.130/DepthDuration/depth_discrimination_MTurk/DepthDiscrim_HTML.html#3,3,1708,960,1366,768,6-12-2021,11-5-27,159,,,,,,,1470,509,257,532,204,507,feet,3,4,depth_discrimination_stimuli/003495_2014-05-21_16-01-51_094959634447_rgbf000100-resize_3/003495_2014-05-21_16-01-51_094959634447_rgbf000100-resize-original.jpg,3897,1566550,1996574,56
570118,DepthScenes,duration_discrimination,discrim_jsons/d0_rotated.json,http://54.197.185.130/DepthDuration/depth_discrimination_MTurk/DepthDiscrim_HTML.html#3,3,1708,960,1366,768,6-12-2021,11-5-27,160,,,,,,,1470,509,257,532,204,507,feet,3,4,depth_discrimination_stimuli/001264_2014-06-16_16-10-23_260595134347_rgbf000109-resize_1/001264_2014-06-16_16-10-23_260595134347_rgbf000109-resize-original.jpg,6911,1566550,1996574,56
570118,DepthScenes,duration_discrimination,discrim_jsons/d0_rotated.json,http://54.197.185.130/DepthDuration/depth_discrimination_MTurk/DepthDiscrim_HTML.html#3,3,1708,960,1366,768,6-12-2021,11-5-27,161,,,,,,,1470,509,257,532,204,507,feet,3,4,depth_discrimination_stimuli/002103_2014-06-25_20-00-40_260595134347_rgbf000049-resize_0/002103_2014-06-25_20-00-40_260595134347_rgbf000049-resize-original.jpg,4145,1566550,1996574,56
570118,DepthScenes,duration_discrimination,discrim_jsons/d0_rotated.json,http://54.197.185.130/DepthDuration/depth_discrimination_MTurk/DepthDiscrim_HTML.html#3,3,1708,960,1366,768,6-12-2021,11-5-27,162,,,,,,,1470,509,257,532,204,507,feet,3,2,depth_discrimination_stimuli/000878_2014-06-08_22-52-45_260595134347_rgbf000045-resize_2/000878_2014-06-08_22-52-45_260595134347_rgbf000045-resize-original.jpg,3999,1566550,1996574,56
570118,DepthScenes,duration_discrimination,discrim_jsons/d0_rotated.json,http://54.197.185.130/DepthDuration/depth_discrimination_MTurk/DepthDiscrim_HTML.html#3,3,1708,960,1366,768,6-12-2021,11-5-27,163,,,,,,,1470,509,257,532,204,507,feet,4,2,depth_discrimination_stimuli/001289_2014-06-16_16-25-52_260595134347_rgbf000067-resize_1/001289_2014-06-16_16-25-52_260595134347_rgbf000067-resize-original.jpg,3909,1566550,1996574,56
570118,DepthScenes,duration_discrimination,discrim_jsons/d0_rotated.json,http://54.197.185.130/DepthDuration/depth_discrimination_MTurk/DepthDiscrim_HTML.html#3,3,1708,960,1366,768,6-12-2021,11-5-27,164,,,,,,,1470,509,257,532,204,507,feet,2,3,depth_discrimination_stimuli/001650_2014-06-20_12-09-00_260595134347_rgbf000087-resize_3/001650_2014-06-20_12-09-00_260595134347_rgbf000087-resize-original.jpg,6415,1566550,1996574,56
570118,DepthScenes,duration_discrimination,discrim_jsons/d0_rotated.json,http://54.197.185.130/DepthDuration/depth_discrimination_MTurk/DepthDiscrim_HTML.html#3,3,1708,960,1366,768,6-12-2021,11-5-27,165,,,,,,,1470,509,257,532,204,507,feet,4,3,depth_discrimination_stimuli/000734_2014-06-08_17-39-11_260595134347_rgbf000128-resize_2/000734_2014-06-08_17-39-11_260595134347_rgbf000128-resize-original.jpg,4383,1566550,1996574,56
570118,DepthScenes,duration_discrimination,discrim_jsons/d0_rotated.json,http://54.197.185.130/DepthDuration/depth_discrimination_MTurk/DepthDiscrim_HTML.html#3,3,1708,960,1366,768,6-12-2021,11-5-27,166,,,,,,,1470,509,257,532,204,507,feet,3,2,depth_discrimination_stimuli/002637_2014-06-24_14-51-13_094959634447_rgbf000066-resize_4/002637_2014-06-24_14-51-13_094959634447_rgbf000066-resize-original.jpg,4837,1566550,1996574,56
570118,DepthScenes,duration_discrimination,discrim_jsons/d0_rotated.json,http://54.197.185.130/DepthDuration/depth_discrimination_MTurk/DepthDiscrim_HTML.html#3,3,1708,960,1366,768,6-12-2021,11-5-27,167,,,,,,,1470,509,257,532,204,507,feet,3,1,depth_discrimination_stimuli/002988_2014-06-15_12-24-20_094959634447_rgbf000150-resize_1/002988_2014-06-15_12-24-20_094959634447_rgbf000150-resize-original.jpg,4223,1566550,1996574,56
570118,DepthScenes,duration_discrimination,discrim_jsons/d0_rotated.json,http://54.197.185.130/DepthDuration/depth_discrimination_MTurk/DepthDiscrim_HTML.html#3,3,1708,960,1366,768,6-12-2021,11-5-27,168,,,,,,,1470,509,257,532,204,507,feet,3,2,depth_discrimination_stimuli/000869_2014-06-09_20-50-18_260595134347_rgbf000060-resize_3/000869_2014-06-09_20-50-18_260595134347_rgbf000060-resize-original.jpg,4409,1566550,1996574,56
570118,DepthScenes,duration_discrimination,discrim_jsons/d0_rotated.json,http://54.197.185.130/DepthDuration/depth_discrimination_MTurk/DepthDiscrim_HTML.html#3,3,1708,960,1366,768,6-12-2021,11-5-27,169,,,,,,,1470,509,257,532,204,507,feet,3,4,depth_discrimination_stimuli/000542_2014-06-08_18-27-08_260595134347_rgbf000118-resize_1/000542_2014-06-08_18-27-08_260595134347_rgbf000118-resize-original.jpg,6165,1566550,1996574,56
570118,DepthScenes,duration_discrimination,discrim_jsons/d0_rotated.json,http://54.197.185.130/DepthDuration/depth_discrimination_MTurk/DepthDiscrim_HTML.html#3,3,1708,960,1366,768,6-12-2021,11-5-27,170,,,,,,,1470,509,257,532,204,507,feet,4,3,depth_discrimination_stimuli/000556_2014-06-09_22-42-56_260595134347_rgbf000214-resize_1/000556_2014-06-09_22-42-56_260595134347_rgbf000214-resize-original.jpg,4584,1566550,1996574,56
570118,DepthScenes,duration_discrimination,discrim_jsons/d0_rotated.json,http://54.197.185.130/DepthDuration/depth_discrimination_MTurk/DepthDiscrim_HTML.html#3,3,1708,960,1366,768,6-12-2021,11-5-27,171,,,,,,,1470,509,257,532,204,507,feet,3,2,depth_discrimination_stimuli/001094_2014-06-15_17-36-00_260595134347_rgbf000205-resize_0/001094_2014-06-15_17-36-00_260595134347_rgbf000205-resize-original.jpg,5509,1566550,1996574,56
570118,DepthScenes,duration_discrimination,discrim_jsons/d0_rotated.json,http://54.197.185.130/DepthDuration/depth_discrimination_MTurk/DepthDiscrim_HTML.html#3,3,1708,960,1366,768,6-12-2021,11-5-27,172,,,,,,,1470,509,257,532,204,507,feet,3,3,depth_discrimination_stimuli/000773_2014-06-08_22-24-54_260595134347_rgbf000093-resize_1/000773_2014-06-08_22-24-54_260595134347_rgbf000093-resize-original.jpg,7952,1566550,1996574,56
570118,DepthScenes,duration_discrimination,discrim_jsons/d0_rotated.json,http://54.197.185.130/DepthDuration/depth_discrimination_MTurk/DepthDiscrim_HTML.html#3,3,1708,960,1366,768,6-12-2021,11-5-27,173,,,,,,,1470,509,257,532,204,507,feet,3,2,depth_discrimination_stimuli/001059_2014-06-08_21-53-27_260595134347_rgbf000061-resize_4/001059_2014-06-08_21-53-27_260595134347_rgbf000061-resize-original.jpg,4431,1566550,1996574,56
570118,DepthScenes,duration_discrimination,discrim_jsons/d0_rotated.json,http://54.197.185.130/DepthDuration/depth_discrimination_MTurk/DepthDiscrim_HTML.html#3,3,1708,960,1366,768,6-12-2021,11-5-27,174,,,,,,,1470,509,257,532,204,507,feet,3,4,depth_discrimination_stimuli/003292_2014-05-14_21-53-49_094959634447_rgbf000100-resize_2/003292_2014-05-14_21-53-49_094959634447_rgbf000100-resize-original.jpg,4782,1566550,1996574,56
570118,DepthScenes,duration_discrimination,discrim_jsons/d0_rotated.json,http://54.197.185.130/DepthDuration/depth_discrimination_MTurk/DepthDiscrim_HTML.html#3,3,1708,960,1366,768,6-12-2021,11-5-27,175,,,,,,,1470,509,257,532,204,507,feet,3,4,depth_discrimination_stimuli/003129_2014-05-12_10-48-10_094959634447_rgbf000100-resize_0/003129_2014-05-12_10-48-10_094959634447_rgbf000100-resize-original.jpg,9500,1566550,1996574,56
570118,DepthScenes,duration_discrimination,discrim_jsons/d0_rotated.json,http://54.197.185.130/DepthDuration/depth_discrimination_MTurk/DepthDiscrim_HTML.html#3,3,1708,960,1366,768,6-12-2021,11-5-27,176,,,,,,,1470,509,257,532,204,507,feet,4,5,depth_discrimination_stimuli/002600_2014-06-24_14-27-04_094959634447_rgbf000074-resize_2/002600_2014-06-24_14-27-04_094959634447_rgbf000074-resize-original.jpg,4848,1566550,1996574,56
570118,DepthScenes,duration_discrimination,discrim_jsons/d0_rotated.json,http://54.197.185.130/DepthDuration/depth_discrimination_MTurk/DepthDiscrim_HTML.html#3,3,1708,960,1366,768,6-12-2021,11-5-27,177,,,,,,,1470,509,257,532,204,507,feet,4,3,depth_discrimination_stimuli/003534_2014-05-22_15-06-10_094959634447_rgbf000102-resize_4/003534_2014-05-22_15-06-10_094959634447_rgbf000102-resize-original.jpg,3781,1566550,1996574,56
570118,DepthScenes,duration_discrimination,discrim_jsons/d0_rotated.json,http://54.197.185.130/DepthDuration/depth_discrimination_MTurk/DepthDiscrim_HTML.html#3,3,1708,960,1366,768,6-12-2021,11-5-27,178,,,,,,,1470,509,257,532,204,507,feet,4,2,depth_discrimination_stimuli/001532_2014-06-20_16-50-41_260595134347_rgbf000081-resize_4/001532_2014-06-20_16-50-41_260595134347_rgbf000081-resize-original.jpg,7360,1566550,1996574,56
570118,DepthScenes,duration_discrimination,discrim_jsons/d0_rotated.json,http://54.197.185.130/DepthDuration/depth_discrimination_MTurk/DepthDiscrim_HTML.html#3,3,1708,960,1366,768,6-12-2021,11-5-27,179,,,,,,,1470,509,257,532,204,507,feet,4,1,depth_discrimination_stimuli/002340_2014-06-28_20-05-46_260595134347_rgbf000113-resize_0/002340_2014-06-28_20-05-46_260595134347_rgbf000113-resize-original.jpg,5206,1566550,1996574,56
570118,DepthScenes,duration_discrimination,discrim_jsons/d0_rotated.json,http://54.197.185.130/DepthDuration/depth_discrimination_MTurk/DepthDiscrim_HTML.html#3,3,1708,960,1366,768,6-12-2021,11-5-27,180,,,,,,,1470,509,257,532,204,507,feet,4,3,depth_discrimination_stimuli/001235_2014-06-17_16-37-36_260595134347_rgbf000084-resize_4/001235_2014-06-17_16-37-36_260595134347_rgbf000084-resize-original.jpg,4015,1566550,1996574,56
570118,DepthScenes,duration_discrimination,discrim_jsons/d0_rotated.json,http://54.197.185.130/DepthDuration/depth_discrimination_MTurk/DepthDiscrim_HTML.html#3,3,1708,960,1366,768,6-12-2021,11-5-27,181,,,,,,,1470,509,257,532,204,507,feet,4,3,depth_discrimination_stimuli/001618_2014-06-20_11-37-31_260595134347_rgbf000027-resize_3/001618_2014-06-20_11-37-31_260595134347_rgbf000027-resize-original.jpg,4629,1566550,1996574,56
570118,DepthScenes,duration_discrimination,discrim_jsons/d0_rotated.json,http://54.197.185.130/DepthDuration/depth_discrimination_MTurk/DepthDiscrim_HTML.html#3,3,1708,960,1366,768,6-12-2021,11-5-27,182,,,,,,,1470,509,257,532,204,507,feet,4,1,depth_discrimination_stimuli/001516_2014-06-20_16-25-09_260595134347_rgbf000076-resize_2/001516_2014-06-20_16-25-09_260595134347_rgbf000076-resize-original.jpg,4049,1566550,1996574,56
570118,DepthScenes,duration_discrimination,discrim_jsons/d0_rotated.json,http://54.197.185.130/DepthDuration/depth_discrimination_MTurk/DepthDiscrim_HTML.html#3,3,1708,960,1366,768,6-12-2021,11-5-27,183,,,,,,,1470,509,257,532,204,507,feet,2,4,depth_discrimination_stimuli/001181_2014-06-17_15-50-57_260595134347_rgbf000106-resize_4/001181_2014-06-17_15-50-57_260595134347_rgbf000106-resize-original.jpg,4504,1566550,1996574,56
570118,DepthScenes,duration_discrimination,discrim_jsons/d0_rotated.json,http://54.197.185.130/DepthDuration/depth_discrimination_MTurk/DepthDiscrim_HTML.html#3,3,1708,960,1366,768,6-12-2021,11-5-27,184,,,,,,,1470,509,257,532,204,507,feet,4,2,depth_discrimination_stimuli/000866_2014-06-09_20-45-42_260595134347_rgbf000139-resize_1/000866_2014-06-09_20-45-42_260595134347_rgbf000139-resize-original.jpg,4263,1566550,1996574,56
570118,DepthScenes,duration_discrimination,discrim_jsons/d0_rotated.json,http://54.197.185.130/DepthDuration/depth_discrimination_MTurk/DepthDiscrim_HTML.html#3,3,1708,960,1366,768,6-12-2021,11-5-27,185,,,,,,,1470,509,257,532,204,507,feet,4,2,depth_discrimination_stimuli/001806_2014-06-26_20-50-20_260595134347_rgbf000091-resize_1/001806_2014-06-26_20-50-20_260595134347_rgbf000091-resize-original.jpg,4079,1566550,1996574,56
570118,DepthScenes,duration_discrimination,discrim_jsons/d0_rotated.json,http://54.197.185.130/DepthDuration/depth_discrimination_MTurk/DepthDiscrim_HTML.html#3,3,1708,960,1366,768,6-12-2021,11-5-27,186,,,,,,,1470,509,257,532,204,507,feet,4,3,depth_discrimination_stimuli/002213_2014-06-28_18-37-58_260595134347_rgbf000055-resize_1/002213_2014-06-28_18-37-58_260595134347_rgbf000055-resize-original.jpg,4454,1566550,1996574,56
570118,DepthScenes,duration_discrimination,discrim_jsons/d0_rotated.json,http://54.197.185.130/DepthDuration/depth_discrimination_MTurk/DepthDiscrim_HTML.html#3,3,1708,960,1366,768,6-12-2021,11-5-27,187,,,,,,,1470,509,257,532,204,507,feet,4,3,depth_discrimination_stimuli/003621_2014-05-23_18-06-08_094959634447_rgbf000101-resize_1/003621_2014-05-23_18-06-08_094959634447_rgbf000101-resize-original.jpg,5360,1566550,1996574,56
570118,DepthScenes,duration_discrimination,discrim_jsons/d0_rotated.json,http://54.197.185.130/DepthDuration/depth_discrimination_MTurk/DepthDiscrim_HTML.html#3,3,1708,960,1366,768,6-12-2021,11-5-27,188,,,,,,,1470,509,257,532,204,507,feet,2,5,scene_property_catch_stimuli/sun_aoquhiddlfqapdlz.jpg,4960,1566550,1996574,56
570118,DepthScenes,duration_discrimination,discrim_jsons/d0_rotated.json,http://54.197.185.130/DepthDuration/depth_discrimination_MTurk/DepthDiscrim_HTML.html#3,3,1708,960,1366,768,6-12-2021,11-5-27,189,,,,,,,1470,509,257,532,204,507,feet,3,2,depth_discrimination_stimuli/003079_2014-06-15_15-18-20_094959634447_rgbf000152-resize_8/003079_2014-06-15_15-18-20_094959634447_rgbf000152-resize-original.jpg,5789,1566550,1996574,56
570118,DepthScenes,duration_discrimination,discrim_jsons/d0_rotated.json,http://54.197.185.130/DepthDuration/depth_discrimination_MTurk/DepthDiscrim_HTML.html#3,3,1708,960,1366,768,6-12-2021,11-5-27,190,,,,,,,1470,509,257,532,204,507,feet,4,2,depth_discrimination_stimuli/002549_2014-06-24_13-41-39_094959634447_rgbf000022-resize_3/002549_2014-06-24_13-41-39_094959634447_rgbf000022-resize-original.jpg,3950,1566550,1996574,56
570118,DepthScenes,duration_discrimination,discrim_jsons/d0_rotated.json,http://54.197.185.130/DepthDuration/depth_discrimination_MTurk/DepthDiscrim_HTML.html#3,3,1708,960,1366,768,6-12-2021,11-5-27,191,,,,,,,1470,509,257,532,204,507,feet,3,2,depth_discrimination_stimuli/003228_2014-05-14_13-42-35_094959634447_rgbf000101-resize_1/003228_2014-05-14_13-42-35_094959634447_rgbf000101-resize-original.jpg,4312,1566550,1996574,56
570118,DepthScenes,duration_discrimination,discrim_jsons/d0_rotated.json,http://54.197.185.130/DepthDuration/depth_discrimination_MTurk/DepthDiscrim_HTML.html#3,3,1708,960,1366,768,6-12-2021,11-5-27,192,,,,,,,1470,509,257,532,204,507,feet,3,5,depth_discrimination_stimuli/000368_2014-06-09_15-53-01_260595134347_rgbf000155-resize_2/000368_2014-06-09_15-53-01_260595134347_rgbf000155-resize-original.jpg,4128,1566550,1996574,56
570118,DepthScenes,duration_discrimination,discrim_jsons/d0_rotated.json,http://54.197.185.130/DepthDuration/depth_discrimination_MTurk/DepthDiscrim_HTML.html#3,3,1708,960,1366,768,6-12-2021,11-5-27,193,,,,,,,1470,509,257,532,204,507,feet,4,3,depth_discrimination_stimuli/002279_2014-06-28_18-55-32_260595134347_rgbf000040-resize_5/002279_2014-06-28_18-55-32_260595134347_rgbf000040-resize-original.jpg,4780,1566550,1996574,56
570118,DepthScenes,duration_discrimination,discrim_jsons/d0_rotated.json,http://54.197.185.130/DepthDuration/depth_discrimination_MTurk/DepthDiscrim_HTML.html#3,3,1708,960,1366,768,6-12-2021,11-5-27,194,,,,,,,1470,509,257,532,204,507,feet,4,2,depth_discrimination_stimuli/002509_2014-06-24_13-19-22_094959634447_rgbf000077-resize_0/002509_2014-06-24_13-19-22_094959634447_rgbf000077-resize-original.jpg,5847,1566550,1996574,56
570118,DepthScenes,duration_discrimination,discrim_jsons/d0_rotated.json,http://54.197.185.130/DepthDuration/depth_discrimination_MTurk/DepthDiscrim_HTML.html#3,3,1708,960,1366,768,6-12-2021,11-5-27,195,,,,,,,1470,509,257,532,204,507,feet,4,3,depth_discrimination_stimuli/000555_2014-06-09_22-42-23_260595134347_rgbf000037-resize_4/000555_2014-06-09_22-42-23_260595134347_rgbf000037-resize-original.jpg,4198,1566550,1996574,56
