subjID,experimentName,versionName,sequenceName,url,selected_row,windowWidth,windowHeight,screenWidth,screenHeight,startDate,startTime,trial,stimulus_0,stimulus_1,duration,actual_depth_0,actual_depth_1,discrim_choice,trial_RT,log_fixation,log_sceneDuration1,log_mask1,log_sceneDuration2,log_mask2,unitSelection,meanDepth_rating,navigability_rating,rated_stimulus,rating_RT,experimentTime,totalTime,age
529702,DepthScenes,duration_discrimination,discrim_jsons/d0_dr.json,http://54.197.185.130/DepthDuration/depth_discrimination_MTurk/DepthDiscrim_HTML.html#1,1,1366,657,1366,768,6-12-2021,7-25-44,1,depth_discrimination_stimuli/002639_2014-06-24_14-51-37_094959634447_rgbf000074-resize_4/002639_2014-06-24_14-51-37_094959634447_rgbf000074-resize_4-target.png,depth_discrimination_stimuli/001132_2014-06-17_14-48-54_260595134347_rgbf000100-resize_2/001132_2014-06-17_14-48-54_260595134347_rgbf000100-resize_2-target.png,250,4.0375,3.753,0,896,516,243,501,248,505,feet,,,,,1078089,1209086,36
529702,DepthScenes,duration_discrimination,discrim_jsons/d0_dr.json,http://54.197.185.130/DepthDuration/depth_discrimination_MTurk/DepthDiscrim_HTML.html#1,1,1366,657,1366,768,6-12-2021,7-25-44,2,depth_discrimination_stimuli/001100_2014-06-15_17-46-26_260595134347_rgbf000225-resize_2/001100_2014-06-15_17-46-26_260595134347_rgbf000225-resize_2-target.png,depth_discrimination_stimuli/002131_2014-06-25_21-12-01_260595134347_rgbf000083-resize_0/002131_2014-06-25_21-12-01_260595134347_rgbf000083-resize_0-target.png,250,2.24,1.7685,0,1585,506,247,502,254,494,feet,,,,,1078089,1209086,36
529702,DepthScenes,duration_discrimination,discrim_jsons/d0_dr.json,http://54.197.185.130/DepthDuration/depth_discrimination_MTurk/DepthDiscrim_HTML.html#1,1,1366,657,1366,768,6-12-2021,7-25-44,3,depth_discrimination_stimuli/002444_2014-06-28_20-32-08_260595134347_rgbf000027-resize_0/002444_2014-06-28_20-32-08_260595134347_rgbf000027-resize_0-target.png,depth_discrimination_stimuli/003048_2014-06-15_13-49-43_094959634447_rgbf000150-resize_1/003048_2014-06-15_13-49-43_094959634447_rgbf000150-resize_1-target.png,250,4.389,4.0035,1,795,513,238,504,249,506,feet,,,,,1078089,1209086,36
529702,DepthScenes,duration_discrimination,discrim_jsons/d0_dr.json,http://54.197.185.130/DepthDuration/depth_discrimination_MTurk/DepthDiscrim_HTML.html#1,1,1366,657,1366,768,6-12-2021,7-25-44,4,depth_discrimination_stimuli/002549_2014-06-24_13-41-39_094959634447_rgbf000022-resize_3/002549_2014-06-24_13-41-39_094959634447_rgbf000022-resize_3-target.png,depth_discrimination_stimuli/002545_2014-06-24_13-38-53_094959634447_rgbf000080-resize_4/002545_2014-06-24_13-38-53_094959634447_rgbf000080-resize_4-target.png,1000,1.476,1.9205,0,1991,508,1014,483,1005,493,feet,,,,,1078089,1209086,36
529702,DepthScenes,duration_discrimination,discrim_jsons/d0_dr.json,http://54.197.185.130/DepthDuration/depth_discrimination_MTurk/DepthDiscrim_HTML.html#1,1,1366,657,1366,768,6-12-2021,7-25-44,5,depth_discrimination_stimuli/000454_2014-06-08_16-37-28_260595134347_rgbf000048-resize_2/000454_2014-06-08_16-37-28_260595134347_rgbf000048-resize_2-target.png,depth_discrimination_stimuli/000375_2014-06-08_11-17-29_260595134347_rgbf000133-resize_2/000375_2014-06-08_11-17-29_260595134347_rgbf000133-resize_2-target.png,1000,1.213,4.718,0,2031,503,1011,495,1002,499,feet,,,,,1078089,1209086,36
529702,DepthScenes,duration_discrimination,discrim_jsons/d0_dr.json,http://54.197.185.130/DepthDuration/depth_discrimination_MTurk/DepthDiscrim_HTML.html#1,1,1366,657,1366,768,6-12-2021,7-25-44,6,depth_discrimination_stimuli/002467_2014-06-28_20-38-07_260595134347_rgbf000026-resize_2/002467_2014-06-28_20-38-07_260595134347_rgbf000026-resize_2-target.png,depth_discrimination_stimuli/001175_2014-06-17_15-45-55_260595134347_rgbf000129-resize_4/001175_2014-06-17_15-45-55_260595134347_rgbf000129-resize_4-target.png,250,4.742,4.255,1,1147,504,252,519,226,509,feet,,,,,1078089,1209086,36
529702,DepthScenes,duration_discrimination,discrim_jsons/d0_dr.json,http://54.197.185.130/DepthDuration/depth_discrimination_MTurk/DepthDiscrim_HTML.html#1,1,1366,657,1366,768,6-12-2021,7-25-44,7,depth_discrimination_stimuli/002279_2014-06-28_18-55-32_260595134347_rgbf000040-resize_5/002279_2014-06-28_18-55-32_260595134347_rgbf000040-resize_5-target.png,depth_discrimination_stimuli/002949_2014-06-26_15-57-42_094959634447_rgbf000079-resize_1/002949_2014-06-26_15-57-42_094959634447_rgbf000079-resize_1-target.png,250,1.5043333333333,1.8915,0,816,506,248,510,251,486,feet,,,,,1078089,1209086,36
529702,DepthScenes,duration_discrimination,discrim_jsons/d0_dr.json,http://54.197.185.130/DepthDuration/depth_discrimination_MTurk/DepthDiscrim_HTML.html#1,1,1366,657,1366,768,6-12-2021,7-25-44,8,depth_discrimination_stimuli/001450_2014-06-19_17-02-03_260595134347_rgbf000203-resize_4/001450_2014-06-19_17-02-03_260595134347_rgbf000203-resize_4-target.png,depth_discrimination_stimuli/002039_2014-06-24_20-22-38_260595134347_rgbf000084-resize_1/002039_2014-06-24_20-22-38_260595134347_rgbf000084-resize_1-target.png,1000,4.0106666666667,4.408,1,1631,516,996,491,1006,493,feet,,,,,1078089,1209086,36
529702,DepthScenes,duration_discrimination,discrim_jsons/d0_dr.json,http://54.197.185.130/DepthDuration/depth_discrimination_MTurk/DepthDiscrim_HTML.html#1,1,1366,657,1366,768,6-12-2021,7-25-44,9,depth_discrimination_stimuli/000469_2014-06-09_19-42-10_260595134347_rgbf000081-resize_1/000469_2014-06-09_19-42-10_260595134347_rgbf000081-resize_1-target.png,depth_discrimination_stimuli/002136_2014-06-25_21-18-03_260595134347_rgbf000109-resize_3/002136_2014-06-25_21-18-03_260595134347_rgbf000109-resize_3-target.png,1000,1.652,1.957,0,1548,512,996,495,1003,506,feet,,,,,1078089,1209086,36
529702,DepthScenes,duration_discrimination,discrim_jsons/d0_dr.json,http://54.197.185.130/DepthDuration/depth_discrimination_MTurk/DepthDiscrim_HTML.html#1,1,1366,657,1366,768,6-12-2021,7-25-44,10,depth_discrimination_stimuli/000635_2014-06-08_16-38-42_260595134347_rgbf000106-resize_1/000635_2014-06-08_16-38-42_260595134347_rgbf000106-resize_1-target.png,depth_discrimination_stimuli/001516_2014-06-20_16-25-09_260595134347_rgbf000076-resize_2/001516_2014-06-20_16-25-09_260595134347_rgbf000076-resize_2-target.png,250,2.074,1.7445,1,1493,515,245,501,254,493,feet,,,,,1078089,1209086,36
529702,DepthScenes,duration_discrimination,discrim_jsons/d0_dr.json,http://54.197.185.130/DepthDuration/depth_discrimination_MTurk/DepthDiscrim_HTML.html#1,1,1366,657,1366,768,6-12-2021,7-25-44,11,depth_discrimination_stimuli/002579_2014-06-24_14-08-03_094959634447_rgbf000061-resize_2/002579_2014-06-24_14-08-03_094959634447_rgbf000061-resize_2-target.png,depth_discrimination_stimuli/002468_2014-06-28_20-38-39_260595134347_rgbf000045-resize_1/002468_2014-06-28_20-38-39_260595134347_rgbf000045-resize_1-target.png,1000,2.223125,1.956,0,1769,506,1009,491,1005,510,feet,,,,,1078089,1209086,36
529702,DepthScenes,duration_discrimination,discrim_jsons/d0_dr.json,http://54.197.185.130/DepthDuration/depth_discrimination_MTurk/DepthDiscrim_HTML.html#1,1,1366,657,1366,768,6-12-2021,7-25-44,12,depth_discrimination_stimuli/000692_2014-06-08_13-09-42_260595134347_rgbf000199-resize_2/000692_2014-06-08_13-09-42_260595134347_rgbf000199-resize_2-target.png,depth_discrimination_stimuli/002103_2014-06-25_20-00-40_260595134347_rgbf000049-resize_0/002103_2014-06-25_20-00-40_260595134347_rgbf000049-resize_0-target.png,1000,3.661,4.105,0,1917,504,1016,497,997,488,feet,,,,,1078089,1209086,36
529702,DepthScenes,duration_discrimination,discrim_jsons/d0_dr.json,http://54.197.185.130/DepthDuration/depth_discrimination_MTurk/DepthDiscrim_HTML.html#1,1,1366,657,1366,768,6-12-2021,7-25-44,13,depth_discrimination_stimuli/002460_2014-06-28_20-35-43_260595134347_rgbf000028-resize_4/002460_2014-06-28_20-35-43_260595134347_rgbf000028-resize_4-target.png,depth_discrimination_stimuli/001806_2014-06-26_20-50-20_260595134347_rgbf000091-resize_1/001806_2014-06-26_20-50-20_260595134347_rgbf000091-resize_1-target.png,250,2.269,2.7305,1,1133,504,261,512,246,489,feet,,,,,1078089,1209086,36
529702,DepthScenes,duration_discrimination,discrim_jsons/d0_dr.json,http://54.197.185.130/DepthDuration/depth_discrimination_MTurk/DepthDiscrim_HTML.html#1,1,1366,657,1366,768,6-12-2021,7-25-44,14,depth_discrimination_stimuli/003587_2014-05-23_16-48-02_094959634447_rgbf002384-resize_2/003587_2014-05-23_16-48-02_094959634447_rgbf002384-resize_2-target.png,depth_discrimination_stimuli/000709_2014-06-08_13-51-55_260595134347_rgbf000068-resize_3/000709_2014-06-08_13-51-55_260595134347_rgbf000068-resize_3-target.png,1000,1.357,1.803,0,1796,510,995,502,1003,497,feet,,,,,1078089,1209086,36
529702,DepthScenes,duration_discrimination,discrim_jsons/d0_dr.json,http://54.197.185.130/DepthDuration/depth_discrimination_MTurk/DepthDiscrim_HTML.html#1,1,1366,657,1366,768,6-12-2021,7-25-44,15,depth_discrimination_stimuli/000734_2014-06-08_17-39-11_260595134347_rgbf000128-resize_2/000734_2014-06-08_17-39-11_260595134347_rgbf000128-resize_2-target.png,depth_discrimination_stimuli/001148_2014-06-17_15-26-42_260595134347_rgbf000129-resize_0/001148_2014-06-17_15-26-42_260595134347_rgbf000129-resize_0-target.png,1000,4.098,4.368,0,1986,509,996,509,991,509,feet,,,,,1078089,1209086,36
529702,DepthScenes,duration_discrimination,discrim_jsons/d0_dr.json,http://54.197.185.130/DepthDuration/depth_discrimination_MTurk/DepthDiscrim_HTML.html#1,1,1366,657,1366,768,6-12-2021,7-25-44,16,depth_discrimination_stimuli/002445_2014-06-28_20-32-16_260595134347_rgbf000029-resize_4/002445_2014-06-28_20-32-16_260595134347_rgbf000029-resize_4-target.png,depth_discrimination_stimuli/002043_2014-06-24_20-29-38_260595134347_rgbf000039-resize_4/002043_2014-06-24_20-29-38_260595134347_rgbf000039-resize_4-target.png,1000,2.5315,2.8435,1,1752,516,997,499,1003,502,feet,,,,,1078089,1209086,36
529702,DepthScenes,duration_discrimination,discrim_jsons/d0_dr.json,http://54.197.185.130/DepthDuration/depth_discrimination_MTurk/DepthDiscrim_HTML.html#1,1,1366,657,1366,768,6-12-2021,7-25-44,17,depth_discrimination_stimuli/003395_2014-05-20_15-39-18_094959634447_rgbf000101-resize_0/003395_2014-05-20_15-39-18_094959634447_rgbf000101-resize_0-target.png,depth_discrimination_stimuli/001540_2014-06-20_17-01-05_260595134347_rgbf000086-resize_2/001540_2014-06-20_17-01-05_260595134347_rgbf000086-resize_2-target.png,250,4.835,1.459,1,776,512,246,496,251,509,feet,,,,,1078089,1209086,36
529702,DepthScenes,duration_discrimination,discrim_jsons/d0_dr.json,http://54.197.185.130/DepthDuration/depth_discrimination_MTurk/DepthDiscrim_HTML.html#1,1,1366,657,1366,768,6-12-2021,7-25-44,18,depth_discrimination_stimuli/001449_2014-06-19_17-01-27_260595134347_rgbf000116-resize_2/001449_2014-06-19_17-01-27_260595134347_rgbf000116-resize_2-target.png,depth_discrimination_stimuli/002630_2014-06-24_14-47-50_094959634447_rgbf000055-resize_1/002630_2014-06-24_14-47-50_094959634447_rgbf000055-resize_1-target.png,1000,3.452,3.0095,0,1519,504,1009,493,1000,495,feet,,,,,1078089,1209086,36
529702,DepthScenes,duration_discrimination,discrim_jsons/d0_dr.json,http://54.197.185.130/DepthDuration/depth_discrimination_MTurk/DepthDiscrim_HTML.html#1,1,1366,657,1366,768,6-12-2021,7-25-44,19,depth_discrimination_stimuli/001555_2014-06-20_17-12-10_260595134347_rgbf000065-resize_4/001555_2014-06-20_17-12-10_260595134347_rgbf000065-resize_4-target.png,depth_discrimination_stimuli/000943_2014-06-09_19-31-07_260595134347_rgbf000128-resize_1/000943_2014-06-09_19-31-07_260595134347_rgbf000128-resize_1-target.png,250,1.633,1.9765,0,774,506,250,497,250,508,feet,,,,,1078089,1209086,36
529702,DepthScenes,duration_discrimination,discrim_jsons/d0_dr.json,http://54.197.185.130/DepthDuration/depth_discrimination_MTurk/DepthDiscrim_HTML.html#1,1,1366,657,1366,768,6-12-2021,7-25-44,20,depth_discrimination_stimuli/001808_2014-06-26_20-50-58_260595134347_rgbf000029-resize_1/001808_2014-06-26_20-50-58_260595134347_rgbf000029-resize_1-target.png,depth_discrimination_stimuli/003621_2014-05-23_18-06-08_094959634447_rgbf000101-resize_1/003621_2014-05-23_18-06-08_094959634447_rgbf000101-resize_1-target.png,1000,4.249,3.9835,0,1750,500,1008,499,999,502,feet,,,,,1078089,1209086,36
529702,DepthScenes,duration_discrimination,discrim_jsons/d0_dr.json,http://54.197.185.130/DepthDuration/depth_discrimination_MTurk/DepthDiscrim_HTML.html#1,1,1366,657,1366,768,6-12-2021,7-25-44,21,depth_discrimination_stimuli/000691_2014-06-08_13-08-50_260595134347_rgbf000132-resize_3/000691_2014-06-08_13-08-50_260595134347_rgbf000132-resize_3-target.png,depth_discrimination_stimuli/000137_2014-05-20_17-04-49_260595134347_rgbf000120-resize_1/000137_2014-05-20_17-04-49_260595134347_rgbf000120-resize_1-target.png,1000,4.153,3.786,0,1762,515,1001,500,1000,500,feet,,,,,1078089,1209086,36
529702,DepthScenes,duration_discrimination,discrim_jsons/d0_dr.json,http://54.197.185.130/DepthDuration/depth_discrimination_MTurk/DepthDiscrim_HTML.html#1,1,1366,657,1366,768,6-12-2021,7-25-44,22,depth_discrimination_stimuli/002509_2014-06-24_13-19-22_094959634447_rgbf000077-resize_0/002509_2014-06-24_13-19-22_094959634447_rgbf000077-resize_0-target.png,depth_discrimination_stimuli/002344_2014-06-28_20-06-29_260595134347_rgbf000030-resize_1/002344_2014-06-28_20-06-29_260595134347_rgbf000030-resize_1-target.png,1000,1.3065,1.5795,1,2025,507,994,511,998,501,feet,,,,,1078089,1209086,36
529702,DepthScenes,duration_discrimination,discrim_jsons/d0_dr.json,http://54.197.185.130/DepthDuration/depth_discrimination_MTurk/DepthDiscrim_HTML.html#1,1,1366,657,1366,768,6-12-2021,7-25-44,23,depth_discrimination_stimuli/002784_2014-06-22_19-26-30_094959634447_rgbf000083-resize_3/002784_2014-06-22_19-26-30_094959634447_rgbf000083-resize_3-target.png,depth_discrimination_stimuli/001532_2014-06-20_16-50-41_260595134347_rgbf000081-resize_4/001532_2014-06-20_16-50-41_260595134347_rgbf000081-resize_4-target.png,250,1.8046666666667,1.5758333333333,1,783,507,251,505,252,486,feet,,,,,1078089,1209086,36
529702,DepthScenes,duration_discrimination,discrim_jsons/d0_dr.json,http://54.197.185.130/DepthDuration/depth_discrimination_MTurk/DepthDiscrim_HTML.html#1,1,1366,657,1366,768,6-12-2021,7-25-44,24,depth_discrimination_stimuli/000409_2014-06-04_19-23-33_260595134347_rgbf000067-resize_0/000409_2014-06-04_19-23-33_260595134347_rgbf000067-resize_0-target.png,depth_discrimination_stimuli/002464_2014-06-28_20-36-57_260595134347_rgbf000029-resize_0/002464_2014-06-28_20-36-57_260595134347_rgbf000029-resize_0-target.png,250,3.7335,3.9525,0,815,515,245,510,241,507,feet,,,,,1078089,1209086,36
529702,DepthScenes,duration_discrimination,discrim_jsons/d0_dr.json,http://54.197.185.130/DepthDuration/depth_discrimination_MTurk/DepthDiscrim_HTML.html#1,1,1366,657,1366,768,6-12-2021,7-25-44,25,depth_discrimination_stimuli/000665_2014-06-09_20-42-35_260595134347_rgbf000110-resize_1/000665_2014-06-09_20-42-35_260595134347_rgbf000110-resize_1-target.png,depth_discrimination_stimuli/001214_2014-06-17_16-13-55_260595134347_rgbf000111-resize_0/001214_2014-06-17_16-13-55_260595134347_rgbf000111-resize_0-target.png,1000,3.057,2.6505,1,1804,506,1001,495,1016,493,feet,,,,,1078089,1209086,36
529702,DepthScenes,duration_discrimination,discrim_jsons/d0_dr.json,http://54.197.185.130/DepthDuration/depth_discrimination_MTurk/DepthDiscrim_HTML.html#1,1,1366,657,1366,768,6-12-2021,7-25-44,26,depth_discrimination_stimuli/001164_2014-06-17_15-35-46_260595134347_rgbf000085-resize_3/001164_2014-06-17_15-35-46_260595134347_rgbf000085-resize_3-target.png,depth_discrimination_stimuli/003228_2014-05-14_13-42-35_094959634447_rgbf000101-resize_1/003228_2014-05-14_13-42-35_094959634447_rgbf000101-resize_1-target.png,1000,2.354,1.968,1,1989,513,1000,502,1013,478,feet,,,,,1078089,1209086,36
529702,DepthScenes,duration_discrimination,discrim_jsons/d0_dr.json,http://54.197.185.130/DepthDuration/depth_discrimination_MTurk/DepthDiscrim_HTML.html#1,1,1366,657,1366,768,6-12-2021,7-25-44,27,depth_discrimination_stimuli/002953_2014-06-08_17-32-18_094959634447_rgbf000059-resize_5/002953_2014-06-08_17-32-18_094959634447_rgbf000059-resize_5-target.png,depth_discrimination_stimuli/001571_2014-06-20_17-21-32_260595134347_rgbf000089-resize_1/001571_2014-06-20_17-21-32_260595134347_rgbf000089-resize_1-target.png,250,1.551,1.86,0,790,504,253,505,245,509,feet,,,,,1078089,1209086,36
529702,DepthScenes,duration_discrimination,discrim_jsons/d0_dr.json,http://54.197.185.130/DepthDuration/depth_discrimination_MTurk/DepthDiscrim_HTML.html#1,1,1366,657,1366,768,6-12-2021,7-25-44,28,depth_discrimination_stimuli/002700_2014-06-22_11-27-02_094959634447_rgbf000124-resize_3/002700_2014-06-22_11-27-02_094959634447_rgbf000124-resize_3-target.png,depth_discrimination_stimuli/000800_2014-06-08_22-42-09_260595134347_rgbf000095-resize_3/000800_2014-06-08_22-42-09_260595134347_rgbf000095-resize_3-target.png,250,3.301,2.8,1,785,506,258,494,256,501,feet,,,,,1078089,1209086,36
529702,DepthScenes,duration_discrimination,discrim_jsons/d0_dr.json,http://54.197.185.130/DepthDuration/depth_discrimination_MTurk/DepthDiscrim_HTML.html#1,1,1366,657,1366,768,6-12-2021,7-25-44,29,depth_discrimination_stimuli/003546_2014-05-22_15-48-53_094959634447_rgbf004816-resize_3/003546_2014-05-22_15-48-53_094959634447_rgbf004816-resize_3-target.png,depth_discrimination_stimuli/003010_2014-06-15_12-54-35_094959634447_rgbf000112-resize_0/003010_2014-06-15_12-54-35_094959634447_rgbf000112-resize_0-target.png,250,2.62625,3.1185,0,855,509,247,504,244,499,feet,,,,,1078089,1209086,36
529702,DepthScenes,duration_discrimination,discrim_jsons/d0_dr.json,http://54.197.185.130/DepthDuration/depth_discrimination_MTurk/DepthDiscrim_HTML.html#1,1,1366,657,1366,768,6-12-2021,7-25-44,30,depth_discrimination_stimuli/000735_2014-06-08_18-23-50_260595134347_rgbf000163-resize_2/000735_2014-06-08_18-23-50_260595134347_rgbf000163-resize_2-target.png,depth_discrimination_stimuli/003288_2014-05-14_21-50-30_094959634447_rgbf000028-resize_3/003288_2014-05-14_21-50-30_094959634447_rgbf000028-resize_3-target.png,1000,4.1695,3.877,1,1694,505,1003,497,1007,501,feet,,,,,1078089,1209086,36
529702,DepthScenes,duration_discrimination,discrim_jsons/d0_dr.json,http://54.197.185.130/DepthDuration/depth_discrimination_MTurk/DepthDiscrim_HTML.html#1,1,1366,657,1366,768,6-12-2021,7-25-44,31,depth_discrimination_stimuli/001170_2014-06-17_15-43-44_260595134347_rgbf000096-resize_6/001170_2014-06-17_15-43-44_260595134347_rgbf000096-resize_6-target.png,depth_discrimination_stimuli/002364_2014-06-28_20-11-05_260595134347_rgbf000042-resize_0/002364_2014-06-28_20-11-05_260595134347_rgbf000042-resize_0-target.png,1000,1.191,4.682,0,1839,514,991,499,997,500,feet,,,,,1078089,1209086,36
529702,DepthScenes,duration_discrimination,discrim_jsons/d0_dr.json,http://54.197.185.130/DepthDuration/depth_discrimination_MTurk/DepthDiscrim_HTML.html#1,1,1366,657,1366,768,6-12-2021,7-25-44,32,depth_discrimination_stimuli/001016_2014-06-09_16-16-10_260595134347_rgbf000112-resize_5/001016_2014-06-09_16-16-10_260595134347_rgbf000112-resize_5-target.png,depth_discrimination_stimuli/001618_2014-06-20_11-37-31_260595134347_rgbf000027-resize_3/001618_2014-06-20_11-37-31_260595134347_rgbf000027-resize_3-target.png,1000,1.6565,1.8725,1,1700,503,1014,488,1010,486,feet,,,,,1078089,1209086,36
529702,DepthScenes,duration_discrimination,discrim_jsons/d0_dr.json,http://54.197.185.130/DepthDuration/depth_discrimination_MTurk/DepthDiscrim_HTML.html#1,1,1366,657,1366,768,6-12-2021,7-25-44,33,depth_discrimination_stimuli/000739_2014-06-08_18-45-58_260595134347_rgbf000068-resize_1/000739_2014-06-08_18-45-58_260595134347_rgbf000068-resize_1-target.png,depth_discrimination_stimuli/002995_2014-06-15_12-31-26_094959634447_rgbf000150-resize_1/002995_2014-06-15_12-31-26_094959634447_rgbf000150-resize_1-target.png,250,3.534,3.836,1,1258,511,246,524,220,508,feet,,,,,1078089,1209086,36
529702,DepthScenes,duration_discrimination,discrim_jsons/d0_dr.json,http://54.197.185.130/DepthDuration/depth_discrimination_MTurk/DepthDiscrim_HTML.html#1,1,1366,657,1366,768,6-12-2021,7-25-44,34,depth_discrimination_stimuli/001092_2014-06-15_17-34-58_260595134347_rgbf000171-resize_3/001092_2014-06-15_17-34-58_260595134347_rgbf000171-resize_3-target.png,depth_discrimination_stimuli/000522_2014-06-08_13-35-06_260595134347_rgbf000244-resize_1/000522_2014-06-08_13-35-06_260595134347_rgbf000244-resize_1-target.png,1000,2.6935,2.3715,1,1770,514,1001,493,1002,492,feet,,,,,1078089,1209086,36
529702,DepthScenes,duration_discrimination,discrim_jsons/d0_dr.json,http://54.197.185.130/DepthDuration/depth_discrimination_MTurk/DepthDiscrim_HTML.html#1,1,1366,657,1366,768,6-12-2021,7-25-44,35,depth_discrimination_stimuli/002657_2014-06-13_15-29-54_094959634447_rgbf000150-resize_1/002657_2014-06-13_15-29-54_094959634447_rgbf000150-resize_1-target.png,depth_discrimination_stimuli/002748_2014-06-22_19-07-22_094959634447_rgbf000078-resize_1/002748_2014-06-22_19-07-22_094959634447_rgbf000078-resize_1-target.png,1000,4.919,4.6705,0,1606,522,984,494,1000,500,feet,,,,,1078089,1209086,36
529702,DepthScenes,duration_discrimination,discrim_jsons/d0_dr.json,http://54.197.185.130/DepthDuration/depth_discrimination_MTurk/DepthDiscrim_HTML.html#1,1,1366,657,1366,768,6-12-2021,7-25-44,36,depth_discrimination_stimuli/002375_2014-06-28_20-13-44_260595134347_rgbf000032-resize_1/002375_2014-06-28_20-13-44_260595134347_rgbf000032-resize_1-target.png,depth_discrimination_stimuli/001570_2014-06-20_17-21-09_260595134347_rgbf000135-resize_4/001570_2014-06-20_17-21-09_260595134347_rgbf000135-resize_4-target.png,1000,4.0175,4.467,0,1827,506,998,499,997,508,feet,,,,,1078089,1209086,36
529702,DepthScenes,duration_discrimination,discrim_jsons/d0_dr.json,http://54.197.185.130/DepthDuration/depth_discrimination_MTurk/DepthDiscrim_HTML.html#1,1,1366,657,1366,768,6-12-2021,7-25-44,37,depth_discrimination_stimuli/002989_2014-06-15_12-25-03_094959634447_rgbf000150-resize_3/002989_2014-06-15_12-25-03_094959634447_rgbf000150-resize_3-target.png,depth_discrimination_stimuli/001724_2014-06-26_19-28-50_260595134347_rgbf000037-resize_7/001724_2014-06-26_19-28-50_260595134347_rgbf000037-resize_7-target.png,250,4.1975,3.827,1,1123,515,246,494,251,496,feet,,,,,1078089,1209086,36
529702,DepthScenes,duration_discrimination,discrim_jsons/d0_dr.json,http://54.197.185.130/DepthDuration/depth_discrimination_MTurk/DepthDiscrim_HTML.html#1,1,1366,657,1366,768,6-12-2021,7-25-44,38,depth_discrimination_stimuli/000749_2014-06-08_21-55-06_260595134347_rgbf000070-resize_2/000749_2014-06-08_21-55-06_260595134347_rgbf000070-resize_2-target.png,depth_discrimination_stimuli/002875_2014-06-01_15-19-00_094959634447_rgbf000151-resize_1/002875_2014-06-01_15-19-00_094959634447_rgbf000151-resize_1-target.png,1000,2.331,1.9675,0,1651,517,992,495,1007,504,feet,,,,,1078089,1209086,36
529702,DepthScenes,duration_discrimination,discrim_jsons/d0_dr.json,http://54.197.185.130/DepthDuration/depth_discrimination_MTurk/DepthDiscrim_HTML.html#1,1,1366,657,1366,768,6-12-2021,7-25-44,39,depth_discrimination_stimuli/003534_2014-05-22_15-06-10_094959634447_rgbf000102-resize_4/003534_2014-05-22_15-06-10_094959634447_rgbf000102-resize_4-target.png,depth_discrimination_stimuli/002272_2014-06-28_18-53-56_260595134347_rgbf000067-resize_2/002272_2014-06-28_18-53-56_260595134347_rgbf000067-resize_2-target.png,250,1.426,1.138,0,764,506,246,518,241,490,feet,,,,,1078089,1209086,36
529702,DepthScenes,duration_discrimination,discrim_jsons/d0_dr.json,http://54.197.185.130/DepthDuration/depth_discrimination_MTurk/DepthDiscrim_HTML.html#1,1,1366,657,1366,768,6-12-2021,7-25-44,40,depth_discrimination_stimuli/001059_2014-06-08_21-53-27_260595134347_rgbf000061-resize_4/001059_2014-06-08_21-53-27_260595134347_rgbf000061-resize_4-target.png,depth_discrimination_stimuli/000906_2014-06-08_13-35-43_260595134347_rgbf000155-resize_1/000906_2014-06-08_13-35-43_260595134347_rgbf000155-resize_1-target.png,1000,2.4185,2.849,0,1693,512,999,490,1020,480,feet,,,,,1078089,1209086,36
529702,DepthScenes,duration_discrimination,discrim_jsons/d0_dr.json,http://54.197.185.130/DepthDuration/depth_discrimination_MTurk/DepthDiscrim_HTML.html#1,1,1366,657,1366,768,6-12-2021,7-25-44,41,depth_discrimination_stimuli/001264_2014-06-16_16-10-23_260595134347_rgbf000109-resize_1/001264_2014-06-16_16-10-23_260595134347_rgbf000109-resize_1-target.png,depth_discrimination_stimuli/002340_2014-06-28_20-05-46_260595134347_rgbf000113-resize_0/002340_2014-06-28_20-05-46_260595134347_rgbf000113-resize_0-target.png,250,2.9665,2.4735,0,973,506,262,488,260,496,feet,,,,,1078089,1209086,36
529702,DepthScenes,duration_discrimination,discrim_jsons/d0_dr.json,http://54.197.185.130/DepthDuration/depth_discrimination_MTurk/DepthDiscrim_HTML.html#1,1,1366,657,1366,768,6-12-2021,7-25-44,42,depth_discrimination_stimuli/003081_2014-06-15_15-19-16_094959634447_rgbf000150-resize_1/003081_2014-06-15_15-19-16_094959634447_rgbf000150-resize_1-target.png,depth_discrimination_stimuli/000917_2014-06-09_22-45-29_260595134347_rgbf000149-resize_3/000917_2014-06-09_22-45-29_260595134347_rgbf000149-resize_3-target.png,1000,3.9125,4.1865,0,1654,512,1004,490,1000,510,feet,,,,,1078089,1209086,36
529702,DepthScenes,duration_discrimination,discrim_jsons/d0_dr.json,http://54.197.185.130/DepthDuration/depth_discrimination_MTurk/DepthDiscrim_HTML.html#1,1,1366,657,1366,768,6-12-2021,7-25-44,43,depth_discrimination_stimuli/000569_2014-06-09_22-51-47_260595134347_rgbf000141-resize_3/000569_2014-06-09_22-51-47_260595134347_rgbf000141-resize_3-target.png,depth_discrimination_stimuli/000868_2014-06-09_20-49-52_260595134347_rgbf000064-resize_4/000868_2014-06-09_20-49-52_260595134347_rgbf000064-resize_4-target.png,250,4.512,1.2815,1,1186,515,245,501,244,510,feet,,,,,1078089,1209086,36
529702,DepthScenes,duration_discrimination,discrim_jsons/d0_dr.json,http://54.197.185.130/DepthDuration/depth_discrimination_MTurk/DepthDiscrim_HTML.html#1,1,1366,657,1366,768,6-12-2021,7-25-44,44,depth_discrimination_stimuli/002988_2014-06-15_12-24-20_094959634447_rgbf000150-resize_1/002988_2014-06-15_12-24-20_094959634447_rgbf000150-resize_1-target.png,depth_discrimination_stimuli/000447_2014-06-08_16-15-46_260595134347_rgbf000130-resize_1/000447_2014-06-08_16-15-46_260595134347_rgbf000130-resize_1-target.png,250,4.767,4.479,1,1093,517,250,489,247,514,feet,,,,,1078089,1209086,36
529702,DepthScenes,duration_discrimination,discrim_jsons/d0_dr.json,http://54.197.185.130/DepthDuration/depth_discrimination_MTurk/DepthDiscrim_HTML.html#1,1,1366,657,1366,768,6-12-2021,7-25-44,45,depth_discrimination_stimuli/000457_2014-06-08_16-52-43_260595134347_rgbf000199-resize_1/000457_2014-06-08_16-52-43_260595134347_rgbf000199-resize_1-target.png,depth_discrimination_stimuli/002365_2014-06-28_20-11-21_260595134347_rgbf000102-resize_1/002365_2014-06-28_20-11-21_260595134347_rgbf000102-resize_1-target.png,250,3.649,4.013,0,1330,508,253,501,240,504,feet,,,,,1078089,1209086,36
529702,DepthScenes,duration_discrimination,discrim_jsons/d0_dr.json,http://54.197.185.130/DepthDuration/depth_discrimination_MTurk/DepthDiscrim_HTML.html#1,1,1366,657,1366,768,6-12-2021,7-25-44,46,depth_discrimination_stimuli/002118_2014-06-25_20-32-08_260595134347_rgbf000078-resize_1/002118_2014-06-25_20-32-08_260595134347_rgbf000078-resize_1-target.png,depth_discrimination_stimuli/000542_2014-06-08_18-27-08_260595134347_rgbf000118-resize_1/000542_2014-06-08_18-27-08_260595134347_rgbf000118-resize_1-target.png,250,2.646,3,0,1076,517,253,500,237,494,feet,,,,,1078089,1209086,36
529702,DepthScenes,duration_discrimination,discrim_jsons/d0_dr.json,http://54.197.185.130/DepthDuration/depth_discrimination_MTurk/DepthDiscrim_HTML.html#1,1,1366,657,1366,768,6-12-2021,7-25-44,47,depth_discrimination_stimuli/000682_2014-06-08_23-14-58_260595134347_rgbf000041-resize_5/000682_2014-06-08_23-14-58_260595134347_rgbf000041-resize_5-target.png,depth_discrimination_stimuli/000866_2014-06-09_20-45-42_260595134347_rgbf000139-resize_1/000866_2014-06-09_20-45-42_260595134347_rgbf000139-resize_1-target.png,1000,2.724,3.2155,0,1809,507,1005,505,991,515,feet,,,,,1078089,1209086,36
529702,DepthScenes,duration_discrimination,discrim_jsons/d0_dr.json,http://54.197.185.130/DepthDuration/depth_discrimination_MTurk/DepthDiscrim_HTML.html#1,1,1366,657,1366,768,6-12-2021,7-25-44,48,depth_discrimination_stimuli/002323_2014-06-28_20-01-54_260595134347_rgbf000051-resize_4/002323_2014-06-28_20-01-54_260595134347_rgbf000051-resize_4-target.png,depth_discrimination_stimuli/000736_2014-06-08_18-24-15_260595134347_rgbf000206-resize_3/000736_2014-06-08_18-24-15_260595134347_rgbf000206-resize_3-target.png,1000,3.731,3.515,1,1784,502,1000,514,1006,493,feet,,,,,1078089,1209086,36
529702,DepthScenes,duration_discrimination,discrim_jsons/d0_dr.json,http://54.197.185.130/DepthDuration/depth_discrimination_MTurk/DepthDiscrim_HTML.html#1,1,1366,657,1366,768,6-12-2021,7-25-44,49,depth_discrimination_stimuli/001235_2014-06-17_16-37-36_260595134347_rgbf000084-resize_4/001235_2014-06-17_16-37-36_260595134347_rgbf000084-resize_4-target.png,depth_discrimination_stimuli/003423_2014-05-21_10-23-26_094959634447_rgbf002665-resize_2/003423_2014-05-21_10-23-26_094959634447_rgbf002665-resize_2-target.png,250,3.6605,3.2575,1,786,506,263,484,266,504,feet,,,,,1078089,1209086,36
529702,DepthScenes,duration_discrimination,discrim_jsons/d0_dr.json,http://54.197.185.130/DepthDuration/depth_discrimination_MTurk/DepthDiscrim_HTML.html#1,1,1366,657,1366,768,6-12-2021,7-25-44,50,depth_discrimination_stimuli/002568_2014-06-24_13-59-21_094959634447_rgbf000062-resize_4/002568_2014-06-24_13-59-21_094959634447_rgbf000062-resize_4-target.png,depth_discrimination_stimuli/000636_2014-06-08_16-39-02_260595134347_rgbf000108-resize_4/000636_2014-06-08_16-39-02_260595134347_rgbf000108-resize_4-target.png,1000,3.015,2.682,1,1820,517,990,499,1002,500,feet,,,,,1078089,1209086,36
529702,DepthScenes,duration_discrimination,discrim_jsons/d0_dr.json,http://54.197.185.130/DepthDuration/depth_discrimination_MTurk/DepthDiscrim_HTML.html#1,1,1366,657,1366,768,6-12-2021,7-25-44,51,depth_discrimination_stimuli/001289_2014-06-16_16-25-52_260595134347_rgbf000067-resize_1/001289_2014-06-16_16-25-52_260595134347_rgbf000067-resize_1-target.png,depth_discrimination_stimuli/002788_2014-06-22_19-36-03_094959634447_rgbf000088-resize_2/002788_2014-06-22_19-36-03_094959634447_rgbf000088-resize_2-target.png,250,1.8835,1.6465,0,1007,514,245,496,260,486,feet,,,,,1078089,1209086,36
529702,DepthScenes,duration_discrimination,discrim_jsons/d0_dr.json,http://54.197.185.130/DepthDuration/depth_discrimination_MTurk/DepthDiscrim_HTML.html#1,1,1366,657,1366,768,6-12-2021,7-25-44,52,depth_discrimination_stimuli/000549_2014-06-08_22-10-24_260595134347_rgbf000247-resize_3/000549_2014-06-08_22-10-24_260595134347_rgbf000247-resize_3-target.png,depth_discrimination_stimuli/002139_2014-06-25_21-19-37_260595134347_rgbf000124-resize_2/002139_2014-06-25_21-19-37_260595134347_rgbf000124-resize_2-target.png,1000,1.841,2.107,0,1777,523,993,490,1000,497,feet,,,,,1078089,1209086,36
529702,DepthScenes,duration_discrimination,discrim_jsons/d0_dr.json,http://54.197.185.130/DepthDuration/depth_discrimination_MTurk/DepthDiscrim_HTML.html#1,1,1366,657,1366,768,6-12-2021,7-25-44,53,depth_discrimination_stimuli/001810_2014-06-26_20-51-35_260595134347_rgbf000040-resize_3/001810_2014-06-26_20-51-35_260595134347_rgbf000040-resize_3-target.png,depth_discrimination_stimuli/000927_2014-06-09_16-32-30_260595134347_rgbf000123-resize_3/000927_2014-06-09_16-32-30_260595134347_rgbf000123-resize_3-target.png,1000,2.2525,2.6785,0,2081,509,1000,502,1000,501,feet,,,,,1078089,1209086,36
529702,DepthScenes,duration_discrimination,discrim_jsons/d0_dr.json,http://54.197.185.130/DepthDuration/depth_discrimination_MTurk/DepthDiscrim_HTML.html#1,1,1366,657,1366,768,6-12-2021,7-25-44,54,depth_discrimination_stimuli/002199_2014-06-28_18-33-56_260595134347_rgbf000074-resize_0/002199_2014-06-28_18-33-56_260595134347_rgbf000074-resize_0-target.png,depth_discrimination_stimuli/000368_2014-06-09_15-53-01_260595134347_rgbf000155-resize_2/000368_2014-06-09_15-53-01_260595134347_rgbf000155-resize_2-target.png,1000,1.996,2.486,0,1820,520,1000,492,994,502,feet,,,,,1078089,1209086,36
529702,DepthScenes,duration_discrimination,discrim_jsons/d0_dr.json,http://54.197.185.130/DepthDuration/depth_discrimination_MTurk/DepthDiscrim_HTML.html#1,1,1366,657,1366,768,6-12-2021,7-25-44,55,depth_discrimination_stimuli/000878_2014-06-08_22-52-45_260595134347_rgbf000045-resize_2/000878_2014-06-08_22-52-45_260595134347_rgbf000045-resize_2-target.png,depth_discrimination_stimuli/003338_2014-05-20_11-01-23_094959634447_rgbf000051-resize_6/003338_2014-05-20_11-01-23_094959634447_rgbf000051-resize_6-target.png,250,2.092,1.693,1,1108,512,251,489,255,510,feet,,,,,1078089,1209086,36
529702,DepthScenes,duration_discrimination,discrim_jsons/d0_dr.json,http://54.197.185.130/DepthDuration/depth_discrimination_MTurk/DepthDiscrim_HTML.html#1,1,1366,657,1366,768,6-12-2021,7-25-44,56,depth_discrimination_stimuli/002660_2014-06-13_15-44-18_094959634447_rgbf001878-resize_2/002660_2014-06-13_15-44-18_094959634447_rgbf001878-resize_2-target.png,depth_discrimination_stimuli/000009_2014-05-26_14-32-05_260595134347_rgbf000034-resize_3/000009_2014-05-26_14-32-05_260595134347_rgbf000034-resize_3-target.png,250,3.576,3.8715,0,1289,516,250,495,255,486,feet,,,,,1078089,1209086,36
529702,DepthScenes,duration_discrimination,discrim_jsons/d0_dr.json,http://54.197.185.130/DepthDuration/depth_discrimination_MTurk/DepthDiscrim_HTML.html#1,1,1366,657,1366,768,6-12-2021,7-25-44,57,depth_discrimination_stimuli/001167_2014-06-17_15-38-07_260595134347_rgbf000108-resize_0/001167_2014-06-17_15-38-07_260595134347_rgbf000108-resize_0-target.png,depth_discrimination_stimuli/003495_2014-05-21_16-01-51_094959634447_rgbf000100-resize_3/003495_2014-05-21_16-01-51_094959634447_rgbf000100-resize_3-target.png,1000,1.8505,1.6255,1,1798,514,996,491,1013,491,feet,,,,,1078089,1209086,36
529702,DepthScenes,duration_discrimination,discrim_jsons/d0_dr.json,http://54.197.185.130/DepthDuration/depth_discrimination_MTurk/DepthDiscrim_HTML.html#1,1,1366,657,1366,768,6-12-2021,7-25-44,58,depth_discrimination_stimuli/003070_2014-06-15_14-58-27_094959634447_rgbf000150-resize_3/003070_2014-06-15_14-58-27_094959634447_rgbf000150-resize_3-target.png,depth_discrimination_stimuli/000758_2014-06-08_22-05-08_260595134347_rgbf000085-resize_0/000758_2014-06-08_22-05-08_260595134347_rgbf000085-resize_0-target.png,250,2.9415,3.381,0,782,505,269,490,240,500,feet,,,,,1078089,1209086,36
529702,DepthScenes,duration_discrimination,discrim_jsons/d0_dr.json,http://54.197.185.130/DepthDuration/depth_discrimination_MTurk/DepthDiscrim_HTML.html#1,1,1366,657,1366,768,6-12-2021,7-25-44,59,depth_discrimination_stimuli/001199_2014-06-17_16-03-48_260595134347_rgbf000077-resize_0/001199_2014-06-17_16-03-48_260595134347_rgbf000077-resize_0-target.png,depth_discrimination_stimuli/001029_2014-06-08_13-17-57_260595134347_rgbf000065-resize_1/001029_2014-06-08_13-17-57_260595134347_rgbf000065-resize_1-target.png,1000,3.4375,3.0835,1,1906,512,996,500,1010,500,feet,,,,,1078089,1209086,36
529702,DepthScenes,duration_discrimination,discrim_jsons/d0_dr.json,http://54.197.185.130/DepthDuration/depth_discrimination_MTurk/DepthDiscrim_HTML.html#1,1,1366,657,1366,768,6-12-2021,7-25-44,60,depth_discrimination_stimuli/000929_2014-06-09_16-33-19_260595134347_rgbf000139-resize_0/000929_2014-06-09_16-33-19_260595134347_rgbf000139-resize_0-target.png,depth_discrimination_stimuli/000830_2014-06-04_19-49-31_260595134347_rgbf000096-resize_2/000830_2014-06-04_19-49-31_260595134347_rgbf000096-resize_2-target.png,1000,2.868,2.6353333333333,1,1929,510,1016,482,1002,490,feet,,,,,1078089,1209086,36
529702,DepthScenes,duration_discrimination,discrim_jsons/d0_dr.json,http://54.197.185.130/DepthDuration/depth_discrimination_MTurk/DepthDiscrim_HTML.html#1,1,1366,657,1366,768,6-12-2021,7-25-44,61,depth_discrimination_stimuli/003292_2014-05-14_21-53-49_094959634447_rgbf000100-resize_2/003292_2014-05-14_21-53-49_094959634447_rgbf000100-resize_2-target.png,depth_discrimination_stimuli/002805_2014-06-22_19-54-03_094959634447_rgbf000079-resize_1/002805_2014-06-22_19-54-03_094959634447_rgbf000079-resize_1-target.png,250,3.4815,3.144,0,1439,502,253,496,253,499,feet,,,,,1078089,1209086,36
529702,DepthScenes,duration_discrimination,discrim_jsons/d0_dr.json,http://54.197.185.130/DepthDuration/depth_discrimination_MTurk/DepthDiscrim_HTML.html#1,1,1366,657,1366,768,6-12-2021,7-25-44,62,depth_discrimination_stimuli/001498_2014-06-19_17-45-14_260595134347_rgbf000129-resize_4/001498_2014-06-19_17-45-14_260595134347_rgbf000129-resize_4-target.png,depth_discrimination_stimuli/003125_2014-05-12_10-39-22_094959634447_rgbf000100-resize_0/003125_2014-05-12_10-39-22_094959634447_rgbf000100-resize_0-target.png,250,1.4075,4.8655,0,783,502,252,503,257,499,feet,,,,,1078089,1209086,36
529702,DepthScenes,duration_discrimination,discrim_jsons/d0_dr.json,http://54.197.185.130/DepthDuration/depth_discrimination_MTurk/DepthDiscrim_HTML.html#1,1,1366,657,1366,768,6-12-2021,7-25-44,63,depth_discrimination_stimuli/000953_2014-06-08_11-42-19_260595134347_rgbf000083-resize_0/000953_2014-06-08_11-42-19_260595134347_rgbf000083-resize_0-target.png,depth_discrimination_stimuli/000787_2014-06-08_22-33-53_260595134347_rgbf000175-resize_1/000787_2014-06-08_22-33-53_260595134347_rgbf000175-resize_1-target.png,1000,1.369,4.784,0,1713,511,996,504,995,496,feet,,,,,1078089,1209086,36
529702,DepthScenes,duration_discrimination,discrim_jsons/d0_dr.json,http://54.197.185.130/DepthDuration/depth_discrimination_MTurk/DepthDiscrim_HTML.html#1,1,1366,657,1366,768,6-12-2021,7-25-44,64,depth_discrimination_stimuli/000720_2014-06-08_18-37-27_260595134347_rgbf000203-resize_4/000720_2014-06-08_18-37-27_260595134347_rgbf000203-resize_4-target.png,depth_discrimination_stimuli/002637_2014-06-24_14-51-13_094959634447_rgbf000066-resize_4/002637_2014-06-24_14-51-13_094959634447_rgbf000066-resize_4-target.png,250,1.558,1.9955,0,827,517,239,507,254,495,feet,,,,,1078089,1209086,36
529702,DepthScenes,duration_discrimination,discrim_jsons/d0_dr.json,http://54.197.185.130/DepthDuration/depth_discrimination_MTurk/DepthDiscrim_HTML.html#1,1,1366,657,1366,768,6-12-2021,7-25-44,65,depth_discrimination_stimuli/000521_2014-06-08_13-34-35_260595134347_rgbf000191-resize_2/000521_2014-06-08_13-34-35_260595134347_rgbf000191-resize_2-target.png,depth_discrimination_stimuli/000788_2014-06-08_22-34-36_260595134347_rgbf000131-resize_1/000788_2014-06-08_22-34-36_260595134347_rgbf000131-resize_1-target.png,1000,3.0385,3.359,0,1990,515,997,499,993,506,feet,,,,,1078089,1209086,36
529702,DepthScenes,duration_discrimination,discrim_jsons/d0_dr.json,http://54.197.185.130/DepthDuration/depth_discrimination_MTurk/DepthDiscrim_HTML.html#1,1,1366,657,1366,768,6-12-2021,7-25-44,66,depth_discrimination_stimuli/000780_2014-06-08_22-28-29_260595134347_rgbf000126-resize_1/000780_2014-06-08_22-28-29_260595134347_rgbf000126-resize_1-target.png,depth_discrimination_stimuli/000191_2014-05-12_17-07-38_260595134347_rgbf000199-resize_0/000191_2014-05-12_17-07-38_260595134347_rgbf000199-resize_0-target.png,250,3.3825,3.7995,0,968,505,249,508,239,508,feet,,,,,1078089,1209086,36
529702,DepthScenes,duration_discrimination,discrim_jsons/d0_dr.json,http://54.197.185.130/DepthDuration/depth_discrimination_MTurk/DepthDiscrim_HTML.html#1,1,1366,657,1366,768,6-12-2021,7-25-44,67,depth_discrimination_stimuli/000753_2014-06-08_21-57-44_260595134347_rgbf000123-resize_3/000753_2014-06-08_21-57-44_260595134347_rgbf000123-resize_3-target.png,depth_discrimination_stimuli/003092_2014-06-24_21-01-49_094959634447_rgbf000049-resize_2/003092_2014-06-24_21-01-49_094959634447_rgbf000049-resize_2-target.png,250,1.916,1.666,0,1018,501,253,510,237,514,feet,,,,,1078089,1209086,36
529702,DepthScenes,duration_discrimination,discrim_jsons/d0_dr.json,http://54.197.185.130/DepthDuration/depth_discrimination_MTurk/DepthDiscrim_HTML.html#1,1,1366,657,1366,768,6-12-2021,7-25-44,68,depth_discrimination_stimuli/000869_2014-06-09_20-50-18_260595134347_rgbf000060-resize_3/000869_2014-06-09_20-50-18_260595134347_rgbf000060-resize_3-target.png,depth_discrimination_stimuli/001136_2014-06-17_15-19-41_260595134347_rgbf000076-resize_3/001136_2014-06-17_15-19-41_260595134347_rgbf000076-resize_3-target.png,1000,2.266,1.8655,0,1678,517,1005,499,1002,480,feet,,,,,1078089,1209086,36
529702,DepthScenes,duration_discrimination,discrim_jsons/d0_dr.json,http://54.197.185.130/DepthDuration/depth_discrimination_MTurk/DepthDiscrim_HTML.html#1,1,1366,657,1366,768,6-12-2021,7-25-44,69,depth_discrimination_stimuli/001417_2014-06-19_16-25-36_260595134347_rgbf000115-resize_5/001417_2014-06-19_16-25-36_260595134347_rgbf000115-resize_5-target.png,depth_discrimination_stimuli/003083_2014-06-15_15-21-03_094959634447_rgbf000063-resize_1/003083_2014-06-15_15-21-03_094959634447_rgbf000063-resize_1-target.png,1000,4.6255,4.1405,0,1550,509,1014,483,996,511,feet,,,,,1078089,1209086,36
529702,DepthScenes,duration_discrimination,discrim_jsons/d0_dr.json,http://54.197.185.130/DepthDuration/depth_discrimination_MTurk/DepthDiscrim_HTML.html#1,1,1366,657,1366,768,6-12-2021,7-25-44,70,depth_discrimination_stimuli/000642_2014-06-08_16-59-25_260595134347_rgbf000098-resize_2/000642_2014-06-08_16-59-25_260595134347_rgbf000098-resize_2-target.png,depth_discrimination_stimuli/001815_2014-06-26_20-52-55_260595134347_rgbf000020-resize_0/001815_2014-06-26_20-52-55_260595134347_rgbf000020-resize_0-target.png,250,2.8815,3.3865,0,844,510,241,513,248,494,feet,,,,,1078089,1209086,36
529702,DepthScenes,duration_discrimination,discrim_jsons/d0_dr.json,http://54.197.185.130/DepthDuration/depth_discrimination_MTurk/DepthDiscrim_HTML.html#1,1,1366,657,1366,768,6-12-2021,7-25-44,71,depth_discrimination_stimuli/001617_2014-06-20_11-35-32_260595134347_rgbf000066-resize_1/001617_2014-06-20_11-35-32_260595134347_rgbf000066-resize_1-target.png,depth_discrimination_stimuli/001133_2014-06-17_14-49-16_260595134347_rgbf000100-resize_0/001133_2014-06-17_14-49-16_260595134347_rgbf000100-resize_0-target.png,250,3.791,4.2115,1,822,520,235,499,249,499,feet,,,,,1078089,1209086,36
529702,DepthScenes,duration_discrimination,discrim_jsons/d0_dr.json,http://54.197.185.130/DepthDuration/depth_discrimination_MTurk/DepthDiscrim_HTML.html#1,1,1366,657,1366,768,6-12-2021,7-25-44,72,depth_discrimination_stimuli/002425_2014-06-28_20-27-29_260595134347_rgbf000031-resize_8/002425_2014-06-28_20-27-29_260595134347_rgbf000031-resize_8-target.png,depth_discrimination_stimuli/001181_2014-06-17_15-50-57_260595134347_rgbf000106-resize_4/001181_2014-06-17_15-50-57_260595134347_rgbf000106-resize_4-target.png,1000,3.896,4.149,1,1813,508,998,500,1015,485,feet,,,,,1078089,1209086,36
529702,DepthScenes,duration_discrimination,discrim_jsons/d0_dr.json,http://54.197.185.130/DepthDuration/depth_discrimination_MTurk/DepthDiscrim_HTML.html#1,1,1366,657,1366,768,6-12-2021,7-25-44,73,depth_discrimination_stimuli/001110_2014-06-15_17-25-28_260595134347_rgbf000150-resize_1/001110_2014-06-15_17-25-28_260595134347_rgbf000150-resize_1-target.png,depth_discrimination_stimuli/000555_2014-06-09_22-42-23_260595134347_rgbf000037-resize_4/000555_2014-06-09_22-42-23_260595134347_rgbf000037-resize_4-target.png,1000,1.7115,1.9765,1,1918,502,1005,499,1000,505,feet,,,,,1078089,1209086,36
529702,DepthScenes,duration_discrimination,discrim_jsons/d0_dr.json,http://54.197.185.130/DepthDuration/depth_discrimination_MTurk/DepthDiscrim_HTML.html#1,1,1366,657,1366,768,6-12-2021,7-25-44,74,depth_discrimination_stimuli/001032_2014-06-08_13-23-17_260595134347_rgbf000021-resize_3/001032_2014-06-08_13-23-17_260595134347_rgbf000021-resize_3-target.png,depth_discrimination_stimuli/002790_2014-06-22_19-36-35_094959634447_rgbf000074-resize_4/002790_2014-06-22_19-36-35_094959634447_rgbf000074-resize_4-target.png,250,3.2725,3.512,0,937,510,250,510,252,498,feet,,,,,1078089,1209086,36
529702,DepthScenes,duration_discrimination,discrim_jsons/d0_dr.json,http://54.197.185.130/DepthDuration/depth_discrimination_MTurk/DepthDiscrim_HTML.html#1,1,1366,657,1366,768,6-12-2021,7-25-44,75,depth_discrimination_stimuli/000773_2014-06-08_22-24-54_260595134347_rgbf000093-resize_1/000773_2014-06-08_22-24-54_260595134347_rgbf000093-resize_1-target.png,depth_discrimination_stimuli/000742_2014-06-08_18-48-09_260595134347_rgbf000164-resize_4/000742_2014-06-08_18-48-09_260595134347_rgbf000164-resize_4-target.png,1000,4.973,4.632,0,1707,512,993,517,1002,484,feet,,,,,1078089,1209086,36
529702,DepthScenes,duration_discrimination,discrim_jsons/d0_dr.json,http://54.197.185.130/DepthDuration/depth_discrimination_MTurk/DepthDiscrim_HTML.html#1,1,1366,657,1366,768,6-12-2021,7-25-44,76,depth_discrimination_stimuli/001244_2014-06-17_16-47-45_260595134347_rgbf000030-resize_4/001244_2014-06-17_16-47-45_260595134347_rgbf000030-resize_4-target.png,depth_discrimination_stimuli/002763_2014-06-22_19-13-10_094959634447_rgbf000075-resize_4/002763_2014-06-22_19-13-10_094959634447_rgbf000075-resize_4-target.png,250,2.0425,1.68375,1,885,502,252,499,261,500,feet,,,,,1078089,1209086,36
529702,DepthScenes,duration_discrimination,discrim_jsons/d0_dr.json,http://54.197.185.130/DepthDuration/depth_discrimination_MTurk/DepthDiscrim_HTML.html#1,1,1366,657,1366,768,6-12-2021,7-25-44,77,depth_discrimination_stimuli/001011_2014-06-08_23-18-54_260595134347_rgbf000044-resize_4/001011_2014-06-08_23-18-54_260595134347_rgbf000044-resize_4-target.png,depth_discrimination_stimuli/002678_2014-06-13_16-15-32_094959634447_rgbf000151-resize_6/002678_2014-06-13_16-15-32_094959634447_rgbf000151-resize_6-target.png,250,2.473,2.183,0,761,512,251,511,231,506,feet,,,,,1078089,1209086,36
529702,DepthScenes,duration_discrimination,discrim_jsons/d0_dr.json,http://54.197.185.130/DepthDuration/depth_discrimination_MTurk/DepthDiscrim_HTML.html#1,1,1366,657,1366,768,6-12-2021,7-25-44,78,depth_discrimination_stimuli/001056_2014-06-08_18-46-44_260595134347_rgbf000068-resize_0/001056_2014-06-08_18-46-44_260595134347_rgbf000068-resize_0-target.png,depth_discrimination_stimuli/003079_2014-06-15_15-18-20_094959634447_rgbf000152-resize_8/003079_2014-06-15_15-18-20_094959634447_rgbf000152-resize_8-target.png,1000,2.6625,2.8775,0,1789,508,995,505,995,498,feet,,,,,1078089,1209086,36
529702,DepthScenes,duration_discrimination,discrim_jsons/d0_dr.json,http://54.197.185.130/DepthDuration/depth_discrimination_MTurk/DepthDiscrim_HTML.html#1,1,1366,657,1366,768,6-12-2021,7-25-44,79,depth_discrimination_stimuli/001158_2014-06-17_15-32-16_260595134347_rgbf000138-resize_2/001158_2014-06-17_15-32-16_260595134347_rgbf000138-resize_2-target.png,depth_discrimination_stimuli/003492_2014-05-21_15-50-55_094959634447_rgbf000828-resize_1/003492_2014-05-21_15-50-55_094959634447_rgbf000828-resize_1-target.png,1000,4.5315,4.06875,1,1877,506,996,508,994,498,feet,,,,,1078089,1209086,36
529702,DepthScenes,duration_discrimination,discrim_jsons/d0_dr.json,http://54.197.185.130/DepthDuration/depth_discrimination_MTurk/DepthDiscrim_HTML.html#1,1,1366,657,1366,768,6-12-2021,7-25-44,80,depth_discrimination_stimuli/001392_2014-06-19_16-07-59_260595134347_rgbf000046-resize_1/001392_2014-06-19_16-07-59_260595134347_rgbf000046-resize_1-target.png,depth_discrimination_stimuli/003490_2014-05-21_15-50-11_094959634447_rgbf000101-resize_3/003490_2014-05-21_15-50-11_094959634447_rgbf000101-resize_3-target.png,250,4.135,3.6445,0,951,511,253,492,250,502,feet,,,,,1078089,1209086,36
529702,DepthScenes,duration_discrimination,discrim_jsons/d0_dr.json,http://54.197.185.130/DepthDuration/depth_discrimination_MTurk/DepthDiscrim_HTML.html#1,1,1366,657,1366,768,6-12-2021,7-25-44,81,depth_discrimination_stimuli/000854_2014-06-09_19-43-13_260595134347_rgbf000066-resize_0/000854_2014-06-09_19-43-13_260595134347_rgbf000066-resize_0-target.png,depth_discrimination_stimuli/002758_2014-06-22_19-11-20_094959634447_rgbf000128-resize_1/002758_2014-06-22_19-11-20_094959634447_rgbf000128-resize_1-target.png,250,3.068,2.555,0,973,509,255,500,241,514,feet,,,,,1078089,1209086,36
529702,DepthScenes,duration_discrimination,discrim_jsons/d0_dr.json,http://54.197.185.130/DepthDuration/depth_discrimination_MTurk/DepthDiscrim_HTML.html#1,1,1366,657,1366,768,6-12-2021,7-25-44,82,depth_discrimination_stimuli/002414_2014-06-28_20-24-58_260595134347_rgbf000067-resize_4/002414_2014-06-28_20-24-58_260595134347_rgbf000067-resize_4-target.png,depth_discrimination_stimuli/001828_2014-06-26_21-40-03_260595134347_rgbf000024-resize_0/001828_2014-06-26_21-40-03_260595134347_rgbf000024-resize_0-target.png,250,4.363,4.826,0,1070,508,247,497,251,500,feet,,,,,1078089,1209086,36
529702,DepthScenes,duration_discrimination,discrim_jsons/d0_dr.json,http://54.197.185.130/DepthDuration/depth_discrimination_MTurk/DepthDiscrim_HTML.html#1,1,1366,657,1366,768,6-12-2021,7-25-44,83,depth_discrimination_stimuli/000502_2014-06-08_23-02-32_260595134347_rgbf000063-resize_4/000502_2014-06-08_23-02-32_260595134347_rgbf000063-resize_4-target.png,depth_discrimination_stimuli/002987_2014-06-08_18-48-20_094959634447_rgbf000022-resize_0/002987_2014-06-08_18-48-20_094959634447_rgbf000022-resize_0-target.png,250,2.431,2.6775,0,774,509,260,492,245,498,feet,,,,,1078089,1209086,36
529702,DepthScenes,duration_discrimination,discrim_jsons/d0_dr.json,http://54.197.185.130/DepthDuration/depth_discrimination_MTurk/DepthDiscrim_HTML.html#1,1,1366,657,1366,768,6-12-2021,7-25-44,84,depth_discrimination_stimuli/000740_2014-06-08_18-46-23_260595134347_rgbf000049-resize_6/000740_2014-06-08_18-46-23_260595134347_rgbf000049-resize_6-target.png,depth_discrimination_stimuli/002905_2014-06-03_18-04-43_094959634447_rgbf000151-resize_2/002905_2014-06-03_18-04-43_094959634447_rgbf000151-resize_2-target.png,250,1.687,2.0295,1,791,514,253,491,254,489,feet,,,,,1078089,1209086,36
529702,DepthScenes,duration_discrimination,discrim_jsons/d0_dr.json,http://54.197.185.130/DepthDuration/depth_discrimination_MTurk/DepthDiscrim_HTML.html#1,1,1366,657,1366,768,6-12-2021,7-25-44,85,depth_discrimination_stimuli/001055_2014-06-08_18-45-35_260595134347_rgbf000111-resize_4/001055_2014-06-08_18-45-35_260595134347_rgbf000111-resize_4-target.png,depth_discrimination_stimuli/002209_2014-06-28_18-36-10_260595134347_rgbf000051-resize_1/002209_2014-06-28_18-36-10_260595134347_rgbf000051-resize_1-target.png,1000,2.429,2.057,1,1612,507,1001,494,1023,492,feet,,,,,1078089,1209086,36
529702,DepthScenes,duration_discrimination,discrim_jsons/d0_dr.json,http://54.197.185.130/DepthDuration/depth_discrimination_MTurk/DepthDiscrim_HTML.html#1,1,1366,657,1366,768,6-12-2021,7-25-44,86,depth_discrimination_stimuli/000103_2014-05-14_22-01-17_260595134347_rgbf000152-resize_5/000103_2014-05-14_22-01-17_260595134347_rgbf000152-resize_5-target.png,depth_discrimination_stimuli/000810_2014-06-08_17-20-01_260595134347_rgbf000105-resize_0/000810_2014-06-08_17-20-01_260595134347_rgbf000105-resize_0-target.png,250,1.993,1.4865,1,887,503,250,500,250,500,feet,,,,,1078089,1209086,36
529702,DepthScenes,duration_discrimination,discrim_jsons/d0_dr.json,http://54.197.185.130/DepthDuration/depth_discrimination_MTurk/DepthDiscrim_HTML.html#1,1,1366,657,1366,768,6-12-2021,7-25-44,87,depth_discrimination_stimuli/002750_2014-06-22_19-08-03_094959634447_rgbf000094-resize_4/002750_2014-06-22_19-08-03_094959634447_rgbf000094-resize_4-target.png,depth_discrimination_stimuli/001188_2014-06-17_15-54-10_260595134347_rgbf000090-resize_2/001188_2014-06-17_15-54-10_260595134347_rgbf000090-resize_2-target.png,1000,2.354,2.744,0,1907,508,1006,496,998,495,feet,,,,,1078089,1209086,36
529702,DepthScenes,duration_discrimination,discrim_jsons/d0_dr.json,http://54.197.185.130/DepthDuration/depth_discrimination_MTurk/DepthDiscrim_HTML.html#1,1,1366,657,1366,768,6-12-2021,7-25-44,88,depth_discrimination_stimuli/000470_2014-06-09_19-42-40_260595134347_rgbf000094-resize_1/000470_2014-06-09_19-42-40_260595134347_rgbf000094-resize_1-target.png,depth_discrimination_stimuli/000109_2014-05-14_23-41-52_260595134347_rgbf000035-resize_9/000109_2014-05-14_23-41-52_260595134347_rgbf000035-resize_9-target.png,250,1.831,1.3545,1,1046,514,240,498,262,519,feet,,,,,1078089,1209086,36
529702,DepthScenes,duration_discrimination,discrim_jsons/d0_dr.json,http://54.197.185.130/DepthDuration/depth_discrimination_MTurk/DepthDiscrim_HTML.html#1,1,1366,657,1366,768,6-12-2021,7-25-44,89,depth_discrimination_stimuli/002570_2014-06-24_13-59-54_094959634447_rgbf000059-resize_0/002570_2014-06-24_13-59-54_094959634447_rgbf000059-resize_0-target.png,depth_discrimination_stimuli/001584_2014-06-20_11-07-43_260595134347_rgbf000002-resize_1/001584_2014-06-20_11-07-43_260595134347_rgbf000002-resize_1-target.png,1000,4.037,3.53,0,1870,511,1003,496,1001,506,feet,,,,,1078089,1209086,36
529702,DepthScenes,duration_discrimination,discrim_jsons/d0_dr.json,http://54.197.185.130/DepthDuration/depth_discrimination_MTurk/DepthDiscrim_HTML.html#1,1,1366,657,1366,768,6-12-2021,7-25-44,90,depth_discrimination_stimuli/002725_2014-06-22_11-47-51_094959634447_rgbf000070-resize_1/002725_2014-06-22_11-47-51_094959634447_rgbf000070-resize_1-target.png,depth_discrimination_stimuli/002153_2014-06-25_21-27-18_260595134347_rgbf000038-resize_5/002153_2014-06-25_21-27-18_260595134347_rgbf000038-resize_5-target.png,250,2.195,2.505,1,1035,506,247,500,251,508,feet,,,,,1078089,1209086,36
529702,DepthScenes,duration_discrimination,discrim_jsons/d0_dr.json,http://54.197.185.130/DepthDuration/depth_discrimination_MTurk/DepthDiscrim_HTML.html#1,1,1366,657,1366,768,6-12-2021,7-25-44,91,depth_discrimination_stimuli/002072_2014-06-24_21-48-06_260595134347_rgbf000115-resize_0/002072_2014-06-24_21-48-06_260595134347_rgbf000115-resize_0-target.png,depth_discrimination_stimuli/001012_2014-06-08_23-19-38_260595134347_rgbf000057-resize_0/001012_2014-06-08_23-19-38_260595134347_rgbf000057-resize_0-target.png,250,4.702,1.38325,1,1218,508,243,509,242,510,feet,,,,,1078089,1209086,36
529702,DepthScenes,duration_discrimination,discrim_jsons/d0_dr.json,http://54.197.185.130/DepthDuration/depth_discrimination_MTurk/DepthDiscrim_HTML.html#1,1,1366,657,1366,768,6-12-2021,7-25-44,92,depth_discrimination_stimuli/002675_2014-06-13_16-08-49_094959634447_rgbf000151-resize_2/002675_2014-06-13_16-08-49_094959634447_rgbf000151-resize_2-target.png,depth_discrimination_stimuli/001222_2014-06-17_16-24-06_260595134347_rgbf000073-resize_0/001222_2014-06-17_16-24-06_260595134347_rgbf000073-resize_0-target.png,1000,4.5065,1.4385,1,1556,508,999,513,989,498,feet,,,,,1078089,1209086,36
529702,DepthScenes,duration_discrimination,discrim_jsons/d0_dr.json,http://54.197.185.130/DepthDuration/depth_discrimination_MTurk/DepthDiscrim_HTML.html#1,1,1366,657,1366,768,6-12-2021,7-25-44,93,depth_discrimination_stimuli/000414_2014-06-04_19-49-13_260595134347_rgbf000044-resize_0/000414_2014-06-04_19-49-13_260595134347_rgbf000044-resize_0-target.png,depth_discrimination_stimuli/002663_2014-06-13_15-50-26_094959634447_rgbf000075-resize_1/002663_2014-06-13_15-50-26_094959634447_rgbf000075-resize_1-target.png,250,4.329,4.7495,0,1267,502,252,499,270,479,feet,,,,,1078089,1209086,36
529702,DepthScenes,duration_discrimination,discrim_jsons/d0_dr.json,http://54.197.185.130/DepthDuration/depth_discrimination_MTurk/DepthDiscrim_HTML.html#1,1,1366,657,1366,768,6-12-2021,7-25-44,94,depth_discrimination_stimuli/000483_2014-06-09_20-41-45_260595134347_rgbf000116-resize_4/000483_2014-06-09_20-41-45_260595134347_rgbf000116-resize_4-target.png,depth_discrimination_stimuli/002964_2014-06-08_17-46-11_094959634447_rgbf000091-resize_4/002964_2014-06-08_17-46-11_094959634447_rgbf000091-resize_4-target.png,1000,1.337,1.691,1,1703,518,990,504,999,494,feet,,,,,1078089,1209086,36
529702,DepthScenes,duration_discrimination,discrim_jsons/d0_dr.json,http://54.197.185.130/DepthDuration/depth_discrimination_MTurk/DepthDiscrim_HTML.html#1,1,1366,657,1366,768,6-12-2021,7-25-44,95,depth_discrimination_stimuli/000677_2014-06-08_23-10-32_260595134347_rgbf000158-resize_6/000677_2014-06-08_23-10-32_260595134347_rgbf000158-resize_6-target.png,depth_discrimination_stimuli/001150_2014-06-17_15-27-34_260595134347_rgbf000108-resize_2/001150_2014-06-17_15-27-34_260595134347_rgbf000108-resize_2-target.png,1000,3.556,4.0325,0,1579,515,995,501,1002,496,feet,,,,,1078089,1209086,36
529702,DepthScenes,duration_discrimination,discrim_jsons/d0_dr.json,http://54.197.185.130/DepthDuration/depth_discrimination_MTurk/DepthDiscrim_HTML.html#1,1,1366,657,1366,768,6-12-2021,7-25-44,96,depth_discrimination_stimuli/000505_2014-06-08_23-03-23_260595134347_rgbf000091-resize_0/000505_2014-06-08_23-03-23_260595134347_rgbf000091-resize_0-target.png,depth_discrimination_stimuli/002057_2014-06-24_21-00-13_260595134347_rgbf000120-resize_1/002057_2014-06-24_21-00-13_260595134347_rgbf000120-resize_1-target.png,250,3.3105,2.967,0,971,506,256,491,249,501,feet,,,,,1078089,1209086,36
529702,DepthScenes,duration_discrimination,discrim_jsons/d0_dr.json,http://54.197.185.130/DepthDuration/depth_discrimination_MTurk/DepthDiscrim_HTML.html#1,1,1366,657,1366,768,6-12-2021,7-25-44,96,,,,,,,971,506,256,491,249,501,feet,,,,,1078089,1209086,36
529702,DepthScenes,duration_discrimination,discrim_jsons/d0_dr.json,http://54.197.185.130/DepthDuration/depth_discrimination_MTurk/DepthDiscrim_HTML.html#1,1,1349,657,1366,768,6-12-2021,7-25-44,98,,,,,,,971,506,256,491,249,501,feet,5,4,depth_discrimination_stimuli/000436_2014-06-09_22-25-11_260595134347_rgbf000137-resize_1/000436_2014-06-09_22-25-11_260595134347_rgbf000137-resize-original.jpg,8014,1078089,1209086,36
529702,DepthScenes,duration_discrimination,discrim_jsons/d0_dr.json,http://54.197.185.130/DepthDuration/depth_discrimination_MTurk/DepthDiscrim_HTML.html#1,1,1349,657,1366,768,6-12-2021,7-25-44,99,,,,,,,971,506,256,491,249,501,feet,5,4,depth_discrimination_stimuli/000736_2014-06-08_18-24-15_260595134347_rgbf000206-resize_3/000736_2014-06-08_18-24-15_260595134347_rgbf000206-resize-original.jpg,4769,1078089,1209086,36
529702,DepthScenes,duration_discrimination,discrim_jsons/d0_dr.json,http://54.197.185.130/DepthDuration/depth_discrimination_MTurk/DepthDiscrim_HTML.html#1,1,1349,657,1366,768,6-12-2021,7-25-44,100,,,,,,,971,506,256,491,249,501,feet,5,5,depth_discrimination_stimuli/000555_2014-06-09_22-42-23_260595134347_rgbf000037-resize_4/000555_2014-06-09_22-42-23_260595134347_rgbf000037-resize-original.jpg,2774,1078089,1209086,36
529702,DepthScenes,duration_discrimination,discrim_jsons/d0_dr.json,http://54.197.185.130/DepthDuration/depth_discrimination_MTurk/DepthDiscrim_HTML.html#1,1,1349,657,1366,768,6-12-2021,7-25-44,101,,,,,,,971,506,256,491,249,501,feet,5,5,depth_discrimination_stimuli/000830_2014-06-04_19-49-31_260595134347_rgbf000096-resize_2/000830_2014-06-04_19-49-31_260595134347_rgbf000096-resize-original.jpg,2563,1078089,1209086,36
529702,DepthScenes,duration_discrimination,discrim_jsons/d0_dr.json,http://54.197.185.130/DepthDuration/depth_discrimination_MTurk/DepthDiscrim_HTML.html#1,1,1349,657,1366,768,6-12-2021,7-25-44,102,,,,,,,971,506,256,491,249,501,feet,5,5,depth_discrimination_stimuli/000505_2014-06-08_23-03-23_260595134347_rgbf000091-resize_0/000505_2014-06-08_23-03-23_260595134347_rgbf000091-resize-original.jpg,3046,1078089,1209086,36
529702,DepthScenes,duration_discrimination,discrim_jsons/d0_dr.json,http://54.197.185.130/DepthDuration/depth_discrimination_MTurk/DepthDiscrim_HTML.html#1,1,1349,657,1366,768,6-12-2021,7-25-44,103,,,,,,,971,506,256,491,249,501,feet,5,4,depth_discrimination_stimuli/000486_2014-06-09_20-47-20_260595134347_rgbf000143-resize_2/000486_2014-06-09_20-47-20_260595134347_rgbf000143-resize-original.jpg,2935,1078089,1209086,36
529702,DepthScenes,duration_discrimination,discrim_jsons/d0_dr.json,http://54.197.185.130/DepthDuration/depth_discrimination_MTurk/DepthDiscrim_HTML.html#1,1,1349,657,1366,768,6-12-2021,7-25-44,104,,,,,,,971,506,256,491,249,501,feet,5,5,depth_discrimination_stimuli/001092_2014-06-15_17-34-58_260595134347_rgbf000171-resize_3/001092_2014-06-15_17-34-58_260595134347_rgbf000171-resize-original.jpg,4727,1078089,1209086,36
529702,DepthScenes,duration_discrimination,discrim_jsons/d0_dr.json,http://54.197.185.130/DepthDuration/depth_discrimination_MTurk/DepthDiscrim_HTML.html#1,1,1349,657,1366,768,6-12-2021,7-25-44,105,,,,,,,971,506,256,491,249,501,feet,5,5,depth_discrimination_stimuli/001235_2014-06-17_16-37-36_260595134347_rgbf000084-resize_4/001235_2014-06-17_16-37-36_260595134347_rgbf000084-resize-original.jpg,2930,1078089,1209086,36
529702,DepthScenes,duration_discrimination,discrim_jsons/d0_dr.json,http://54.197.185.130/DepthDuration/depth_discrimination_MTurk/DepthDiscrim_HTML.html#1,1,1349,657,1366,768,6-12-2021,7-25-44,106,,,,,,,971,506,256,491,249,501,feet,3,4,depth_discrimination_stimuli/002468_2014-06-28_20-38-39_260595134347_rgbf000045-resize_1/002468_2014-06-28_20-38-39_260595134347_rgbf000045-resize-original.jpg,14430,1078089,1209086,36
529702,DepthScenes,duration_discrimination,discrim_jsons/d0_dr.json,http://54.197.185.130/DepthDuration/depth_discrimination_MTurk/DepthDiscrim_HTML.html#1,1,1349,657,1366,768,6-12-2021,7-25-44,107,,,,,,,971,506,256,491,249,501,feet,2,5,depth_discrimination_stimuli/000542_2014-06-08_18-27-08_260595134347_rgbf000118-resize_1/000542_2014-06-08_18-27-08_260595134347_rgbf000118-resize-original.jpg,9762,1078089,1209086,36
529702,DepthScenes,duration_discrimination,discrim_jsons/d0_dr.json,http://54.197.185.130/DepthDuration/depth_discrimination_MTurk/DepthDiscrim_HTML.html#1,1,1349,657,1366,768,6-12-2021,7-25-44,108,,,,,,,971,506,256,491,249,501,feet,2,3,scene_property_catch_stimuli/sun_bpzzatthlcapxzol.jpg,4050,1078089,1209086,36
529702,DepthScenes,duration_discrimination,discrim_jsons/d0_dr.json,http://54.197.185.130/DepthDuration/depth_discrimination_MTurk/DepthDiscrim_HTML.html#1,1,1349,657,1366,768,6-12-2021,7-25-44,109,,,,,,,971,506,256,491,249,501,feet,1,4,depth_discrimination_stimuli/002790_2014-06-22_19-36-35_094959634447_rgbf000074-resize_4/002790_2014-06-22_19-36-35_094959634447_rgbf000074-resize-original.jpg,3638,1078089,1209086,36
529702,DepthScenes,duration_discrimination,discrim_jsons/d0_dr.json,http://54.197.185.130/DepthDuration/depth_discrimination_MTurk/DepthDiscrim_HTML.html#1,1,1349,657,1366,768,6-12-2021,7-25-44,110,,,,,,,971,506,256,491,249,501,feet,2,3,depth_discrimination_stimuli/002579_2014-06-24_14-08-03_094959634447_rgbf000061-resize_2/002579_2014-06-24_14-08-03_094959634447_rgbf000061-resize-original.jpg,3289,1078089,1209086,36
529702,DepthScenes,duration_discrimination,discrim_jsons/d0_dr.json,http://54.197.185.130/DepthDuration/depth_discrimination_MTurk/DepthDiscrim_HTML.html#1,1,1349,657,1366,768,6-12-2021,7-25-44,111,,,,,,,971,506,256,491,249,501,feet,1,3,depth_discrimination_stimuli/001150_2014-06-17_15-27-34_260595134347_rgbf000108-resize_2/001150_2014-06-17_15-27-34_260595134347_rgbf000108-resize-original.jpg,4942,1078089,1209086,36
529702,DepthScenes,duration_discrimination,discrim_jsons/d0_dr.json,http://54.197.185.130/DepthDuration/depth_discrimination_MTurk/DepthDiscrim_HTML.html#1,1,1349,657,1366,768,6-12-2021,7-25-44,112,,,,,,,971,506,256,491,249,501,feet,1,1,depth_discrimination_stimuli/002988_2014-06-15_12-24-20_094959634447_rgbf000150-resize_1/002988_2014-06-15_12-24-20_094959634447_rgbf000150-resize-original.jpg,3938,1078089,1209086,36
529702,DepthScenes,duration_discrimination,discrim_jsons/d0_dr.json,http://54.197.185.130/DepthDuration/depth_discrimination_MTurk/DepthDiscrim_HTML.html#1,1,1349,657,1366,768,6-12-2021,7-25-44,113,,,,,,,971,506,256,491,249,501,feet,2,2,depth_discrimination_stimuli/001066_2014-06-08_22-03-20_260595134347_rgbf000066-resize_4/001066_2014-06-08_22-03-20_260595134347_rgbf000066-resize-original.jpg,3827,1078089,1209086,36
529702,DepthScenes,duration_discrimination,discrim_jsons/d0_dr.json,http://54.197.185.130/DepthDuration/depth_discrimination_MTurk/DepthDiscrim_HTML.html#1,1,1349,657,1366,768,6-12-2021,7-25-44,114,,,,,,,971,506,256,491,249,501,feet,2,5,depth_discrimination_stimuli/000409_2014-06-04_19-23-33_260595134347_rgbf000067-resize_0/000409_2014-06-04_19-23-33_260595134347_rgbf000067-resize-original.jpg,4715,1078089,1209086,36
529702,DepthScenes,duration_discrimination,discrim_jsons/d0_dr.json,http://54.197.185.130/DepthDuration/depth_discrimination_MTurk/DepthDiscrim_HTML.html#1,1,1349,657,1366,768,6-12-2021,7-25-44,115,,,,,,,971,506,256,491,249,501,feet,3,3,depth_discrimination_stimuli/000521_2014-06-08_13-34-35_260595134347_rgbf000191-resize_2/000521_2014-06-08_13-34-35_260595134347_rgbf000191-resize-original.jpg,4647,1078089,1209086,36
529702,DepthScenes,duration_discrimination,discrim_jsons/d0_dr.json,http://54.197.185.130/DepthDuration/depth_discrimination_MTurk/DepthDiscrim_HTML.html#1,1,1349,657,1366,768,6-12-2021,7-25-44,116,,,,,,,971,506,256,491,249,501,feet,3,4,depth_discrimination_stimuli/002989_2014-06-15_12-25-03_094959634447_rgbf000150-resize_3/002989_2014-06-15_12-25-03_094959634447_rgbf000150-resize-original.jpg,4596,1078089,1209086,36
529702,DepthScenes,duration_discrimination,discrim_jsons/d0_dr.json,http://54.197.185.130/DepthDuration/depth_discrimination_MTurk/DepthDiscrim_HTML.html#1,1,1349,657,1366,768,6-12-2021,7-25-44,117,,,,,,,971,506,256,491,249,501,feet,4,5,depth_discrimination_stimuli/000742_2014-06-08_18-48-09_260595134347_rgbf000164-resize_4/000742_2014-06-08_18-48-09_260595134347_rgbf000164-resize-original.jpg,3799,1078089,1209086,36
529702,DepthScenes,duration_discrimination,discrim_jsons/d0_dr.json,http://54.197.185.130/DepthDuration/depth_discrimination_MTurk/DepthDiscrim_HTML.html#1,1,1349,657,1366,768,6-12-2021,7-25-44,118,,,,,,,971,506,256,491,249,501,feet,5,4,depth_discrimination_stimuli/001133_2014-06-17_14-49-16_260595134347_rgbf000100-resize_0/001133_2014-06-17_14-49-16_260595134347_rgbf000100-resize-original.jpg,4903,1078089,1209086,36
529702,DepthScenes,duration_discrimination,discrim_jsons/d0_dr.json,http://54.197.185.130/DepthDuration/depth_discrimination_MTurk/DepthDiscrim_HTML.html#1,1,1349,657,1366,768,6-12-2021,7-25-44,119,,,,,,,971,506,256,491,249,501,feet,3,5,depth_discrimination_stimuli/002637_2014-06-24_14-51-13_094959634447_rgbf000066-resize_4/002637_2014-06-24_14-51-13_094959634447_rgbf000066-resize-original.jpg,3990,1078089,1209086,36
529702,DepthScenes,duration_discrimination,discrim_jsons/d0_dr.json,http://54.197.185.130/DepthDuration/depth_discrimination_MTurk/DepthDiscrim_HTML.html#1,1,1349,657,1366,768,6-12-2021,7-25-44,120,,,,,,,971,506,256,491,249,501,feet,4,5,depth_discrimination_stimuli/003492_2014-05-21_15-50-55_094959634447_rgbf000828-resize_1/003492_2014-05-21_15-50-55_094959634447_rgbf000828-resize-original.jpg,4521,1078089,1209086,36
529702,DepthScenes,duration_discrimination,discrim_jsons/d0_dr.json,http://54.197.185.130/DepthDuration/depth_discrimination_MTurk/DepthDiscrim_HTML.html#1,1,1349,657,1366,768,6-12-2021,7-25-44,121,,,,,,,971,506,256,491,249,501,feet,5,5,depth_discrimination_stimuli/003490_2014-05-21_15-50-11_094959634447_rgbf000101-resize_3/003490_2014-05-21_15-50-11_094959634447_rgbf000101-resize-original.jpg,3314,1078089,1209086,36
529702,DepthScenes,duration_discrimination,discrim_jsons/d0_dr.json,http://54.197.185.130/DepthDuration/depth_discrimination_MTurk/DepthDiscrim_HTML.html#1,1,1349,657,1366,768,6-12-2021,7-25-44,122,,,,,,,971,506,256,491,249,501,feet,1,5,depth_discrimination_stimuli/002549_2014-06-24_13-41-39_094959634447_rgbf000022-resize_3/002549_2014-06-24_13-41-39_094959634447_rgbf000022-resize-original.jpg,5002,1078089,1209086,36
529702,DepthScenes,duration_discrimination,discrim_jsons/d0_dr.json,http://54.197.185.130/DepthDuration/depth_discrimination_MTurk/DepthDiscrim_HTML.html#1,1,1349,657,1366,768,6-12-2021,7-25-44,123,,,,,,,971,506,256,491,249,501,feet,3,5,depth_discrimination_stimuli/001136_2014-06-17_15-19-41_260595134347_rgbf000076-resize_3/001136_2014-06-17_15-19-41_260595134347_rgbf000076-resize-original.jpg,3966,1078089,1209086,36
529702,DepthScenes,duration_discrimination,discrim_jsons/d0_dr.json,http://54.197.185.130/DepthDuration/depth_discrimination_MTurk/DepthDiscrim_HTML.html#1,1,1349,657,1366,768,6-12-2021,7-25-44,124,,,,,,,971,506,256,491,249,501,feet,5,5,depth_discrimination_stimuli/000483_2014-06-09_20-41-45_260595134347_rgbf000116-resize_4/000483_2014-06-09_20-41-45_260595134347_rgbf000116-resize-original.jpg,3488,1078089,1209086,36
529702,DepthScenes,duration_discrimination,discrim_jsons/d0_dr.json,http://54.197.185.130/DepthDuration/depth_discrimination_MTurk/DepthDiscrim_HTML.html#1,1,1349,657,1366,768,6-12-2021,7-25-44,125,,,,,,,971,506,256,491,249,501,feet,3,5,depth_discrimination_stimuli/001181_2014-06-17_15-50-57_260595134347_rgbf000106-resize_4/001181_2014-06-17_15-50-57_260595134347_rgbf000106-resize-original.jpg,3484,1078089,1209086,36
529702,DepthScenes,duration_discrimination,discrim_jsons/d0_dr.json,http://54.197.185.130/DepthDuration/depth_discrimination_MTurk/DepthDiscrim_HTML.html#1,1,1349,657,1366,768,6-12-2021,7-25-44,126,,,,,,,971,506,256,491,249,501,feet,1,5,depth_discrimination_stimuli/001516_2014-06-20_16-25-09_260595134347_rgbf000076-resize_2/001516_2014-06-20_16-25-09_260595134347_rgbf000076-resize-original.jpg,4056,1078089,1209086,36
529702,DepthScenes,duration_discrimination,discrim_jsons/d0_dr.json,http://54.197.185.130/DepthDuration/depth_discrimination_MTurk/DepthDiscrim_HTML.html#1,1,1349,657,1366,768,6-12-2021,7-25-44,127,,,,,,,971,506,256,491,249,501,feet,2,4,depth_discrimination_stimuli/002953_2014-06-08_17-32-18_094959634447_rgbf000059-resize_5/002953_2014-06-08_17-32-18_094959634447_rgbf000059-resize-original.jpg,4310,1078089,1209086,36
529702,DepthScenes,duration_discrimination,discrim_jsons/d0_dr.json,http://54.197.185.130/DepthDuration/depth_discrimination_MTurk/DepthDiscrim_HTML.html#1,1,1349,657,1366,768,6-12-2021,7-25-44,128,,,,,,,971,506,256,491,249,501,feet,3,4,depth_discrimination_stimuli/000522_2014-06-08_13-35-06_260595134347_rgbf000244-resize_1/000522_2014-06-08_13-35-06_260595134347_rgbf000244-resize-original.jpg,4580,1078089,1209086,36
529702,DepthScenes,duration_discrimination,discrim_jsons/d0_dr.json,http://54.197.185.130/DepthDuration/depth_discrimination_MTurk/DepthDiscrim_HTML.html#1,1,1349,657,1366,768,6-12-2021,7-25-44,129,,,,,,,971,506,256,491,249,501,feet,4,4,depth_discrimination_stimuli/002323_2014-06-28_20-01-54_260595134347_rgbf000051-resize_4/002323_2014-06-28_20-01-54_260595134347_rgbf000051-resize-original.jpg,3567,1078089,1209086,36
529702,DepthScenes,duration_discrimination,discrim_jsons/d0_dr.json,http://54.197.185.130/DepthDuration/depth_discrimination_MTurk/DepthDiscrim_HTML.html#1,1,1349,657,1366,768,6-12-2021,7-25-44,130,,,,,,,971,506,256,491,249,501,feet,5,5,depth_discrimination_stimuli/002153_2014-06-25_21-27-18_260595134347_rgbf000038-resize_5/002153_2014-06-25_21-27-18_260595134347_rgbf000038-resize-original.jpg,3499,1078089,1209086,36
529702,DepthScenes,duration_discrimination,discrim_jsons/d0_dr.json,http://54.197.185.130/DepthDuration/depth_discrimination_MTurk/DepthDiscrim_HTML.html#1,1,1349,657,1366,768,6-12-2021,7-25-44,131,,,,,,,971,506,256,491,249,501,feet,3,3,depth_discrimination_stimuli/000773_2014-06-08_22-24-54_260595134347_rgbf000093-resize_1/000773_2014-06-08_22-24-54_260595134347_rgbf000093-resize-original.jpg,7624,1078089,1209086,36
529702,DepthScenes,duration_discrimination,discrim_jsons/d0_dr.json,http://54.197.185.130/DepthDuration/depth_discrimination_MTurk/DepthDiscrim_HTML.html#1,1,1349,657,1366,768,6-12-2021,7-25-44,132,,,,,,,971,506,256,491,249,501,feet,3,5,depth_discrimination_stimuli/001808_2014-06-26_20-50-58_260595134347_rgbf000029-resize_1/001808_2014-06-26_20-50-58_260595134347_rgbf000029-resize-original.jpg,3767,1078089,1209086,36
529702,DepthScenes,duration_discrimination,discrim_jsons/d0_dr.json,http://54.197.185.130/DepthDuration/depth_discrimination_MTurk/DepthDiscrim_HTML.html#1,1,1349,657,1366,768,6-12-2021,7-25-44,133,,,,,,,971,506,256,491,249,501,feet,4,4,depth_discrimination_stimuli/002305_2014-06-28_19-56-50_260595134347_rgbf000102-resize_7/002305_2014-06-28_19-56-50_260595134347_rgbf000102-resize-original.jpg,4966,1078089,1209086,36
529702,DepthScenes,duration_discrimination,discrim_jsons/d0_dr.json,http://54.197.185.130/DepthDuration/depth_discrimination_MTurk/DepthDiscrim_HTML.html#1,1,1349,657,1366,768,6-12-2021,7-25-44,134,,,,,,,971,506,256,491,249,501,feet,2,4,depth_discrimination_stimuli/002209_2014-06-28_18-36-10_260595134347_rgbf000051-resize_1/002209_2014-06-28_18-36-10_260595134347_rgbf000051-resize-original.jpg,3723,1078089,1209086,36
529702,DepthScenes,duration_discrimination,discrim_jsons/d0_dr.json,http://54.197.185.130/DepthDuration/depth_discrimination_MTurk/DepthDiscrim_HTML.html#1,1,1349,657,1366,768,6-12-2021,7-25-44,135,,,,,,,971,506,256,491,249,501,feet,3,4,depth_discrimination_stimuli/002964_2014-06-08_17-46-11_094959634447_rgbf000091-resize_4/002964_2014-06-08_17-46-11_094959634447_rgbf000091-resize-original.jpg,4291,1078089,1209086,36
529702,DepthScenes,duration_discrimination,discrim_jsons/d0_dr.json,http://54.197.185.130/DepthDuration/depth_discrimination_MTurk/DepthDiscrim_HTML.html#1,1,1349,657,1366,768,6-12-2021,7-25-44,136,,,,,,,971,506,256,491,249,501,feet,3,5,depth_discrimination_stimuli/002987_2014-06-08_18-48-20_094959634447_rgbf000022-resize_0/002987_2014-06-08_18-48-20_094959634447_rgbf000022-resize-original.jpg,4530,1078089,1209086,36
529702,DepthScenes,duration_discrimination,discrim_jsons/d0_dr.json,http://54.197.185.130/DepthDuration/depth_discrimination_MTurk/DepthDiscrim_HTML.html#1,1,1349,657,1366,768,6-12-2021,7-25-44,137,,,,,,,971,506,256,491,249,501,feet,4,5,depth_discrimination_stimuli/002748_2014-06-22_19-07-22_094959634447_rgbf000078-resize_1/002748_2014-06-22_19-07-22_094959634447_rgbf000078-resize-original.jpg,2909,1078089,1209086,36
529702,DepthScenes,duration_discrimination,discrim_jsons/d0_dr.json,http://54.197.185.130/DepthDuration/depth_discrimination_MTurk/DepthDiscrim_HTML.html#1,1,1349,657,1366,768,6-12-2021,7-25-44,138,,,,,,,971,506,256,491,249,501,feet,3,2,depth_discrimination_stimuli/001056_2014-06-08_18-46-44_260595134347_rgbf000068-resize_0/001056_2014-06-08_18-46-44_260595134347_rgbf000068-resize-original.jpg,4365,1078089,1209086,36
529702,DepthScenes,duration_discrimination,discrim_jsons/d0_dr.json,http://54.197.185.130/DepthDuration/depth_discrimination_MTurk/DepthDiscrim_HTML.html#1,1,1349,657,1366,768,6-12-2021,7-25-44,139,,,,,,,971,506,256,491,249,501,feet,4,3,depth_discrimination_stimuli/002272_2014-06-28_18-53-56_260595134347_rgbf000067-resize_2/002272_2014-06-28_18-53-56_260595134347_rgbf000067-resize-original.jpg,4153,1078089,1209086,36
529702,DepthScenes,duration_discrimination,discrim_jsons/d0_dr.json,http://54.197.185.130/DepthDuration/depth_discrimination_MTurk/DepthDiscrim_HTML.html#1,1,1349,657,1366,768,6-12-2021,7-25-44,140,,,,,,,971,506,256,491,249,501,feet,5,5,depth_discrimination_stimuli/002570_2014-06-24_13-59-54_094959634447_rgbf000059-resize_0/002570_2014-06-24_13-59-54_094959634447_rgbf000059-resize-original.jpg,3628,1078089,1209086,36
529702,DepthScenes,duration_discrimination,discrim_jsons/d0_dr.json,http://54.197.185.130/DepthDuration/depth_discrimination_MTurk/DepthDiscrim_HTML.html#1,1,1349,657,1366,768,6-12-2021,7-25-44,141,,,,,,,971,506,256,491,249,501,feet,2,4,depth_discrimination_stimuli/001148_2014-06-17_15-26-42_260595134347_rgbf000129-resize_0/001148_2014-06-17_15-26-42_260595134347_rgbf000129-resize-original.jpg,3895,1078089,1209086,36
529702,DepthScenes,duration_discrimination,discrim_jsons/d0_dr.json,http://54.197.185.130/DepthDuration/depth_discrimination_MTurk/DepthDiscrim_HTML.html#1,1,1349,657,1366,768,6-12-2021,7-25-44,142,,,,,,,971,506,256,491,249,501,feet,1,5,depth_discrimination_stimuli/000414_2014-06-04_19-49-13_260595134347_rgbf000044-resize_0/000414_2014-06-04_19-49-13_260595134347_rgbf000044-resize-original.jpg,3064,1078089,1209086,36
529702,DepthScenes,duration_discrimination,discrim_jsons/d0_dr.json,http://54.197.185.130/DepthDuration/depth_discrimination_MTurk/DepthDiscrim_HTML.html#1,1,1349,657,1366,768,6-12-2021,7-25-44,143,,,,,,,971,506,256,491,249,501,feet,1,5,depth_discrimination_stimuli/001016_2014-06-09_16-16-10_260595134347_rgbf000112-resize_5/001016_2014-06-09_16-16-10_260595134347_rgbf000112-resize-original.jpg,3140,1078089,1209086,36
529702,DepthScenes,duration_discrimination,discrim_jsons/d0_dr.json,http://54.197.185.130/DepthDuration/depth_discrimination_MTurk/DepthDiscrim_HTML.html#1,1,1349,657,1366,768,6-12-2021,7-25-44,144,,,,,,,971,506,256,491,249,501,feet,3,4,depth_discrimination_stimuli/001447_2014-06-19_17-00-32_260595134347_rgbf000082-resize_5/001447_2014-06-19_17-00-32_260595134347_rgbf000082-resize-original.jpg,3750,1078089,1209086,36
529702,DepthScenes,duration_discrimination,discrim_jsons/d0_dr.json,http://54.197.185.130/DepthDuration/depth_discrimination_MTurk/DepthDiscrim_HTML.html#1,1,1349,657,1366,768,6-12-2021,7-25-44,145,,,,,,,971,506,256,491,249,501,feet,3,4,depth_discrimination_stimuli/000109_2014-05-14_23-41-52_260595134347_rgbf000035-resize_9/000109_2014-05-14_23-41-52_260595134347_rgbf000035-resize-original.jpg,3059,1078089,1209086,36
529702,DepthScenes,duration_discrimination,discrim_jsons/d0_dr.json,http://54.197.185.130/DepthDuration/depth_discrimination_MTurk/DepthDiscrim_HTML.html#1,1,1349,657,1366,768,6-12-2021,7-25-44,146,,,,,,,971,506,256,491,249,501,feet,2,5,depth_discrimination_stimuli/000734_2014-06-08_17-39-11_260595134347_rgbf000128-resize_2/000734_2014-06-08_17-39-11_260595134347_rgbf000128-resize-original.jpg,3993,1078089,1209086,36
529702,DepthScenes,duration_discrimination,discrim_jsons/d0_dr.json,http://54.197.185.130/DepthDuration/depth_discrimination_MTurk/DepthDiscrim_HTML.html#1,1,1349,657,1366,768,6-12-2021,7-25-44,147,,,,,,,971,506,256,491,249,501,feet,1,3,depth_discrimination_stimuli/002763_2014-06-22_19-13-10_094959634447_rgbf000075-resize_4/002763_2014-06-22_19-13-10_094959634447_rgbf000075-resize-original.jpg,4251,1078089,1209086,36
529702,DepthScenes,duration_discrimination,discrim_jsons/d0_dr.json,http://54.197.185.130/DepthDuration/depth_discrimination_MTurk/DepthDiscrim_HTML.html#1,1,1349,657,1366,768,6-12-2021,7-25-44,148,,,,,,,971,506,256,491,249,501,feet,4,5,depth_discrimination_stimuli/001815_2014-06-26_20-52-55_260595134347_rgbf000020-resize_0/001815_2014-06-26_20-52-55_260595134347_rgbf000020-resize-original.jpg,3179,1078089,1209086,36
529702,DepthScenes,duration_discrimination,discrim_jsons/d0_dr.json,http://54.197.185.130/DepthDuration/depth_discrimination_MTurk/DepthDiscrim_HTML.html#1,1,1349,657,1366,768,6-12-2021,7-25-44,149,,,,,,,971,506,256,491,249,501,feet,5,5,depth_discrimination_stimuli/002568_2014-06-24_13-59-21_094959634447_rgbf000062-resize_4/002568_2014-06-24_13-59-21_094959634447_rgbf000062-resize-original.jpg,2785,1078089,1209086,36
529702,DepthScenes,duration_discrimination,discrim_jsons/d0_dr.json,http://54.197.185.130/DepthDuration/depth_discrimination_MTurk/DepthDiscrim_HTML.html#1,1,1349,657,1366,768,6-12-2021,7-25-44,150,,,,,,,971,506,256,491,249,501,feet,3,4,depth_discrimination_stimuli/000720_2014-06-08_18-37-27_260595134347_rgbf000203-resize_4/000720_2014-06-08_18-37-27_260595134347_rgbf000203-resize-original.jpg,7400,1078089,1209086,36
529702,DepthScenes,duration_discrimination,discrim_jsons/d0_dr.json,http://54.197.185.130/DepthDuration/depth_discrimination_MTurk/DepthDiscrim_HTML.html#1,1,1349,657,1366,768,6-12-2021,7-25-44,151,,,,,,,971,506,256,491,249,501,feet,2,4,depth_discrimination_stimuli/002213_2014-06-28_18-37-58_260595134347_rgbf000055-resize_1/002213_2014-06-28_18-37-58_260595134347_rgbf000055-resize-original.jpg,3546,1078089,1209086,36
529702,DepthScenes,duration_discrimination,discrim_jsons/d0_dr.json,http://54.197.185.130/DepthDuration/depth_discrimination_MTurk/DepthDiscrim_HTML.html#1,1,1349,657,1366,768,6-12-2021,7-25-44,152,,,,,,,971,506,256,491,249,501,feet,2,5,depth_discrimination_stimuli/003079_2014-06-15_15-18-20_094959634447_rgbf000152-resize_8/003079_2014-06-15_15-18-20_094959634447_rgbf000152-resize-original.jpg,3273,1078089,1209086,36
529702,DepthScenes,duration_discrimination,discrim_jsons/d0_dr.json,http://54.197.185.130/DepthDuration/depth_discrimination_MTurk/DepthDiscrim_HTML.html#1,1,1349,657,1366,768,6-12-2021,7-25-44,153,,,,,,,971,506,256,491,249,501,feet,3,4,depth_discrimination_stimuli/001158_2014-06-17_15-32-16_260595134347_rgbf000138-resize_2/001158_2014-06-17_15-32-16_260595134347_rgbf000138-resize-original.jpg,3512,1078089,1209086,36
529702,DepthScenes,duration_discrimination,discrim_jsons/d0_dr.json,http://54.197.185.130/DepthDuration/depth_discrimination_MTurk/DepthDiscrim_HTML.html#1,1,1349,657,1366,768,6-12-2021,7-25-44,154,,,,,,,971,506,256,491,249,501,feet,2,5,depth_discrimination_stimuli/003495_2014-05-21_16-01-51_094959634447_rgbf000100-resize_3/003495_2014-05-21_16-01-51_094959634447_rgbf000100-resize-original.jpg,4661,1078089,1209086,36
529702,DepthScenes,duration_discrimination,discrim_jsons/d0_dr.json,http://54.197.185.130/DepthDuration/depth_discrimination_MTurk/DepthDiscrim_HTML.html#1,1,1349,657,1366,768,6-12-2021,7-25-44,155,,,,,,,971,506,256,491,249,501,feet,2,5,depth_discrimination_stimuli/001617_2014-06-20_11-35-32_260595134347_rgbf000066-resize_1/001617_2014-06-20_11-35-32_260595134347_rgbf000066-resize-original.jpg,3883,1078089,1209086,36
529702,DepthScenes,duration_discrimination,discrim_jsons/d0_dr.json,http://54.197.185.130/DepthDuration/depth_discrimination_MTurk/DepthDiscrim_HTML.html#1,1,1349,657,1366,768,6-12-2021,7-25-44,156,,,,,,,971,506,256,491,249,501,feet,3,5,depth_discrimination_stimuli/000788_2014-06-08_22-34-36_260595134347_rgbf000131-resize_1/000788_2014-06-08_22-34-36_260595134347_rgbf000131-resize-original.jpg,4531,1078089,1209086,36
529702,DepthScenes,duration_discrimination,discrim_jsons/d0_dr.json,http://54.197.185.130/DepthDuration/depth_discrimination_MTurk/DepthDiscrim_HTML.html#1,1,1349,657,1366,768,6-12-2021,7-25-44,157,,,,,,,971,506,256,491,249,501,feet,5,3,depth_discrimination_stimuli/002199_2014-06-28_18-33-56_260595134347_rgbf000074-resize_0/002199_2014-06-28_18-33-56_260595134347_rgbf000074-resize-original.jpg,5015,1078089,1209086,36
529702,DepthScenes,duration_discrimination,discrim_jsons/d0_dr.json,http://54.197.185.130/DepthDuration/depth_discrimination_MTurk/DepthDiscrim_HTML.html#1,1,1349,657,1366,768,6-12-2021,7-25-44,158,,,,,,,971,506,256,491,249,501,feet,4,5,depth_discrimination_stimuli/002678_2014-06-13_16-15-32_094959634447_rgbf000151-resize_6/002678_2014-06-13_16-15-32_094959634447_rgbf000151-resize-original.jpg,3358,1078089,1209086,36
529702,DepthScenes,duration_discrimination,discrim_jsons/d0_dr.json,http://54.197.185.130/DepthDuration/depth_discrimination_MTurk/DepthDiscrim_HTML.html#1,1,1349,657,1366,768,6-12-2021,7-25-44,159,,,,,,,971,506,256,491,249,501,feet,3,5,depth_discrimination_stimuli/003587_2014-05-23_16-48-02_094959634447_rgbf002384-resize_2/003587_2014-05-23_16-48-02_094959634447_rgbf002384-resize-original.jpg,3212,1078089,1209086,36
529702,DepthScenes,duration_discrimination,discrim_jsons/d0_dr.json,http://54.197.185.130/DepthDuration/depth_discrimination_MTurk/DepthDiscrim_HTML.html#1,1,1349,657,1366,768,6-12-2021,7-25-44,160,,,,,,,971,506,256,491,249,501,feet,2,4,depth_discrimination_stimuli/000457_2014-06-08_16-52-43_260595134347_rgbf000199-resize_1/000457_2014-06-08_16-52-43_260595134347_rgbf000199-resize-original.jpg,4901,1078089,1209086,36
529702,DepthScenes,duration_discrimination,discrim_jsons/d0_dr.json,http://54.197.185.130/DepthDuration/depth_discrimination_MTurk/DepthDiscrim_HTML.html#1,1,1349,657,1366,768,6-12-2021,7-25-44,161,,,,,,,971,506,256,491,249,501,feet,1,5,depth_discrimination_stimuli/002784_2014-06-22_19-26-30_094959634447_rgbf000083-resize_3/002784_2014-06-22_19-26-30_094959634447_rgbf000083-resize-original.jpg,2681,1078089,1209086,36
529702,DepthScenes,duration_discrimination,discrim_jsons/d0_dr.json,http://54.197.185.130/DepthDuration/depth_discrimination_MTurk/DepthDiscrim_HTML.html#1,1,1349,657,1366,768,6-12-2021,7-25-44,162,,,,,,,971,506,256,491,249,501,feet,3,4,depth_discrimination_stimuli/000780_2014-06-08_22-28-29_260595134347_rgbf000126-resize_1/000780_2014-06-08_22-28-29_260595134347_rgbf000126-resize-original.jpg,4203,1078089,1209086,36
529702,DepthScenes,duration_discrimination,discrim_jsons/d0_dr.json,http://54.197.185.130/DepthDuration/depth_discrimination_MTurk/DepthDiscrim_HTML.html#1,1,1349,657,1366,768,6-12-2021,7-25-44,163,,,,,,,971,506,256,491,249,501,feet,3,5,depth_discrimination_stimuli/003083_2014-06-15_15-21-03_094959634447_rgbf000063-resize_1/003083_2014-06-15_15-21-03_094959634447_rgbf000063-resize-original.jpg,2894,1078089,1209086,36
529702,DepthScenes,duration_discrimination,discrim_jsons/d0_dr.json,http://54.197.185.130/DepthDuration/depth_discrimination_MTurk/DepthDiscrim_HTML.html#1,1,1349,657,1366,768,6-12-2021,7-25-44,164,,,,,,,971,506,256,491,249,501,feet,2,5,depth_discrimination_stimuli/001449_2014-06-19_17-01-27_260595134347_rgbf000116-resize_2/001449_2014-06-19_17-01-27_260595134347_rgbf000116-resize-original.jpg,3641,1078089,1209086,36
529702,DepthScenes,duration_discrimination,discrim_jsons/d0_dr.json,http://54.197.185.130/DepthDuration/depth_discrimination_MTurk/DepthDiscrim_HTML.html#1,1,1349,657,1366,768,6-12-2021,7-25-44,165,,,,,,,971,506,256,491,249,501,feet,2,5,depth_discrimination_stimuli/003069_2014-06-15_14-57-50_094959634447_rgbf000150-resize_4/003069_2014-06-15_14-57-50_094959634447_rgbf000150-resize-original.jpg,10019,1078089,1209086,36
529702,DepthScenes,duration_discrimination,discrim_jsons/d0_dr.json,http://54.197.185.130/DepthDuration/depth_discrimination_MTurk/DepthDiscrim_HTML.html#1,1,1349,657,1366,768,6-12-2021,7-25-44,166,,,,,,,971,506,256,491,249,501,feet,2,5,depth_discrimination_stimuli/003338_2014-05-20_11-01-23_094959634447_rgbf000051-resize_6/003338_2014-05-20_11-01-23_094959634447_rgbf000051-resize-original.jpg,9644,1078089,1209086,36
529702,DepthScenes,duration_discrimination,discrim_jsons/d0_dr.json,http://54.197.185.130/DepthDuration/depth_discrimination_MTurk/DepthDiscrim_HTML.html#1,1,1349,657,1366,768,6-12-2021,7-25-44,167,,,,,,,971,506,256,491,249,501,feet,3,5,depth_discrimination_stimuli/000906_2014-06-08_13-35-43_260595134347_rgbf000155-resize_1/000906_2014-06-08_13-35-43_260595134347_rgbf000155-resize-original.jpg,3300,1078089,1209086,36
529702,DepthScenes,duration_discrimination,discrim_jsons/d0_dr.json,http://54.197.185.130/DepthDuration/depth_discrimination_MTurk/DepthDiscrim_HTML.html#1,1,1349,657,1366,768,6-12-2021,7-25-44,168,,,,,,,971,506,256,491,249,501,feet,2,4,depth_discrimination_stimuli/000740_2014-06-08_18-46-23_260595134347_rgbf000049-resize_6/000740_2014-06-08_18-46-23_260595134347_rgbf000049-resize-original.jpg,2926,1078089,1209086,36
529702,DepthScenes,duration_discrimination,discrim_jsons/d0_dr.json,http://54.197.185.130/DepthDuration/depth_discrimination_MTurk/DepthDiscrim_HTML.html#1,1,1349,657,1366,768,6-12-2021,7-25-44,169,,,,,,,971,506,256,491,249,501,feet,3,5,depth_discrimination_stimuli/001828_2014-06-26_21-40-03_260595134347_rgbf000024-resize_0/001828_2014-06-26_21-40-03_260595134347_rgbf000024-resize-original.jpg,4166,1078089,1209086,36
529702,DepthScenes,duration_discrimination,discrim_jsons/d0_dr.json,http://54.197.185.130/DepthDuration/depth_discrimination_MTurk/DepthDiscrim_HTML.html#1,1,1349,657,1366,768,6-12-2021,7-25-44,170,,,,,,,971,506,256,491,249,501,feet,5,5,depth_discrimination_stimuli/000103_2014-05-14_22-01-17_260595134347_rgbf000152-resize_5/000103_2014-05-14_22-01-17_260595134347_rgbf000152-resize-original.jpg,2514,1078089,1209086,36
529702,DepthScenes,duration_discrimination,discrim_jsons/d0_dr.json,http://54.197.185.130/DepthDuration/depth_discrimination_MTurk/DepthDiscrim_HTML.html#1,1,1349,657,1366,768,6-12-2021,7-25-44,171,,,,,,,971,506,256,491,249,501,feet,1,5,depth_discrimination_stimuli/002725_2014-06-22_11-47-51_094959634447_rgbf000070-resize_1/002725_2014-06-22_11-47-51_094959634447_rgbf000070-resize-original.jpg,2502,1078089,1209086,36
529702,DepthScenes,duration_discrimination,discrim_jsons/d0_dr.json,http://54.197.185.130/DepthDuration/depth_discrimination_MTurk/DepthDiscrim_HTML.html#1,1,1349,657,1366,768,6-12-2021,7-25-44,172,,,,,,,971,506,256,491,249,501,feet,3,4,depth_discrimination_stimuli/000549_2014-06-08_22-10-24_260595134347_rgbf000247-resize_3/000549_2014-06-08_22-10-24_260595134347_rgbf000247-resize-original.jpg,4245,1078089,1209086,36
529702,DepthScenes,duration_discrimination,discrim_jsons/d0_dr.json,http://54.197.185.130/DepthDuration/depth_discrimination_MTurk/DepthDiscrim_HTML.html#1,1,1349,657,1366,768,6-12-2021,7-25-44,173,,,,,,,971,506,256,491,249,501,feet,1,5,depth_discrimination_stimuli/000753_2014-06-08_21-57-44_260595134347_rgbf000123-resize_3/000753_2014-06-08_21-57-44_260595134347_rgbf000123-resize-original.jpg,2354,1078089,1209086,36
529702,DepthScenes,duration_discrimination,discrim_jsons/d0_dr.json,http://54.197.185.130/DepthDuration/depth_discrimination_MTurk/DepthDiscrim_HTML.html#1,1,1349,657,1366,768,6-12-2021,7-25-44,174,,,,,,,971,506,256,491,249,501,feet,1,5,depth_discrimination_stimuli/000810_2014-06-08_17-20-01_260595134347_rgbf000105-resize_0/000810_2014-06-08_17-20-01_260595134347_rgbf000105-resize-original.jpg,2047,1078089,1209086,36
529702,DepthScenes,duration_discrimination,discrim_jsons/d0_dr.json,http://54.197.185.130/DepthDuration/depth_discrimination_MTurk/DepthDiscrim_HTML.html#1,1,1349,657,1366,768,6-12-2021,7-25-44,175,,,,,,,971,506,256,491,249,501,feet,1,1,depth_discrimination_stimuli/000869_2014-06-09_20-50-18_260595134347_rgbf000060-resize_3/000869_2014-06-09_20-50-18_260595134347_rgbf000060-resize-original.jpg,4951,1078089,1209086,36
529702,DepthScenes,duration_discrimination,discrim_jsons/d0_dr.json,http://54.197.185.130/DepthDuration/depth_discrimination_MTurk/DepthDiscrim_HTML.html#1,1,1349,657,1366,768,6-12-2021,7-25-44,176,,,,,,,971,506,256,491,249,501,feet,3,5,depth_discrimination_stimuli/000009_2014-05-26_14-32-05_260595134347_rgbf000034-resize_3/000009_2014-05-26_14-32-05_260595134347_rgbf000034-resize-original.jpg,2486,1078089,1209086,36
529702,DepthScenes,duration_discrimination,discrim_jsons/d0_dr.json,http://54.197.185.130/DepthDuration/depth_discrimination_MTurk/DepthDiscrim_HTML.html#1,1,1349,657,1366,768,6-12-2021,7-25-44,177,,,,,,,971,506,256,491,249,501,feet,3,4,depth_discrimination_stimuli/000735_2014-06-08_18-23-50_260595134347_rgbf000163-resize_2/000735_2014-06-08_18-23-50_260595134347_rgbf000163-resize-original.jpg,2464,1078089,1209086,36
529702,DepthScenes,duration_discrimination,discrim_jsons/d0_dr.json,http://54.197.185.130/DepthDuration/depth_discrimination_MTurk/DepthDiscrim_HTML.html#1,1,1349,657,1366,768,6-12-2021,7-25-44,178,,,,,,,971,506,256,491,249,501,feet,4,3,depth_discrimination_stimuli/002509_2014-06-24_13-19-22_094959634447_rgbf000077-resize_0/002509_2014-06-24_13-19-22_094959634447_rgbf000077-resize-original.jpg,3622,1078089,1209086,36
529702,DepthScenes,duration_discrimination,discrim_jsons/d0_dr.json,http://54.197.185.130/DepthDuration/depth_discrimination_MTurk/DepthDiscrim_HTML.html#1,1,1349,657,1366,768,6-12-2021,7-25-44,179,,,,,,,971,506,256,491,249,501,feet,4,5,depth_discrimination_stimuli/000556_2014-06-09_22-42-56_260595134347_rgbf000214-resize_1/000556_2014-06-09_22-42-56_260595134347_rgbf000214-resize-original.jpg,2639,1078089,1209086,36
529702,DepthScenes,duration_discrimination,discrim_jsons/d0_dr.json,http://54.197.185.130/DepthDuration/depth_discrimination_MTurk/DepthDiscrim_HTML.html#1,1,1349,657,1366,768,6-12-2021,7-25-44,180,,,,,,,971,506,256,491,249,501,feet,3,4,depth_discrimination_stimuli/003621_2014-05-23_18-06-08_094959634447_rgbf000101-resize_1/003621_2014-05-23_18-06-08_094959634447_rgbf000101-resize-original.jpg,3847,1078089,1209086,36
529702,DepthScenes,duration_discrimination,discrim_jsons/d0_dr.json,http://54.197.185.130/DepthDuration/depth_discrimination_MTurk/DepthDiscrim_HTML.html#1,1,1349,657,1366,768,6-12-2021,7-25-44,181,,,,,,,971,506,256,491,249,501,feet,5,5,scene_property_catch_stimuli/sun_aatxlublfjchvvzu.jpg,2467,1078089,1209086,36
529702,DepthScenes,duration_discrimination,discrim_jsons/d0_dr.json,http://54.197.185.130/DepthDuration/depth_discrimination_MTurk/DepthDiscrim_HTML.html#1,1,1349,657,1366,768,6-12-2021,7-25-44,182,,,,,,,971,506,256,491,249,501,feet,2,4,depth_discrimination_stimuli/001289_2014-06-16_16-25-52_260595134347_rgbf000067-resize_1/001289_2014-06-16_16-25-52_260595134347_rgbf000067-resize-original.jpg,3652,1078089,1209086,36
529702,DepthScenes,duration_discrimination,discrim_jsons/d0_dr.json,http://54.197.185.130/DepthDuration/depth_discrimination_MTurk/DepthDiscrim_HTML.html#1,1,1349,657,1366,768,6-12-2021,7-25-44,183,,,,,,,971,506,256,491,249,501,feet,2,5,depth_discrimination_stimuli/003288_2014-05-14_21-50-30_094959634447_rgbf000028-resize_3/003288_2014-05-14_21-50-30_094959634447_rgbf000028-resize-original.jpg,3421,1078089,1209086,36
529702,DepthScenes,duration_discrimination,discrim_jsons/d0_dr.json,http://54.197.185.130/DepthDuration/depth_discrimination_MTurk/DepthDiscrim_HTML.html#1,1,1349,657,1366,768,6-12-2021,7-25-44,184,,,,,,,971,506,256,491,249,501,feet,3,4,depth_discrimination_stimuli/002279_2014-06-28_18-55-32_260595134347_rgbf000040-resize_5/002279_2014-06-28_18-55-32_260595134347_rgbf000040-resize-original.jpg,4003,1078089,1209086,36
529702,DepthScenes,duration_discrimination,discrim_jsons/d0_dr.json,http://54.197.185.130/DepthDuration/depth_discrimination_MTurk/DepthDiscrim_HTML.html#1,1,1349,657,1366,768,6-12-2021,7-25-44,185,,,,,,,971,506,256,491,249,501,feet,3,5,depth_discrimination_stimuli/000470_2014-06-09_19-42-40_260595134347_rgbf000094-resize_1/000470_2014-06-09_19-42-40_260595134347_rgbf000094-resize-original.jpg,3436,1078089,1209086,36
529702,DepthScenes,duration_discrimination,discrim_jsons/d0_dr.json,http://54.197.185.130/DepthDuration/depth_discrimination_MTurk/DepthDiscrim_HTML.html#1,1,1349,657,1366,768,6-12-2021,7-25-44,186,,,,,,,971,506,256,491,249,501,feet,3,3,depth_discrimination_stimuli/002663_2014-06-13_15-50-26_094959634447_rgbf000075-resize_1/002663_2014-06-13_15-50-26_094959634447_rgbf000075-resize-original.jpg,4447,1078089,1209086,36
529702,DepthScenes,duration_discrimination,discrim_jsons/d0_dr.json,http://54.197.185.130/DepthDuration/depth_discrimination_MTurk/DepthDiscrim_HTML.html#1,1,1349,657,1366,768,6-12-2021,7-25-44,187,,,,,,,971,506,256,491,249,501,feet,2,3,depth_discrimination_stimuli/000677_2014-06-08_23-10-32_260595134347_rgbf000158-resize_6/000677_2014-06-08_23-10-32_260595134347_rgbf000158-resize-original.jpg,3579,1078089,1209086,36
529702,DepthScenes,duration_discrimination,discrim_jsons/d0_dr.json,http://54.197.185.130/DepthDuration/depth_discrimination_MTurk/DepthDiscrim_HTML.html#1,1,1349,657,1366,768,6-12-2021,7-25-44,188,,,,,,,971,506,256,491,249,501,feet,1,5,depth_discrimination_stimuli/000682_2014-06-08_23-14-58_260595134347_rgbf000041-resize_5/000682_2014-06-08_23-14-58_260595134347_rgbf000041-resize-original.jpg,2956,1078089,1209086,36
529702,DepthScenes,duration_discrimination,discrim_jsons/d0_dr.json,http://54.197.185.130/DepthDuration/depth_discrimination_MTurk/DepthDiscrim_HTML.html#1,1,1349,657,1366,768,6-12-2021,7-25-44,189,,,,,,,971,506,256,491,249,501,feet,2,5,depth_discrimination_stimuli/000506_2014-06-08_23-21-00_260595134347_rgbf000070-resize_7/000506_2014-06-08_23-21-00_260595134347_rgbf000070-resize-original.jpg,3745,1078089,1209086,36
529702,DepthScenes,duration_discrimination,discrim_jsons/d0_dr.json,http://54.197.185.130/DepthDuration/depth_discrimination_MTurk/DepthDiscrim_HTML.html#1,1,1349,657,1366,768,6-12-2021,7-25-44,190,,,,,,,971,506,256,491,249,501,feet,2,4,depth_discrimination_stimuli/000800_2014-06-08_22-42-09_260595134347_rgbf000095-resize_3/000800_2014-06-08_22-42-09_260595134347_rgbf000095-resize-original.jpg,3272,1078089,1209086,36
529702,DepthScenes,duration_discrimination,discrim_jsons/d0_dr.json,http://54.197.185.130/DepthDuration/depth_discrimination_MTurk/DepthDiscrim_HTML.html#1,1,1349,657,1366,768,6-12-2021,7-25-44,191,,,,,,,971,506,256,491,249,501,feet,4,5,depth_discrimination_stimuli/000642_2014-06-08_16-59-25_260595134347_rgbf000098-resize_2/000642_2014-06-08_16-59-25_260595134347_rgbf000098-resize-original.jpg,3145,1078089,1209086,36
529702,DepthScenes,duration_discrimination,discrim_jsons/d0_dr.json,http://54.197.185.130/DepthDuration/depth_discrimination_MTurk/DepthDiscrim_HTML.html#1,1,1349,657,1366,768,6-12-2021,7-25-44,192,,,,,,,971,506,256,491,249,501,feet,5,5,depth_discrimination_stimuli/002600_2014-06-24_14-27-04_094959634447_rgbf000074-resize_2/002600_2014-06-24_14-27-04_094959634447_rgbf000074-resize-original.jpg,3268,1078089,1209086,36
529702,DepthScenes,duration_discrimination,discrim_jsons/d0_dr.json,http://54.197.185.130/DepthDuration/depth_discrimination_MTurk/DepthDiscrim_HTML.html#1,1,1349,657,1366,768,6-12-2021,7-25-44,193,,,,,,,971,506,256,491,249,501,feet,4,5,depth_discrimination_stimuli/002700_2014-06-22_11-27-02_094959634447_rgbf000124-resize_3/002700_2014-06-22_11-27-02_094959634447_rgbf000124-resize-original.jpg,2807,1078089,1209086,36
529702,DepthScenes,duration_discrimination,discrim_jsons/d0_dr.json,http://54.197.185.130/DepthDuration/depth_discrimination_MTurk/DepthDiscrim_HTML.html#1,1,1349,657,1366,768,6-12-2021,7-25-44,194,,,,,,,971,506,256,491,249,501,feet,4,4,depth_discrimination_stimuli/003228_2014-05-14_13-42-35_094959634447_rgbf000101-resize_1/003228_2014-05-14_13-42-35_094959634447_rgbf000101-resize-original.jpg,3682,1078089,1209086,36
529702,DepthScenes,duration_discrimination,discrim_jsons/d0_dr.json,http://54.197.185.130/DepthDuration/depth_discrimination_MTurk/DepthDiscrim_HTML.html#1,1,1349,657,1366,768,6-12-2021,7-25-44,195,,,,,,,971,506,256,491,249,501,feet,4,4,depth_discrimination_stimuli/000749_2014-06-08_21-55-06_260595134347_rgbf000070-resize_2/000749_2014-06-08_21-55-06_260595134347_rgbf000070-resize-original.jpg,3493,1078089,1209086,36
529702,DepthScenes,duration_discrimination,discrim_jsons/d0_dr.json,http://54.197.185.130/DepthDuration/depth_discrimination_MTurk/DepthDiscrim_HTML.html#1,1,1349,657,1366,768,6-12-2021,7-25-44,196,,,,,,,971,506,256,491,249,501,feet,1,4,depth_discrimination_stimuli/000854_2014-06-09_19-43-13_260595134347_rgbf000066-resize_0/000854_2014-06-09_19-43-13_260595134347_rgbf000066-resize-original.jpg,4483,1078089,1209086,36
529702,DepthScenes,duration_discrimination,discrim_jsons/d0_dr.json,http://54.197.185.130/DepthDuration/depth_discrimination_MTurk/DepthDiscrim_HTML.html#1,1,1349,657,1366,768,6-12-2021,7-25-44,197,,,,,,,971,506,256,491,249,501,feet,2,4,depth_discrimination_stimuli/000929_2014-06-09_16-33-19_260595134347_rgbf000139-resize_0/000929_2014-06-09_16-33-19_260595134347_rgbf000139-resize-original.jpg,3290,1078089,1209086,36
529702,DepthScenes,duration_discrimination,discrim_jsons/d0_dr.json,http://54.197.185.130/DepthDuration/depth_discrimination_MTurk/DepthDiscrim_HTML.html#1,1,1349,657,1366,768,6-12-2021,7-25-44,198,,,,,,,971,506,256,491,249,501,feet,2,5,depth_discrimination_stimuli/002750_2014-06-22_19-08-03_094959634447_rgbf000094-resize_4/002750_2014-06-22_19-08-03_094959634447_rgbf000094-resize-original.jpg,3808,1078089,1209086,36
