subjID,experimentName,versionName,sequenceName,url,selected_row,windowWidth,windowHeight,screenWidth,screenHeight,startDate,startTime,trial,stimulus_0,stimulus_1,duration,actual_depth_0,actual_depth_1,discrim_choice,trial_RT,log_fixation,log_sceneDuration1,log_mask1,log_sceneDuration2,log_mask2,unitSelection,meanDepth_rating,navigability_rating,rated_stimulus,rating_RT,experimentTime,totalTime,age
300800,DepthScenes,duration_discrimination,discrim_jsons/d0_dr.json,http://54.197.185.130/DepthDuration/depth_discrimination_MTurk/DepthDiscrim_HTML.html#1,1,1366,768,1366,768,6-12-2021,8-27-45,1,depth_discrimination_stimuli/002639_2014-06-24_14-51-37_094959634447_rgbf000074-resize_4/002639_2014-06-24_14-51-37_094959634447_rgbf000074-resize_4-target.png,depth_discrimination_stimuli/001132_2014-06-17_14-48-54_260595134347_rgbf000100-resize_2/001132_2014-06-17_14-48-54_260595134347_rgbf000100-resize_2-target.png,250,4.0375,3.753,0,9980,515,251,500,248,493,meters,,,,,2369827,2591003,27
300800,DepthScenes,duration_discrimination,discrim_jsons/d0_dr.json,http://54.197.185.130/DepthDuration/depth_discrimination_MTurk/DepthDiscrim_HTML.html#1,1,1366,768,1366,768,6-12-2021,8-27-45,2,depth_discrimination_stimuli/001100_2014-06-15_17-46-26_260595134347_rgbf000225-resize_2/001100_2014-06-15_17-46-26_260595134347_rgbf000225-resize_2-target.png,depth_discrimination_stimuli/002131_2014-06-25_21-12-01_260595134347_rgbf000083-resize_0/002131_2014-06-25_21-12-01_260595134347_rgbf000083-resize_0-target.png,250,2.24,1.7685,1,2437,505,249,498,260,503,meters,,,,,2369827,2591003,27
300800,DepthScenes,duration_discrimination,discrim_jsons/d0_dr.json,http://54.197.185.130/DepthDuration/depth_discrimination_MTurk/DepthDiscrim_HTML.html#1,1,1366,768,1366,768,6-12-2021,8-27-45,3,depth_discrimination_stimuli/002444_2014-06-28_20-32-08_260595134347_rgbf000027-resize_0/002444_2014-06-28_20-32-08_260595134347_rgbf000027-resize_0-target.png,depth_discrimination_stimuli/003048_2014-06-15_13-49-43_094959634447_rgbf000150-resize_1/003048_2014-06-15_13-49-43_094959634447_rgbf000150-resize_1-target.png,250,4.389,4.0035,1,1268,505,248,511,248,497,meters,,,,,2369827,2591003,27
300800,DepthScenes,duration_discrimination,discrim_jsons/d0_dr.json,http://54.197.185.130/DepthDuration/depth_discrimination_MTurk/DepthDiscrim_HTML.html#1,1,1366,768,1366,768,6-12-2021,8-27-45,4,depth_discrimination_stimuli/002549_2014-06-24_13-41-39_094959634447_rgbf000022-resize_3/002549_2014-06-24_13-41-39_094959634447_rgbf000022-resize_3-target.png,depth_discrimination_stimuli/002545_2014-06-24_13-38-53_094959634447_rgbf000080-resize_4/002545_2014-06-24_13-38-53_094959634447_rgbf000080-resize_4-target.png,1000,1.476,1.9205,0,1896,511,993,498,1006,500,meters,,,,,2369827,2591003,27
300800,DepthScenes,duration_discrimination,discrim_jsons/d0_dr.json,http://54.197.185.130/DepthDuration/depth_discrimination_MTurk/DepthDiscrim_HTML.html#1,1,1366,768,1366,768,6-12-2021,8-27-45,5,depth_discrimination_stimuli/000454_2014-06-08_16-37-28_260595134347_rgbf000048-resize_2/000454_2014-06-08_16-37-28_260595134347_rgbf000048-resize_2-target.png,depth_discrimination_stimuli/000375_2014-06-08_11-17-29_260595134347_rgbf000133-resize_2/000375_2014-06-08_11-17-29_260595134347_rgbf000133-resize_2-target.png,1000,1.213,4.718,0,1997,509,993,511,997,495,meters,,,,,2369827,2591003,27
300800,DepthScenes,duration_discrimination,discrim_jsons/d0_dr.json,http://54.197.185.130/DepthDuration/depth_discrimination_MTurk/DepthDiscrim_HTML.html#1,1,1366,768,1366,768,6-12-2021,8-27-45,6,depth_discrimination_stimuli/002467_2014-06-28_20-38-07_260595134347_rgbf000026-resize_2/002467_2014-06-28_20-38-07_260595134347_rgbf000026-resize_2-target.png,depth_discrimination_stimuli/001175_2014-06-17_15-45-55_260595134347_rgbf000129-resize_4/001175_2014-06-17_15-45-55_260595134347_rgbf000129-resize_4-target.png,250,4.742,4.255,1,836,504,248,504,250,495,meters,,,,,2369827,2591003,27
300800,DepthScenes,duration_discrimination,discrim_jsons/d0_dr.json,http://54.197.185.130/DepthDuration/depth_discrimination_MTurk/DepthDiscrim_HTML.html#1,1,1366,768,1366,768,6-12-2021,8-27-45,7,depth_discrimination_stimuli/002279_2014-06-28_18-55-32_260595134347_rgbf000040-resize_5/002279_2014-06-28_18-55-32_260595134347_rgbf000040-resize_5-target.png,depth_discrimination_stimuli/002949_2014-06-26_15-57-42_094959634447_rgbf000079-resize_1/002949_2014-06-26_15-57-42_094959634447_rgbf000079-resize_1-target.png,250,1.5043333333333,1.8915,0,2184,510,250,495,250,498,meters,,,,,2369827,2591003,27
300800,DepthScenes,duration_discrimination,discrim_jsons/d0_dr.json,http://54.197.185.130/DepthDuration/depth_discrimination_MTurk/DepthDiscrim_HTML.html#1,1,1366,768,1366,768,6-12-2021,8-27-45,8,depth_discrimination_stimuli/001450_2014-06-19_17-02-03_260595134347_rgbf000203-resize_4/001450_2014-06-19_17-02-03_260595134347_rgbf000203-resize_4-target.png,depth_discrimination_stimuli/002039_2014-06-24_20-22-38_260595134347_rgbf000084-resize_1/002039_2014-06-24_20-22-38_260595134347_rgbf000084-resize_1-target.png,1000,4.0106666666667,4.408,1,1600,514,994,495,1001,502,meters,,,,,2369827,2591003,27
300800,DepthScenes,duration_discrimination,discrim_jsons/d0_dr.json,http://54.197.185.130/DepthDuration/depth_discrimination_MTurk/DepthDiscrim_HTML.html#1,1,1366,768,1366,768,6-12-2021,8-27-45,9,depth_discrimination_stimuli/000469_2014-06-09_19-42-10_260595134347_rgbf000081-resize_1/000469_2014-06-09_19-42-10_260595134347_rgbf000081-resize_1-target.png,depth_discrimination_stimuli/002136_2014-06-25_21-18-03_260595134347_rgbf000109-resize_3/002136_2014-06-25_21-18-03_260595134347_rgbf000109-resize_3-target.png,1000,1.652,1.957,0,3550,509,998,495,1009,495,meters,,,,,2369827,2591003,27
300800,DepthScenes,duration_discrimination,discrim_jsons/d0_dr.json,http://54.197.185.130/DepthDuration/depth_discrimination_MTurk/DepthDiscrim_HTML.html#1,1,1366,768,1366,768,6-12-2021,8-27-45,10,depth_discrimination_stimuli/000635_2014-06-08_16-38-42_260595134347_rgbf000106-resize_1/000635_2014-06-08_16-38-42_260595134347_rgbf000106-resize_1-target.png,depth_discrimination_stimuli/001516_2014-06-20_16-25-09_260595134347_rgbf000076-resize_2/001516_2014-06-20_16-25-09_260595134347_rgbf000076-resize_2-target.png,250,2.074,1.7445,1,801,503,250,512,240,500,meters,,,,,2369827,2591003,27
300800,DepthScenes,duration_discrimination,discrim_jsons/d0_dr.json,http://54.197.185.130/DepthDuration/depth_discrimination_MTurk/DepthDiscrim_HTML.html#1,1,1366,768,1366,768,6-12-2021,8-27-45,11,depth_discrimination_stimuli/002579_2014-06-24_14-08-03_094959634447_rgbf000061-resize_2/002579_2014-06-24_14-08-03_094959634447_rgbf000061-resize_2-target.png,depth_discrimination_stimuli/002468_2014-06-28_20-38-39_260595134347_rgbf000045-resize_1/002468_2014-06-28_20-38-39_260595134347_rgbf000045-resize_1-target.png,1000,2.223125,1.956,0,3149,505,1010,495,993,506,meters,,,,,2369827,2591003,27
300800,DepthScenes,duration_discrimination,discrim_jsons/d0_dr.json,http://54.197.185.130/DepthDuration/depth_discrimination_MTurk/DepthDiscrim_HTML.html#1,1,1366,768,1366,768,6-12-2021,8-27-45,12,depth_discrimination_stimuli/000692_2014-06-08_13-09-42_260595134347_rgbf000199-resize_2/000692_2014-06-08_13-09-42_260595134347_rgbf000199-resize_2-target.png,depth_discrimination_stimuli/002103_2014-06-25_20-00-40_260595134347_rgbf000049-resize_0/002103_2014-06-25_20-00-40_260595134347_rgbf000049-resize_0-target.png,1000,3.661,4.105,0,2480,500,1011,497,996,505,meters,,,,,2369827,2591003,27
300800,DepthScenes,duration_discrimination,discrim_jsons/d0_dr.json,http://54.197.185.130/DepthDuration/depth_discrimination_MTurk/DepthDiscrim_HTML.html#1,1,1366,768,1366,768,6-12-2021,8-27-45,13,depth_discrimination_stimuli/002460_2014-06-28_20-35-43_260595134347_rgbf000028-resize_4/002460_2014-06-28_20-35-43_260595134347_rgbf000028-resize_4-target.png,depth_discrimination_stimuli/001806_2014-06-26_20-50-20_260595134347_rgbf000091-resize_1/001806_2014-06-26_20-50-20_260595134347_rgbf000091-resize_1-target.png,250,2.269,2.7305,0,2441,508,250,501,249,496,meters,,,,,2369827,2591003,27
300800,DepthScenes,duration_discrimination,discrim_jsons/d0_dr.json,http://54.197.185.130/DepthDuration/depth_discrimination_MTurk/DepthDiscrim_HTML.html#1,1,1366,768,1366,768,6-12-2021,8-27-45,14,depth_discrimination_stimuli/003587_2014-05-23_16-48-02_094959634447_rgbf002384-resize_2/003587_2014-05-23_16-48-02_094959634447_rgbf002384-resize_2-target.png,depth_discrimination_stimuli/000709_2014-06-08_13-51-55_260595134347_rgbf000068-resize_3/000709_2014-06-08_13-51-55_260595134347_rgbf000068-resize_3-target.png,1000,1.357,1.803,1,4410,508,996,511,992,504,meters,,,,,2369827,2591003,27
300800,DepthScenes,duration_discrimination,discrim_jsons/d0_dr.json,http://54.197.185.130/DepthDuration/depth_discrimination_MTurk/DepthDiscrim_HTML.html#1,1,1366,768,1366,768,6-12-2021,8-27-45,15,depth_discrimination_stimuli/000734_2014-06-08_17-39-11_260595134347_rgbf000128-resize_2/000734_2014-06-08_17-39-11_260595134347_rgbf000128-resize_2-target.png,depth_discrimination_stimuli/001148_2014-06-17_15-26-42_260595134347_rgbf000129-resize_0/001148_2014-06-17_15-26-42_260595134347_rgbf000129-resize_0-target.png,1000,4.098,4.368,1,2087,502,1004,504,994,519,meters,,,,,2369827,2591003,27
300800,DepthScenes,duration_discrimination,discrim_jsons/d0_dr.json,http://54.197.185.130/DepthDuration/depth_discrimination_MTurk/DepthDiscrim_HTML.html#1,1,1366,768,1366,768,6-12-2021,8-27-45,16,depth_discrimination_stimuli/002445_2014-06-28_20-32-16_260595134347_rgbf000029-resize_4/002445_2014-06-28_20-32-16_260595134347_rgbf000029-resize_4-target.png,depth_discrimination_stimuli/002043_2014-06-24_20-29-38_260595134347_rgbf000039-resize_4/002043_2014-06-24_20-29-38_260595134347_rgbf000039-resize_4-target.png,1000,2.5315,2.8435,0,1632,515,995,498,996,507,meters,,,,,2369827,2591003,27
300800,DepthScenes,duration_discrimination,discrim_jsons/d0_dr.json,http://54.197.185.130/DepthDuration/depth_discrimination_MTurk/DepthDiscrim_HTML.html#1,1,1366,768,1366,768,6-12-2021,8-27-45,17,depth_discrimination_stimuli/003395_2014-05-20_15-39-18_094959634447_rgbf000101-resize_0/003395_2014-05-20_15-39-18_094959634447_rgbf000101-resize_0-target.png,depth_discrimination_stimuli/001540_2014-06-20_17-01-05_260595134347_rgbf000086-resize_2/001540_2014-06-20_17-01-05_260595134347_rgbf000086-resize_2-target.png,250,4.835,1.459,0,1342,508,248,499,252,497,meters,,,,,2369827,2591003,27
300800,DepthScenes,duration_discrimination,discrim_jsons/d0_dr.json,http://54.197.185.130/DepthDuration/depth_discrimination_MTurk/DepthDiscrim_HTML.html#1,1,1366,768,1366,768,6-12-2021,8-27-45,18,depth_discrimination_stimuli/001449_2014-06-19_17-01-27_260595134347_rgbf000116-resize_2/001449_2014-06-19_17-01-27_260595134347_rgbf000116-resize_2-target.png,depth_discrimination_stimuli/002630_2014-06-24_14-47-50_094959634447_rgbf000055-resize_1/002630_2014-06-24_14-47-50_094959634447_rgbf000055-resize_1-target.png,1000,3.452,3.0095,0,1490,502,1005,521,976,503,meters,,,,,2369827,2591003,27
300800,DepthScenes,duration_discrimination,discrim_jsons/d0_dr.json,http://54.197.185.130/DepthDuration/depth_discrimination_MTurk/DepthDiscrim_HTML.html#1,1,1366,768,1366,768,6-12-2021,8-27-45,19,depth_discrimination_stimuli/001555_2014-06-20_17-12-10_260595134347_rgbf000065-resize_4/001555_2014-06-20_17-12-10_260595134347_rgbf000065-resize_4-target.png,depth_discrimination_stimuli/000943_2014-06-09_19-31-07_260595134347_rgbf000128-resize_1/000943_2014-06-09_19-31-07_260595134347_rgbf000128-resize_1-target.png,250,1.633,1.9765,1,1357,515,250,495,251,494,meters,,,,,2369827,2591003,27
300800,DepthScenes,duration_discrimination,discrim_jsons/d0_dr.json,http://54.197.185.130/DepthDuration/depth_discrimination_MTurk/DepthDiscrim_HTML.html#1,1,1366,768,1366,768,6-12-2021,8-27-45,20,depth_discrimination_stimuli/001808_2014-06-26_20-50-58_260595134347_rgbf000029-resize_1/001808_2014-06-26_20-50-58_260595134347_rgbf000029-resize_1-target.png,depth_discrimination_stimuli/003621_2014-05-23_18-06-08_094959634447_rgbf000101-resize_1/003621_2014-05-23_18-06-08_094959634447_rgbf000101-resize_1-target.png,1000,4.249,3.9835,1,1582,504,1010,496,991,509,meters,,,,,2369827,2591003,27
300800,DepthScenes,duration_discrimination,discrim_jsons/d0_dr.json,http://54.197.185.130/DepthDuration/depth_discrimination_MTurk/DepthDiscrim_HTML.html#1,1,1366,768,1366,768,6-12-2021,8-27-45,21,depth_discrimination_stimuli/000691_2014-06-08_13-08-50_260595134347_rgbf000132-resize_3/000691_2014-06-08_13-08-50_260595134347_rgbf000132-resize_3-target.png,depth_discrimination_stimuli/000137_2014-05-20_17-04-49_260595134347_rgbf000120-resize_1/000137_2014-05-20_17-04-49_260595134347_rgbf000120-resize_1-target.png,1000,4.153,3.786,1,1908,508,994,502,998,513,meters,,,,,2369827,2591003,27
300800,DepthScenes,duration_discrimination,discrim_jsons/d0_dr.json,http://54.197.185.130/DepthDuration/depth_discrimination_MTurk/DepthDiscrim_HTML.html#1,1,1366,768,1366,768,6-12-2021,8-27-45,22,depth_discrimination_stimuli/002509_2014-06-24_13-19-22_094959634447_rgbf000077-resize_0/002509_2014-06-24_13-19-22_094959634447_rgbf000077-resize_0-target.png,depth_discrimination_stimuli/002344_2014-06-28_20-06-29_260595134347_rgbf000030-resize_1/002344_2014-06-28_20-06-29_260595134347_rgbf000030-resize_1-target.png,1000,1.3065,1.5795,0,1593,501,1009,492,1008,496,meters,,,,,2369827,2591003,27
300800,DepthScenes,duration_discrimination,discrim_jsons/d0_dr.json,http://54.197.185.130/DepthDuration/depth_discrimination_MTurk/DepthDiscrim_HTML.html#1,1,1366,768,1366,768,6-12-2021,8-27-45,23,depth_discrimination_stimuli/002784_2014-06-22_19-26-30_094959634447_rgbf000083-resize_3/002784_2014-06-22_19-26-30_094959634447_rgbf000083-resize_3-target.png,depth_discrimination_stimuli/001532_2014-06-20_16-50-41_260595134347_rgbf000081-resize_4/001532_2014-06-20_16-50-41_260595134347_rgbf000081-resize_4-target.png,250,1.8046666666667,1.5758333333333,0,1030,501,261,496,249,498,meters,,,,,2369827,2591003,27
300800,DepthScenes,duration_discrimination,discrim_jsons/d0_dr.json,http://54.197.185.130/DepthDuration/depth_discrimination_MTurk/DepthDiscrim_HTML.html#1,1,1366,768,1366,768,6-12-2021,8-27-45,24,depth_discrimination_stimuli/000409_2014-06-04_19-23-33_260595134347_rgbf000067-resize_0/000409_2014-06-04_19-23-33_260595134347_rgbf000067-resize_0-target.png,depth_discrimination_stimuli/002464_2014-06-28_20-36-57_260595134347_rgbf000029-resize_0/002464_2014-06-28_20-36-57_260595134347_rgbf000029-resize_0-target.png,250,3.7335,3.9525,1,2806,512,247,496,249,499,meters,,,,,2369827,2591003,27
300800,DepthScenes,duration_discrimination,discrim_jsons/d0_dr.json,http://54.197.185.130/DepthDuration/depth_discrimination_MTurk/DepthDiscrim_HTML.html#1,1,1366,768,1366,768,6-12-2021,8-27-45,25,depth_discrimination_stimuli/000665_2014-06-09_20-42-35_260595134347_rgbf000110-resize_1/000665_2014-06-09_20-42-35_260595134347_rgbf000110-resize_1-target.png,depth_discrimination_stimuli/001214_2014-06-17_16-13-55_260595134347_rgbf000111-resize_0/001214_2014-06-17_16-13-55_260595134347_rgbf000111-resize_0-target.png,1000,3.057,2.6505,1,3173,512,996,511,987,502,meters,,,,,2369827,2591003,27
300800,DepthScenes,duration_discrimination,discrim_jsons/d0_dr.json,http://54.197.185.130/DepthDuration/depth_discrimination_MTurk/DepthDiscrim_HTML.html#1,1,1366,768,1366,768,6-12-2021,8-27-45,26,depth_discrimination_stimuli/001164_2014-06-17_15-35-46_260595134347_rgbf000085-resize_3/001164_2014-06-17_15-35-46_260595134347_rgbf000085-resize_3-target.png,depth_discrimination_stimuli/003228_2014-05-14_13-42-35_094959634447_rgbf000101-resize_1/003228_2014-05-14_13-42-35_094959634447_rgbf000101-resize_1-target.png,1000,2.354,1.968,1,3492,505,1010,495,1006,496,meters,,,,,2369827,2591003,27
300800,DepthScenes,duration_discrimination,discrim_jsons/d0_dr.json,http://54.197.185.130/DepthDuration/depth_discrimination_MTurk/DepthDiscrim_HTML.html#1,1,1366,768,1366,768,6-12-2021,8-27-45,27,depth_discrimination_stimuli/002953_2014-06-08_17-32-18_094959634447_rgbf000059-resize_5/002953_2014-06-08_17-32-18_094959634447_rgbf000059-resize_5-target.png,depth_discrimination_stimuli/001571_2014-06-20_17-21-32_260595134347_rgbf000089-resize_1/001571_2014-06-20_17-21-32_260595134347_rgbf000089-resize_1-target.png,250,1.551,1.86,0,1007,509,252,497,249,497,meters,,,,,2369827,2591003,27
300800,DepthScenes,duration_discrimination,discrim_jsons/d0_dr.json,http://54.197.185.130/DepthDuration/depth_discrimination_MTurk/DepthDiscrim_HTML.html#1,1,1366,768,1366,768,6-12-2021,8-27-45,28,depth_discrimination_stimuli/002700_2014-06-22_11-27-02_094959634447_rgbf000124-resize_3/002700_2014-06-22_11-27-02_094959634447_rgbf000124-resize_3-target.png,depth_discrimination_stimuli/000800_2014-06-08_22-42-09_260595134347_rgbf000095-resize_3/000800_2014-06-08_22-42-09_260595134347_rgbf000095-resize_3-target.png,250,3.301,2.8,1,1064,510,250,496,247,499,meters,,,,,2369827,2591003,27
300800,DepthScenes,duration_discrimination,discrim_jsons/d0_dr.json,http://54.197.185.130/DepthDuration/depth_discrimination_MTurk/DepthDiscrim_HTML.html#1,1,1366,768,1366,768,6-12-2021,8-27-45,29,depth_discrimination_stimuli/003546_2014-05-22_15-48-53_094959634447_rgbf004816-resize_3/003546_2014-05-22_15-48-53_094959634447_rgbf004816-resize_3-target.png,depth_discrimination_stimuli/003010_2014-06-15_12-54-35_094959634447_rgbf000112-resize_0/003010_2014-06-15_12-54-35_094959634447_rgbf000112-resize_0-target.png,250,2.62625,3.1185,0,3117,502,263,498,250,488,meters,,,,,2369827,2591003,27
300800,DepthScenes,duration_discrimination,discrim_jsons/d0_dr.json,http://54.197.185.130/DepthDuration/depth_discrimination_MTurk/DepthDiscrim_HTML.html#1,1,1366,768,1366,768,6-12-2021,8-27-45,30,depth_discrimination_stimuli/000735_2014-06-08_18-23-50_260595134347_rgbf000163-resize_2/000735_2014-06-08_18-23-50_260595134347_rgbf000163-resize_2-target.png,depth_discrimination_stimuli/003288_2014-05-14_21-50-30_094959634447_rgbf000028-resize_3/003288_2014-05-14_21-50-30_094959634447_rgbf000028-resize_3-target.png,1000,4.1695,3.877,0,2322,514,994,498,999,497,meters,,,,,2369827,2591003,27
300800,DepthScenes,duration_discrimination,discrim_jsons/d0_dr.json,http://54.197.185.130/DepthDuration/depth_discrimination_MTurk/DepthDiscrim_HTML.html#1,1,1366,768,1366,768,6-12-2021,8-27-45,31,depth_discrimination_stimuli/001170_2014-06-17_15-43-44_260595134347_rgbf000096-resize_6/001170_2014-06-17_15-43-44_260595134347_rgbf000096-resize_6-target.png,depth_discrimination_stimuli/002364_2014-06-28_20-11-05_260595134347_rgbf000042-resize_0/002364_2014-06-28_20-11-05_260595134347_rgbf000042-resize_0-target.png,1000,1.191,4.682,1,1608,506,1000,501,996,511,meters,,,,,2369827,2591003,27
300800,DepthScenes,duration_discrimination,discrim_jsons/d0_dr.json,http://54.197.185.130/DepthDuration/depth_discrimination_MTurk/DepthDiscrim_HTML.html#1,1,1366,768,1366,768,6-12-2021,8-27-45,32,depth_discrimination_stimuli/001016_2014-06-09_16-16-10_260595134347_rgbf000112-resize_5/001016_2014-06-09_16-16-10_260595134347_rgbf000112-resize_5-target.png,depth_discrimination_stimuli/001618_2014-06-20_11-37-31_260595134347_rgbf000027-resize_3/001618_2014-06-20_11-37-31_260595134347_rgbf000027-resize_3-target.png,1000,1.6565,1.8725,0,1893,502,1007,496,1009,497,meters,,,,,2369827,2591003,27
300800,DepthScenes,duration_discrimination,discrim_jsons/d0_dr.json,http://54.197.185.130/DepthDuration/depth_discrimination_MTurk/DepthDiscrim_HTML.html#1,1,1366,768,1366,768,6-12-2021,8-27-45,33,depth_discrimination_stimuli/000739_2014-06-08_18-45-58_260595134347_rgbf000068-resize_1/000739_2014-06-08_18-45-58_260595134347_rgbf000068-resize_1-target.png,depth_discrimination_stimuli/002995_2014-06-15_12-31-26_094959634447_rgbf000150-resize_1/002995_2014-06-15_12-31-26_094959634447_rgbf000150-resize_1-target.png,250,3.534,3.836,1,1050,508,246,504,255,492,meters,,,,,2369827,2591003,27
300800,DepthScenes,duration_discrimination,discrim_jsons/d0_dr.json,http://54.197.185.130/DepthDuration/depth_discrimination_MTurk/DepthDiscrim_HTML.html#1,1,1366,768,1366,768,6-12-2021,8-27-45,34,depth_discrimination_stimuli/001092_2014-06-15_17-34-58_260595134347_rgbf000171-resize_3/001092_2014-06-15_17-34-58_260595134347_rgbf000171-resize_3-target.png,depth_discrimination_stimuli/000522_2014-06-08_13-35-06_260595134347_rgbf000244-resize_1/000522_2014-06-08_13-35-06_260595134347_rgbf000244-resize_1-target.png,1000,2.6935,2.3715,0,2163,509,998,509,996,495,meters,,,,,2369827,2591003,27
300800,DepthScenes,duration_discrimination,discrim_jsons/d0_dr.json,http://54.197.185.130/DepthDuration/depth_discrimination_MTurk/DepthDiscrim_HTML.html#1,1,1366,768,1366,768,6-12-2021,8-27-45,35,depth_discrimination_stimuli/002657_2014-06-13_15-29-54_094959634447_rgbf000150-resize_1/002657_2014-06-13_15-29-54_094959634447_rgbf000150-resize_1-target.png,depth_discrimination_stimuli/002748_2014-06-22_19-07-22_094959634447_rgbf000078-resize_1/002748_2014-06-22_19-07-22_094959634447_rgbf000078-resize_1-target.png,1000,4.919,4.6705,1,1528,503,1008,491,1005,495,meters,,,,,2369827,2591003,27
300800,DepthScenes,duration_discrimination,discrim_jsons/d0_dr.json,http://54.197.185.130/DepthDuration/depth_discrimination_MTurk/DepthDiscrim_HTML.html#1,1,1366,768,1366,768,6-12-2021,8-27-45,36,depth_discrimination_stimuli/002375_2014-06-28_20-13-44_260595134347_rgbf000032-resize_1/002375_2014-06-28_20-13-44_260595134347_rgbf000032-resize_1-target.png,depth_discrimination_stimuli/001570_2014-06-20_17-21-09_260595134347_rgbf000135-resize_4/001570_2014-06-20_17-21-09_260595134347_rgbf000135-resize_4-target.png,1000,4.0175,4.467,1,2052,502,1007,502,1002,502,meters,,,,,2369827,2591003,27
300800,DepthScenes,duration_discrimination,discrim_jsons/d0_dr.json,http://54.197.185.130/DepthDuration/depth_discrimination_MTurk/DepthDiscrim_HTML.html#1,1,1366,768,1366,768,6-12-2021,8-27-45,37,depth_discrimination_stimuli/002989_2014-06-15_12-25-03_094959634447_rgbf000150-resize_3/002989_2014-06-15_12-25-03_094959634447_rgbf000150-resize_3-target.png,depth_discrimination_stimuli/001724_2014-06-26_19-28-50_260595134347_rgbf000037-resize_7/001724_2014-06-26_19-28-50_260595134347_rgbf000037-resize_7-target.png,250,4.1975,3.827,0,2296,510,249,504,250,501,meters,,,,,2369827,2591003,27
300800,DepthScenes,duration_discrimination,discrim_jsons/d0_dr.json,http://54.197.185.130/DepthDuration/depth_discrimination_MTurk/DepthDiscrim_HTML.html#1,1,1366,768,1366,768,6-12-2021,8-27-45,38,depth_discrimination_stimuli/000749_2014-06-08_21-55-06_260595134347_rgbf000070-resize_2/000749_2014-06-08_21-55-06_260595134347_rgbf000070-resize_2-target.png,depth_discrimination_stimuli/002875_2014-06-01_15-19-00_094959634447_rgbf000151-resize_1/002875_2014-06-01_15-19-00_094959634447_rgbf000151-resize_1-target.png,1000,2.331,1.9675,1,1513,504,1010,498,991,511,meters,,,,,2369827,2591003,27
300800,DepthScenes,duration_discrimination,discrim_jsons/d0_dr.json,http://54.197.185.130/DepthDuration/depth_discrimination_MTurk/DepthDiscrim_HTML.html#1,1,1366,768,1366,768,6-12-2021,8-27-45,39,depth_discrimination_stimuli/003534_2014-05-22_15-06-10_094959634447_rgbf000102-resize_4/003534_2014-05-22_15-06-10_094959634447_rgbf000102-resize_4-target.png,depth_discrimination_stimuli/002272_2014-06-28_18-53-56_260595134347_rgbf000067-resize_2/002272_2014-06-28_18-53-56_260595134347_rgbf000067-resize_2-target.png,250,1.426,1.138,0,1720,516,248,489,262,488,meters,,,,,2369827,2591003,27
300800,DepthScenes,duration_discrimination,discrim_jsons/d0_dr.json,http://54.197.185.130/DepthDuration/depth_discrimination_MTurk/DepthDiscrim_HTML.html#1,1,1366,768,1366,768,6-12-2021,8-27-45,40,depth_discrimination_stimuli/001059_2014-06-08_21-53-27_260595134347_rgbf000061-resize_4/001059_2014-06-08_21-53-27_260595134347_rgbf000061-resize_4-target.png,depth_discrimination_stimuli/000906_2014-06-08_13-35-43_260595134347_rgbf000155-resize_1/000906_2014-06-08_13-35-43_260595134347_rgbf000155-resize_1-target.png,1000,2.4185,2.849,0,2071,503,1012,497,998,503,meters,,,,,2369827,2591003,27
300800,DepthScenes,duration_discrimination,discrim_jsons/d0_dr.json,http://54.197.185.130/DepthDuration/depth_discrimination_MTurk/DepthDiscrim_HTML.html#1,1,1366,768,1366,768,6-12-2021,8-27-45,41,depth_discrimination_stimuli/001264_2014-06-16_16-10-23_260595134347_rgbf000109-resize_1/001264_2014-06-16_16-10-23_260595134347_rgbf000109-resize_1-target.png,depth_discrimination_stimuli/002340_2014-06-28_20-05-46_260595134347_rgbf000113-resize_0/002340_2014-06-28_20-05-46_260595134347_rgbf000113-resize_0-target.png,250,2.9665,2.4735,0,1916,503,249,512,245,502,meters,,,,,2369827,2591003,27
300800,DepthScenes,duration_discrimination,discrim_jsons/d0_dr.json,http://54.197.185.130/DepthDuration/depth_discrimination_MTurk/DepthDiscrim_HTML.html#1,1,1366,768,1366,768,6-12-2021,8-27-45,42,depth_discrimination_stimuli/003081_2014-06-15_15-19-16_094959634447_rgbf000150-resize_1/003081_2014-06-15_15-19-16_094959634447_rgbf000150-resize_1-target.png,depth_discrimination_stimuli/000917_2014-06-09_22-45-29_260595134347_rgbf000149-resize_3/000917_2014-06-09_22-45-29_260595134347_rgbf000149-resize_3-target.png,1000,3.9125,4.1865,1,1577,508,1002,498,997,502,meters,,,,,2369827,2591003,27
300800,DepthScenes,duration_discrimination,discrim_jsons/d0_dr.json,http://54.197.185.130/DepthDuration/depth_discrimination_MTurk/DepthDiscrim_HTML.html#1,1,1366,768,1366,768,6-12-2021,8-27-45,43,depth_discrimination_stimuli/000569_2014-06-09_22-51-47_260595134347_rgbf000141-resize_3/000569_2014-06-09_22-51-47_260595134347_rgbf000141-resize_3-target.png,depth_discrimination_stimuli/000868_2014-06-09_20-49-52_260595134347_rgbf000064-resize_4/000868_2014-06-09_20-49-52_260595134347_rgbf000064-resize_4-target.png,250,4.512,1.2815,0,3068,502,263,500,249,498,meters,,,,,2369827,2591003,27
300800,DepthScenes,duration_discrimination,discrim_jsons/d0_dr.json,http://54.197.185.130/DepthDuration/depth_discrimination_MTurk/DepthDiscrim_HTML.html#1,1,1366,768,1366,768,6-12-2021,8-27-45,44,depth_discrimination_stimuli/002988_2014-06-15_12-24-20_094959634447_rgbf000150-resize_1/002988_2014-06-15_12-24-20_094959634447_rgbf000150-resize_1-target.png,depth_discrimination_stimuli/000447_2014-06-08_16-15-46_260595134347_rgbf000130-resize_1/000447_2014-06-08_16-15-46_260595134347_rgbf000130-resize_1-target.png,250,4.767,4.479,0,1678,504,248,511,248,498,meters,,,,,2369827,2591003,27
300800,DepthScenes,duration_discrimination,discrim_jsons/d0_dr.json,http://54.197.185.130/DepthDuration/depth_discrimination_MTurk/DepthDiscrim_HTML.html#1,1,1366,768,1366,768,6-12-2021,8-27-45,45,depth_discrimination_stimuli/000457_2014-06-08_16-52-43_260595134347_rgbf000199-resize_1/000457_2014-06-08_16-52-43_260595134347_rgbf000199-resize_1-target.png,depth_discrimination_stimuli/002365_2014-06-28_20-11-21_260595134347_rgbf000102-resize_1/002365_2014-06-28_20-11-21_260595134347_rgbf000102-resize_1-target.png,250,3.649,4.013,0,965,507,252,506,236,508,meters,,,,,2369827,2591003,27
300800,DepthScenes,duration_discrimination,discrim_jsons/d0_dr.json,http://54.197.185.130/DepthDuration/depth_discrimination_MTurk/DepthDiscrim_HTML.html#1,1,1366,768,1366,768,6-12-2021,8-27-45,46,depth_discrimination_stimuli/002118_2014-06-25_20-32-08_260595134347_rgbf000078-resize_1/002118_2014-06-25_20-32-08_260595134347_rgbf000078-resize_1-target.png,depth_discrimination_stimuli/000542_2014-06-08_18-27-08_260595134347_rgbf000118-resize_1/000542_2014-06-08_18-27-08_260595134347_rgbf000118-resize_1-target.png,250,2.646,3,1,922,502,252,509,245,503,meters,,,,,2369827,2591003,27
300800,DepthScenes,duration_discrimination,discrim_jsons/d0_dr.json,http://54.197.185.130/DepthDuration/depth_discrimination_MTurk/DepthDiscrim_HTML.html#1,1,1366,768,1366,768,6-12-2021,8-27-45,47,depth_discrimination_stimuli/000682_2014-06-08_23-14-58_260595134347_rgbf000041-resize_5/000682_2014-06-08_23-14-58_260595134347_rgbf000041-resize_5-target.png,depth_discrimination_stimuli/000866_2014-06-09_20-45-42_260595134347_rgbf000139-resize_1/000866_2014-06-09_20-45-42_260595134347_rgbf000139-resize_1-target.png,1000,2.724,3.2155,0,2401,510,996,498,1010,498,meters,,,,,2369827,2591003,27
300800,DepthScenes,duration_discrimination,discrim_jsons/d0_dr.json,http://54.197.185.130/DepthDuration/depth_discrimination_MTurk/DepthDiscrim_HTML.html#1,1,1366,768,1366,768,6-12-2021,8-27-45,48,depth_discrimination_stimuli/002323_2014-06-28_20-01-54_260595134347_rgbf000051-resize_4/002323_2014-06-28_20-01-54_260595134347_rgbf000051-resize_4-target.png,depth_discrimination_stimuli/000736_2014-06-08_18-24-15_260595134347_rgbf000206-resize_3/000736_2014-06-08_18-24-15_260595134347_rgbf000206-resize_3-target.png,1000,3.731,3.515,1,1553,513,993,498,998,510,meters,,,,,2369827,2591003,27
300800,DepthScenes,duration_discrimination,discrim_jsons/d0_dr.json,http://54.197.185.130/DepthDuration/depth_discrimination_MTurk/DepthDiscrim_HTML.html#1,1,1366,768,1366,768,6-12-2021,8-27-45,49,depth_discrimination_stimuli/001235_2014-06-17_16-37-36_260595134347_rgbf000084-resize_4/001235_2014-06-17_16-37-36_260595134347_rgbf000084-resize_4-target.png,depth_discrimination_stimuli/003423_2014-05-21_10-23-26_094959634447_rgbf002665-resize_2/003423_2014-05-21_10-23-26_094959634447_rgbf002665-resize_2-target.png,250,3.6605,3.2575,0,2238,509,253,489,254,510,meters,,,,,2369827,2591003,27
300800,DepthScenes,duration_discrimination,discrim_jsons/d0_dr.json,http://54.197.185.130/DepthDuration/depth_discrimination_MTurk/DepthDiscrim_HTML.html#1,1,1366,768,1366,768,6-12-2021,8-27-45,50,depth_discrimination_stimuli/002568_2014-06-24_13-59-21_094959634447_rgbf000062-resize_4/002568_2014-06-24_13-59-21_094959634447_rgbf000062-resize_4-target.png,depth_discrimination_stimuli/000636_2014-06-08_16-39-02_260595134347_rgbf000108-resize_4/000636_2014-06-08_16-39-02_260595134347_rgbf000108-resize_4-target.png,1000,3.015,2.682,0,2108,504,1010,501,990,499,meters,,,,,2369827,2591003,27
300800,DepthScenes,duration_discrimination,discrim_jsons/d0_dr.json,http://54.197.185.130/DepthDuration/depth_discrimination_MTurk/DepthDiscrim_HTML.html#1,1,1366,768,1366,768,6-12-2021,8-27-45,51,depth_discrimination_stimuli/001289_2014-06-16_16-25-52_260595134347_rgbf000067-resize_1/001289_2014-06-16_16-25-52_260595134347_rgbf000067-resize_1-target.png,depth_discrimination_stimuli/002788_2014-06-22_19-36-03_094959634447_rgbf000088-resize_2/002788_2014-06-22_19-36-03_094959634447_rgbf000088-resize_2-target.png,250,1.8835,1.6465,1,2219,506,252,504,249,494,meters,,,,,2369827,2591003,27
300800,DepthScenes,duration_discrimination,discrim_jsons/d0_dr.json,http://54.197.185.130/DepthDuration/depth_discrimination_MTurk/DepthDiscrim_HTML.html#1,1,1366,768,1366,768,6-12-2021,8-27-45,52,depth_discrimination_stimuli/000549_2014-06-08_22-10-24_260595134347_rgbf000247-resize_3/000549_2014-06-08_22-10-24_260595134347_rgbf000247-resize_3-target.png,depth_discrimination_stimuli/002139_2014-06-25_21-19-37_260595134347_rgbf000124-resize_2/002139_2014-06-25_21-19-37_260595134347_rgbf000124-resize_2-target.png,1000,1.841,2.107,1,3927,508,996,512,991,496,meters,,,,,2369827,2591003,27
300800,DepthScenes,duration_discrimination,discrim_jsons/d0_dr.json,http://54.197.185.130/DepthDuration/depth_discrimination_MTurk/DepthDiscrim_HTML.html#1,1,1366,768,1366,768,6-12-2021,8-27-45,53,depth_discrimination_stimuli/001810_2014-06-26_20-51-35_260595134347_rgbf000040-resize_3/001810_2014-06-26_20-51-35_260595134347_rgbf000040-resize_3-target.png,depth_discrimination_stimuli/000927_2014-06-09_16-32-30_260595134347_rgbf000123-resize_3/000927_2014-06-09_16-32-30_260595134347_rgbf000123-resize_3-target.png,1000,2.2525,2.6785,1,1514,511,995,501,1006,498,meters,,,,,2369827,2591003,27
300800,DepthScenes,duration_discrimination,discrim_jsons/d0_dr.json,http://54.197.185.130/DepthDuration/depth_discrimination_MTurk/DepthDiscrim_HTML.html#1,1,1366,768,1366,768,6-12-2021,8-27-45,54,depth_discrimination_stimuli/002199_2014-06-28_18-33-56_260595134347_rgbf000074-resize_0/002199_2014-06-28_18-33-56_260595134347_rgbf000074-resize_0-target.png,depth_discrimination_stimuli/000368_2014-06-09_15-53-01_260595134347_rgbf000155-resize_2/000368_2014-06-09_15-53-01_260595134347_rgbf000155-resize_2-target.png,1000,1.996,2.486,1,4118,513,991,512,994,494,meters,,,,,2369827,2591003,27
300800,DepthScenes,duration_discrimination,discrim_jsons/d0_dr.json,http://54.197.185.130/DepthDuration/depth_discrimination_MTurk/DepthDiscrim_HTML.html#1,1,1366,768,1366,768,6-12-2021,8-27-45,55,depth_discrimination_stimuli/000878_2014-06-08_22-52-45_260595134347_rgbf000045-resize_2/000878_2014-06-08_22-52-45_260595134347_rgbf000045-resize_2-target.png,depth_discrimination_stimuli/003338_2014-05-20_11-01-23_094959634447_rgbf000051-resize_6/003338_2014-05-20_11-01-23_094959634447_rgbf000051-resize_6-target.png,250,2.092,1.693,0,3463,517,240,494,257,496,meters,,,,,2369827,2591003,27
300800,DepthScenes,duration_discrimination,discrim_jsons/d0_dr.json,http://54.197.185.130/DepthDuration/depth_discrimination_MTurk/DepthDiscrim_HTML.html#1,1,1366,768,1366,768,6-12-2021,8-27-45,56,depth_discrimination_stimuli/002660_2014-06-13_15-44-18_094959634447_rgbf001878-resize_2/002660_2014-06-13_15-44-18_094959634447_rgbf001878-resize_2-target.png,depth_discrimination_stimuli/000009_2014-05-26_14-32-05_260595134347_rgbf000034-resize_3/000009_2014-05-26_14-32-05_260595134347_rgbf000034-resize_3-target.png,250,3.576,3.8715,0,1066,509,251,491,260,499,meters,,,,,2369827,2591003,27
300800,DepthScenes,duration_discrimination,discrim_jsons/d0_dr.json,http://54.197.185.130/DepthDuration/depth_discrimination_MTurk/DepthDiscrim_HTML.html#1,1,1366,768,1366,768,6-12-2021,8-27-45,57,depth_discrimination_stimuli/001167_2014-06-17_15-38-07_260595134347_rgbf000108-resize_0/001167_2014-06-17_15-38-07_260595134347_rgbf000108-resize_0-target.png,depth_discrimination_stimuli/003495_2014-05-21_16-01-51_094959634447_rgbf000100-resize_3/003495_2014-05-21_16-01-51_094959634447_rgbf000100-resize_3-target.png,1000,1.8505,1.6255,1,1870,508,1001,497,1004,500,meters,,,,,2369827,2591003,27
300800,DepthScenes,duration_discrimination,discrim_jsons/d0_dr.json,http://54.197.185.130/DepthDuration/depth_discrimination_MTurk/DepthDiscrim_HTML.html#1,1,1366,768,1366,768,6-12-2021,8-27-45,58,depth_discrimination_stimuli/003070_2014-06-15_14-58-27_094959634447_rgbf000150-resize_3/003070_2014-06-15_14-58-27_094959634447_rgbf000150-resize_3-target.png,depth_discrimination_stimuli/000758_2014-06-08_22-05-08_260595134347_rgbf000085-resize_0/000758_2014-06-08_22-05-08_260595134347_rgbf000085-resize_0-target.png,250,2.9415,3.381,1,1968,512,249,499,250,500,meters,,,,,2369827,2591003,27
300800,DepthScenes,duration_discrimination,discrim_jsons/d0_dr.json,http://54.197.185.130/DepthDuration/depth_discrimination_MTurk/DepthDiscrim_HTML.html#1,1,1366,768,1366,768,6-12-2021,8-27-45,59,depth_discrimination_stimuli/001199_2014-06-17_16-03-48_260595134347_rgbf000077-resize_0/001199_2014-06-17_16-03-48_260595134347_rgbf000077-resize_0-target.png,depth_discrimination_stimuli/001029_2014-06-08_13-17-57_260595134347_rgbf000065-resize_1/001029_2014-06-08_13-17-57_260595134347_rgbf000065-resize_1-target.png,1000,3.4375,3.0835,1,2210,507,1010,491,1008,499,meters,,,,,2369827,2591003,27
300800,DepthScenes,duration_discrimination,discrim_jsons/d0_dr.json,http://54.197.185.130/DepthDuration/depth_discrimination_MTurk/DepthDiscrim_HTML.html#1,1,1366,768,1366,768,6-12-2021,8-27-45,60,depth_discrimination_stimuli/000929_2014-06-09_16-33-19_260595134347_rgbf000139-resize_0/000929_2014-06-09_16-33-19_260595134347_rgbf000139-resize_0-target.png,depth_discrimination_stimuli/000830_2014-06-04_19-49-31_260595134347_rgbf000096-resize_2/000830_2014-06-04_19-49-31_260595134347_rgbf000096-resize_2-target.png,1000,2.868,2.6353333333333,1,1953,516,996,497,1000,493,meters,,,,,2369827,2591003,27
300800,DepthScenes,duration_discrimination,discrim_jsons/d0_dr.json,http://54.197.185.130/DepthDuration/depth_discrimination_MTurk/DepthDiscrim_HTML.html#1,1,1366,768,1366,768,6-12-2021,8-27-45,61,depth_discrimination_stimuli/003292_2014-05-14_21-53-49_094959634447_rgbf000100-resize_2/003292_2014-05-14_21-53-49_094959634447_rgbf000100-resize_2-target.png,depth_discrimination_stimuli/002805_2014-06-22_19-54-03_094959634447_rgbf000079-resize_1/002805_2014-06-22_19-54-03_094959634447_rgbf000079-resize_1-target.png,250,3.4815,3.144,0,1442,502,258,495,248,508,meters,,,,,2369827,2591003,27
300800,DepthScenes,duration_discrimination,discrim_jsons/d0_dr.json,http://54.197.185.130/DepthDuration/depth_discrimination_MTurk/DepthDiscrim_HTML.html#1,1,1366,768,1366,768,6-12-2021,8-27-45,62,depth_discrimination_stimuli/001498_2014-06-19_17-45-14_260595134347_rgbf000129-resize_4/001498_2014-06-19_17-45-14_260595134347_rgbf000129-resize_4-target.png,depth_discrimination_stimuli/003125_2014-05-12_10-39-22_094959634447_rgbf000100-resize_0/003125_2014-05-12_10-39-22_094959634447_rgbf000100-resize_0-target.png,250,1.4075,4.8655,1,1565,501,257,499,245,509,meters,,,,,2369827,2591003,27
300800,DepthScenes,duration_discrimination,discrim_jsons/d0_dr.json,http://54.197.185.130/DepthDuration/depth_discrimination_MTurk/DepthDiscrim_HTML.html#1,1,1366,768,1366,768,6-12-2021,8-27-45,63,depth_discrimination_stimuli/000953_2014-06-08_11-42-19_260595134347_rgbf000083-resize_0/000953_2014-06-08_11-42-19_260595134347_rgbf000083-resize_0-target.png,depth_discrimination_stimuli/000787_2014-06-08_22-33-53_260595134347_rgbf000175-resize_1/000787_2014-06-08_22-33-53_260595134347_rgbf000175-resize_1-target.png,1000,1.369,4.784,1,1900,515,996,495,1009,497,meters,,,,,2369827,2591003,27
300800,DepthScenes,duration_discrimination,discrim_jsons/d0_dr.json,http://54.197.185.130/DepthDuration/depth_discrimination_MTurk/DepthDiscrim_HTML.html#1,1,1366,768,1366,768,6-12-2021,8-27-45,64,depth_discrimination_stimuli/000720_2014-06-08_18-37-27_260595134347_rgbf000203-resize_4/000720_2014-06-08_18-37-27_260595134347_rgbf000203-resize_4-target.png,depth_discrimination_stimuli/002637_2014-06-24_14-51-13_094959634447_rgbf000066-resize_4/002637_2014-06-24_14-51-13_094959634447_rgbf000066-resize_4-target.png,250,1.558,1.9955,1,1372,503,258,501,249,497,meters,,,,,2369827,2591003,27
300800,DepthScenes,duration_discrimination,discrim_jsons/d0_dr.json,http://54.197.185.130/DepthDuration/depth_discrimination_MTurk/DepthDiscrim_HTML.html#1,1,1366,768,1366,768,6-12-2021,8-27-45,65,depth_discrimination_stimuli/000521_2014-06-08_13-34-35_260595134347_rgbf000191-resize_2/000521_2014-06-08_13-34-35_260595134347_rgbf000191-resize_2-target.png,depth_discrimination_stimuli/000788_2014-06-08_22-34-36_260595134347_rgbf000131-resize_1/000788_2014-06-08_22-34-36_260595134347_rgbf000131-resize_1-target.png,1000,3.0385,3.359,1,1992,503,1002,501,1000,504,meters,,,,,2369827,2591003,27
300800,DepthScenes,duration_discrimination,discrim_jsons/d0_dr.json,http://54.197.185.130/DepthDuration/depth_discrimination_MTurk/DepthDiscrim_HTML.html#1,1,1366,768,1366,768,6-12-2021,8-27-45,66,depth_discrimination_stimuli/000780_2014-06-08_22-28-29_260595134347_rgbf000126-resize_1/000780_2014-06-08_22-28-29_260595134347_rgbf000126-resize_1-target.png,depth_discrimination_stimuli/000191_2014-05-12_17-07-38_260595134347_rgbf000199-resize_0/000191_2014-05-12_17-07-38_260595134347_rgbf000199-resize_0-target.png,250,3.3825,3.7995,0,1186,500,257,504,248,494,meters,,,,,2369827,2591003,27
300800,DepthScenes,duration_discrimination,discrim_jsons/d0_dr.json,http://54.197.185.130/DepthDuration/depth_discrimination_MTurk/DepthDiscrim_HTML.html#1,1,1366,768,1366,768,6-12-2021,8-27-45,67,depth_discrimination_stimuli/000753_2014-06-08_21-57-44_260595134347_rgbf000123-resize_3/000753_2014-06-08_21-57-44_260595134347_rgbf000123-resize_3-target.png,depth_discrimination_stimuli/003092_2014-06-24_21-01-49_094959634447_rgbf000049-resize_2/003092_2014-06-24_21-01-49_094959634447_rgbf000049-resize_2-target.png,250,1.916,1.666,0,1650,505,249,506,243,503,meters,,,,,2369827,2591003,27
300800,DepthScenes,duration_discrimination,discrim_jsons/d0_dr.json,http://54.197.185.130/DepthDuration/depth_discrimination_MTurk/DepthDiscrim_HTML.html#1,1,1366,768,1366,768,6-12-2021,8-27-45,68,depth_discrimination_stimuli/000869_2014-06-09_20-50-18_260595134347_rgbf000060-resize_3/000869_2014-06-09_20-50-18_260595134347_rgbf000060-resize_3-target.png,depth_discrimination_stimuli/001136_2014-06-17_15-19-41_260595134347_rgbf000076-resize_3/001136_2014-06-17_15-19-41_260595134347_rgbf000076-resize_3-target.png,1000,2.266,1.8655,1,2229,512,996,493,1010,497,meters,,,,,2369827,2591003,27
300800,DepthScenes,duration_discrimination,discrim_jsons/d0_dr.json,http://54.197.185.130/DepthDuration/depth_discrimination_MTurk/DepthDiscrim_HTML.html#1,1,1366,768,1366,768,6-12-2021,8-27-45,69,depth_discrimination_stimuli/001417_2014-06-19_16-25-36_260595134347_rgbf000115-resize_5/001417_2014-06-19_16-25-36_260595134347_rgbf000115-resize_5-target.png,depth_discrimination_stimuli/003083_2014-06-15_15-21-03_094959634447_rgbf000063-resize_1/003083_2014-06-15_15-21-03_094959634447_rgbf000063-resize_1-target.png,1000,4.6255,4.1405,1,1806,514,993,500,1006,493,meters,,,,,2369827,2591003,27
300800,DepthScenes,duration_discrimination,discrim_jsons/d0_dr.json,http://54.197.185.130/DepthDuration/depth_discrimination_MTurk/DepthDiscrim_HTML.html#1,1,1366,768,1366,768,6-12-2021,8-27-45,70,depth_discrimination_stimuli/000642_2014-06-08_16-59-25_260595134347_rgbf000098-resize_2/000642_2014-06-08_16-59-25_260595134347_rgbf000098-resize_2-target.png,depth_discrimination_stimuli/001815_2014-06-26_20-52-55_260595134347_rgbf000020-resize_0/001815_2014-06-26_20-52-55_260595134347_rgbf000020-resize_0-target.png,250,2.8815,3.3865,1,982,511,252,493,248,498,meters,,,,,2369827,2591003,27
300800,DepthScenes,duration_discrimination,discrim_jsons/d0_dr.json,http://54.197.185.130/DepthDuration/depth_discrimination_MTurk/DepthDiscrim_HTML.html#1,1,1366,768,1366,768,6-12-2021,8-27-45,71,depth_discrimination_stimuli/001617_2014-06-20_11-35-32_260595134347_rgbf000066-resize_1/001617_2014-06-20_11-35-32_260595134347_rgbf000066-resize_1-target.png,depth_discrimination_stimuli/001133_2014-06-17_14-49-16_260595134347_rgbf000100-resize_0/001133_2014-06-17_14-49-16_260595134347_rgbf000100-resize_0-target.png,250,3.791,4.2115,0,1315,506,249,510,239,501,meters,,,,,2369827,2591003,27
300800,DepthScenes,duration_discrimination,discrim_jsons/d0_dr.json,http://54.197.185.130/DepthDuration/depth_discrimination_MTurk/DepthDiscrim_HTML.html#1,1,1366,768,1366,768,6-12-2021,8-27-45,72,depth_discrimination_stimuli/002425_2014-06-28_20-27-29_260595134347_rgbf000031-resize_8/002425_2014-06-28_20-27-29_260595134347_rgbf000031-resize_8-target.png,depth_discrimination_stimuli/001181_2014-06-17_15-50-57_260595134347_rgbf000106-resize_4/001181_2014-06-17_15-50-57_260595134347_rgbf000106-resize_4-target.png,1000,3.896,4.149,1,1731,512,1002,497,990,501,meters,,,,,2369827,2591003,27
300800,DepthScenes,duration_discrimination,discrim_jsons/d0_dr.json,http://54.197.185.130/DepthDuration/depth_discrimination_MTurk/DepthDiscrim_HTML.html#1,1,1366,768,1366,768,6-12-2021,8-27-45,73,depth_discrimination_stimuli/001110_2014-06-15_17-25-28_260595134347_rgbf000150-resize_1/001110_2014-06-15_17-25-28_260595134347_rgbf000150-resize_1-target.png,depth_discrimination_stimuli/000555_2014-06-09_22-42-23_260595134347_rgbf000037-resize_4/000555_2014-06-09_22-42-23_260595134347_rgbf000037-resize_4-target.png,1000,1.7115,1.9765,0,2308,507,1004,490,1013,495,meters,,,,,2369827,2591003,27
300800,DepthScenes,duration_discrimination,discrim_jsons/d0_dr.json,http://54.197.185.130/DepthDuration/depth_discrimination_MTurk/DepthDiscrim_HTML.html#1,1,1366,768,1366,768,6-12-2021,8-27-45,74,depth_discrimination_stimuli/001032_2014-06-08_13-23-17_260595134347_rgbf000021-resize_3/001032_2014-06-08_13-23-17_260595134347_rgbf000021-resize_3-target.png,depth_discrimination_stimuli/002790_2014-06-22_19-36-35_094959634447_rgbf000074-resize_4/002790_2014-06-22_19-36-35_094959634447_rgbf000074-resize_4-target.png,250,3.2725,3.512,1,798,504,259,489,250,506,meters,,,,,2369827,2591003,27
300800,DepthScenes,duration_discrimination,discrim_jsons/d0_dr.json,http://54.197.185.130/DepthDuration/depth_discrimination_MTurk/DepthDiscrim_HTML.html#1,1,1366,768,1366,768,6-12-2021,8-27-45,75,depth_discrimination_stimuli/000773_2014-06-08_22-24-54_260595134347_rgbf000093-resize_1/000773_2014-06-08_22-24-54_260595134347_rgbf000093-resize_1-target.png,depth_discrimination_stimuli/000742_2014-06-08_18-48-09_260595134347_rgbf000164-resize_4/000742_2014-06-08_18-48-09_260595134347_rgbf000164-resize_4-target.png,1000,4.973,4.632,0,1583,508,993,515,988,502,meters,,,,,2369827,2591003,27
300800,DepthScenes,duration_discrimination,discrim_jsons/d0_dr.json,http://54.197.185.130/DepthDuration/depth_discrimination_MTurk/DepthDiscrim_HTML.html#1,1,1366,768,1366,768,6-12-2021,8-27-45,76,depth_discrimination_stimuli/001244_2014-06-17_16-47-45_260595134347_rgbf000030-resize_4/001244_2014-06-17_16-47-45_260595134347_rgbf000030-resize_4-target.png,depth_discrimination_stimuli/002763_2014-06-22_19-13-10_094959634447_rgbf000075-resize_4/002763_2014-06-22_19-13-10_094959634447_rgbf000075-resize_4-target.png,250,2.0425,1.68375,1,956,511,240,501,251,511,meters,,,,,2369827,2591003,27
300800,DepthScenes,duration_discrimination,discrim_jsons/d0_dr.json,http://54.197.185.130/DepthDuration/depth_discrimination_MTurk/DepthDiscrim_HTML.html#1,1,1366,768,1366,768,6-12-2021,8-27-45,77,depth_discrimination_stimuli/001011_2014-06-08_23-18-54_260595134347_rgbf000044-resize_4/001011_2014-06-08_23-18-54_260595134347_rgbf000044-resize_4-target.png,depth_discrimination_stimuli/002678_2014-06-13_16-15-32_094959634447_rgbf000151-resize_6/002678_2014-06-13_16-15-32_094959634447_rgbf000151-resize_6-target.png,250,2.473,2.183,1,1032,502,263,498,248,494,meters,,,,,2369827,2591003,27
300800,DepthScenes,duration_discrimination,discrim_jsons/d0_dr.json,http://54.197.185.130/DepthDuration/depth_discrimination_MTurk/DepthDiscrim_HTML.html#1,1,1366,768,1366,768,6-12-2021,8-27-45,78,depth_discrimination_stimuli/001056_2014-06-08_18-46-44_260595134347_rgbf000068-resize_0/001056_2014-06-08_18-46-44_260595134347_rgbf000068-resize_0-target.png,depth_discrimination_stimuli/003079_2014-06-15_15-18-20_094959634447_rgbf000152-resize_8/003079_2014-06-15_15-18-20_094959634447_rgbf000152-resize_8-target.png,1000,2.6625,2.8775,1,2545,514,998,492,1000,505,meters,,,,,2369827,2591003,27
300800,DepthScenes,duration_discrimination,discrim_jsons/d0_dr.json,http://54.197.185.130/DepthDuration/depth_discrimination_MTurk/DepthDiscrim_HTML.html#1,1,1366,768,1366,768,6-12-2021,8-27-45,79,depth_discrimination_stimuli/001158_2014-06-17_15-32-16_260595134347_rgbf000138-resize_2/001158_2014-06-17_15-32-16_260595134347_rgbf000138-resize_2-target.png,depth_discrimination_stimuli/003492_2014-05-21_15-50-55_094959634447_rgbf000828-resize_1/003492_2014-05-21_15-50-55_094959634447_rgbf000828-resize_1-target.png,1000,4.5315,4.06875,1,2261,504,1003,503,997,496,meters,,,,,2369827,2591003,27
300800,DepthScenes,duration_discrimination,discrim_jsons/d0_dr.json,http://54.197.185.130/DepthDuration/depth_discrimination_MTurk/DepthDiscrim_HTML.html#1,1,1366,768,1366,768,6-12-2021,8-27-45,80,depth_discrimination_stimuli/001392_2014-06-19_16-07-59_260595134347_rgbf000046-resize_1/001392_2014-06-19_16-07-59_260595134347_rgbf000046-resize_1-target.png,depth_discrimination_stimuli/003490_2014-05-21_15-50-11_094959634447_rgbf000101-resize_3/003490_2014-05-21_15-50-11_094959634447_rgbf000101-resize_3-target.png,250,4.135,3.6445,0,772,502,264,495,249,500,meters,,,,,2369827,2591003,27
300800,DepthScenes,duration_discrimination,discrim_jsons/d0_dr.json,http://54.197.185.130/DepthDuration/depth_discrimination_MTurk/DepthDiscrim_HTML.html#1,1,1366,768,1366,768,6-12-2021,8-27-45,81,depth_discrimination_stimuli/000854_2014-06-09_19-43-13_260595134347_rgbf000066-resize_0/000854_2014-06-09_19-43-13_260595134347_rgbf000066-resize_0-target.png,depth_discrimination_stimuli/002758_2014-06-22_19-11-20_094959634447_rgbf000128-resize_1/002758_2014-06-22_19-11-20_094959634447_rgbf000128-resize_1-target.png,250,3.068,2.555,1,2181,510,248,494,251,512,meters,,,,,2369827,2591003,27
300800,DepthScenes,duration_discrimination,discrim_jsons/d0_dr.json,http://54.197.185.130/DepthDuration/depth_discrimination_MTurk/DepthDiscrim_HTML.html#1,1,1366,768,1366,768,6-12-2021,8-27-45,82,depth_discrimination_stimuli/002414_2014-06-28_20-24-58_260595134347_rgbf000067-resize_4/002414_2014-06-28_20-24-58_260595134347_rgbf000067-resize_4-target.png,depth_discrimination_stimuli/001828_2014-06-26_21-40-03_260595134347_rgbf000024-resize_0/001828_2014-06-26_21-40-03_260595134347_rgbf000024-resize_0-target.png,250,4.363,4.826,0,1058,516,245,500,250,498,meters,,,,,2369827,2591003,27
300800,DepthScenes,duration_discrimination,discrim_jsons/d0_dr.json,http://54.197.185.130/DepthDuration/depth_discrimination_MTurk/DepthDiscrim_HTML.html#1,1,1366,768,1366,768,6-12-2021,8-27-45,83,depth_discrimination_stimuli/000502_2014-06-08_23-02-32_260595134347_rgbf000063-resize_4/000502_2014-06-08_23-02-32_260595134347_rgbf000063-resize_4-target.png,depth_discrimination_stimuli/002987_2014-06-08_18-48-20_094959634447_rgbf000022-resize_0/002987_2014-06-08_18-48-20_094959634447_rgbf000022-resize_0-target.png,250,2.431,2.6775,0,1158,510,248,508,238,500,meters,,,,,2369827,2591003,27
300800,DepthScenes,duration_discrimination,discrim_jsons/d0_dr.json,http://54.197.185.130/DepthDuration/depth_discrimination_MTurk/DepthDiscrim_HTML.html#1,1,1366,768,1366,768,6-12-2021,8-27-45,84,depth_discrimination_stimuli/000740_2014-06-08_18-46-23_260595134347_rgbf000049-resize_6/000740_2014-06-08_18-46-23_260595134347_rgbf000049-resize_6-target.png,depth_discrimination_stimuli/002905_2014-06-03_18-04-43_094959634447_rgbf000151-resize_2/002905_2014-06-03_18-04-43_094959634447_rgbf000151-resize_2-target.png,250,1.687,2.0295,1,1321,500,255,503,242,515,meters,,,,,2369827,2591003,27
300800,DepthScenes,duration_discrimination,discrim_jsons/d0_dr.json,http://54.197.185.130/DepthDuration/depth_discrimination_MTurk/DepthDiscrim_HTML.html#1,1,1366,768,1366,768,6-12-2021,8-27-45,85,depth_discrimination_stimuli/001055_2014-06-08_18-45-35_260595134347_rgbf000111-resize_4/001055_2014-06-08_18-45-35_260595134347_rgbf000111-resize_4-target.png,depth_discrimination_stimuli/002209_2014-06-28_18-36-10_260595134347_rgbf000051-resize_1/002209_2014-06-28_18-36-10_260595134347_rgbf000051-resize_1-target.png,1000,2.429,2.057,0,1577,514,996,494,1011,496,meters,,,,,2369827,2591003,27
300800,DepthScenes,duration_discrimination,discrim_jsons/d0_dr.json,http://54.197.185.130/DepthDuration/depth_discrimination_MTurk/DepthDiscrim_HTML.html#1,1,1366,768,1366,768,6-12-2021,8-27-45,86,depth_discrimination_stimuli/000103_2014-05-14_22-01-17_260595134347_rgbf000152-resize_5/000103_2014-05-14_22-01-17_260595134347_rgbf000152-resize_5-target.png,depth_discrimination_stimuli/000810_2014-06-08_17-20-01_260595134347_rgbf000105-resize_0/000810_2014-06-08_17-20-01_260595134347_rgbf000105-resize_0-target.png,250,1.993,1.4865,1,1158,515,249,487,264,494,meters,,,,,2369827,2591003,27
300800,DepthScenes,duration_discrimination,discrim_jsons/d0_dr.json,http://54.197.185.130/DepthDuration/depth_discrimination_MTurk/DepthDiscrim_HTML.html#1,1,1366,768,1366,768,6-12-2021,8-27-45,87,depth_discrimination_stimuli/002750_2014-06-22_19-08-03_094959634447_rgbf000094-resize_4/002750_2014-06-22_19-08-03_094959634447_rgbf000094-resize_4-target.png,depth_discrimination_stimuli/001188_2014-06-17_15-54-10_260595134347_rgbf000090-resize_2/001188_2014-06-17_15-54-10_260595134347_rgbf000090-resize_2-target.png,1000,2.354,2.744,1,2755,516,990,502,1004,496,meters,,,,,2369827,2591003,27
300800,DepthScenes,duration_discrimination,discrim_jsons/d0_dr.json,http://54.197.185.130/DepthDuration/depth_discrimination_MTurk/DepthDiscrim_HTML.html#1,1,1366,768,1366,768,6-12-2021,8-27-45,88,depth_discrimination_stimuli/000470_2014-06-09_19-42-40_260595134347_rgbf000094-resize_1/000470_2014-06-09_19-42-40_260595134347_rgbf000094-resize_1-target.png,depth_discrimination_stimuli/000109_2014-05-14_23-41-52_260595134347_rgbf000035-resize_9/000109_2014-05-14_23-41-52_260595134347_rgbf000035-resize_9-target.png,250,1.831,1.3545,1,1007,503,249,502,257,494,meters,,,,,2369827,2591003,27
300800,DepthScenes,duration_discrimination,discrim_jsons/d0_dr.json,http://54.197.185.130/DepthDuration/depth_discrimination_MTurk/DepthDiscrim_HTML.html#1,1,1366,768,1366,768,6-12-2021,8-27-45,89,depth_discrimination_stimuli/002570_2014-06-24_13-59-54_094959634447_rgbf000059-resize_0/002570_2014-06-24_13-59-54_094959634447_rgbf000059-resize_0-target.png,depth_discrimination_stimuli/001584_2014-06-20_11-07-43_260595134347_rgbf000002-resize_1/001584_2014-06-20_11-07-43_260595134347_rgbf000002-resize_1-target.png,1000,4.037,3.53,0,1996,514,992,496,1005,494,meters,,,,,2369827,2591003,27
300800,DepthScenes,duration_discrimination,discrim_jsons/d0_dr.json,http://54.197.185.130/DepthDuration/depth_discrimination_MTurk/DepthDiscrim_HTML.html#1,1,1366,768,1366,768,6-12-2021,8-27-45,90,depth_discrimination_stimuli/002725_2014-06-22_11-47-51_094959634447_rgbf000070-resize_1/002725_2014-06-22_11-47-51_094959634447_rgbf000070-resize_1-target.png,depth_discrimination_stimuli/002153_2014-06-25_21-27-18_260595134347_rgbf000038-resize_5/002153_2014-06-25_21-27-18_260595134347_rgbf000038-resize_5-target.png,250,2.195,2.505,0,1471,505,248,502,247,501,meters,,,,,2369827,2591003,27
300800,DepthScenes,duration_discrimination,discrim_jsons/d0_dr.json,http://54.197.185.130/DepthDuration/depth_discrimination_MTurk/DepthDiscrim_HTML.html#1,1,1366,768,1366,768,6-12-2021,8-27-45,91,depth_discrimination_stimuli/002072_2014-06-24_21-48-06_260595134347_rgbf000115-resize_0/002072_2014-06-24_21-48-06_260595134347_rgbf000115-resize_0-target.png,depth_discrimination_stimuli/001012_2014-06-08_23-19-38_260595134347_rgbf000057-resize_0/001012_2014-06-08_23-19-38_260595134347_rgbf000057-resize_0-target.png,250,4.702,1.38325,0,1868,512,247,498,249,496,meters,,,,,2369827,2591003,27
300800,DepthScenes,duration_discrimination,discrim_jsons/d0_dr.json,http://54.197.185.130/DepthDuration/depth_discrimination_MTurk/DepthDiscrim_HTML.html#1,1,1366,768,1366,768,6-12-2021,8-27-45,92,depth_discrimination_stimuli/002675_2014-06-13_16-08-49_094959634447_rgbf000151-resize_2/002675_2014-06-13_16-08-49_094959634447_rgbf000151-resize_2-target.png,depth_discrimination_stimuli/001222_2014-06-17_16-24-06_260595134347_rgbf000073-resize_0/001222_2014-06-17_16-24-06_260595134347_rgbf000073-resize_0-target.png,1000,4.5065,1.4385,0,3115,503,1009,491,1001,507,meters,,,,,2369827,2591003,27
300800,DepthScenes,duration_discrimination,discrim_jsons/d0_dr.json,http://54.197.185.130/DepthDuration/depth_discrimination_MTurk/DepthDiscrim_HTML.html#1,1,1366,768,1366,768,6-12-2021,8-27-45,93,depth_discrimination_stimuli/000414_2014-06-04_19-49-13_260595134347_rgbf000044-resize_0/000414_2014-06-04_19-49-13_260595134347_rgbf000044-resize_0-target.png,depth_discrimination_stimuli/002663_2014-06-13_15-50-26_094959634447_rgbf000075-resize_1/002663_2014-06-13_15-50-26_094959634447_rgbf000075-resize_1-target.png,250,4.329,4.7495,1,771,509,253,492,248,515,meters,,,,,2369827,2591003,27
300800,DepthScenes,duration_discrimination,discrim_jsons/d0_dr.json,http://54.197.185.130/DepthDuration/depth_discrimination_MTurk/DepthDiscrim_HTML.html#1,1,1366,768,1366,768,6-12-2021,8-27-45,94,depth_discrimination_stimuli/000483_2014-06-09_20-41-45_260595134347_rgbf000116-resize_4/000483_2014-06-09_20-41-45_260595134347_rgbf000116-resize_4-target.png,depth_discrimination_stimuli/002964_2014-06-08_17-46-11_094959634447_rgbf000091-resize_4/002964_2014-06-08_17-46-11_094959634447_rgbf000091-resize_4-target.png,1000,1.337,1.691,1,2121,505,1010,488,998,500,meters,,,,,2369827,2591003,27
300800,DepthScenes,duration_discrimination,discrim_jsons/d0_dr.json,http://54.197.185.130/DepthDuration/depth_discrimination_MTurk/DepthDiscrim_HTML.html#1,1,1366,768,1366,768,6-12-2021,8-27-45,95,depth_discrimination_stimuli/000677_2014-06-08_23-10-32_260595134347_rgbf000158-resize_6/000677_2014-06-08_23-10-32_260595134347_rgbf000158-resize_6-target.png,depth_discrimination_stimuli/001150_2014-06-17_15-27-34_260595134347_rgbf000108-resize_2/001150_2014-06-17_15-27-34_260595134347_rgbf000108-resize_2-target.png,1000,3.556,4.0325,1,4696,501,1008,494,1010,495,meters,,,,,2369827,2591003,27
300800,DepthScenes,duration_discrimination,discrim_jsons/d0_dr.json,http://54.197.185.130/DepthDuration/depth_discrimination_MTurk/DepthDiscrim_HTML.html#1,1,1366,768,1366,768,6-12-2021,8-27-45,96,depth_discrimination_stimuli/000505_2014-06-08_23-03-23_260595134347_rgbf000091-resize_0/000505_2014-06-08_23-03-23_260595134347_rgbf000091-resize_0-target.png,depth_discrimination_stimuli/002057_2014-06-24_21-00-13_260595134347_rgbf000120-resize_1/002057_2014-06-24_21-00-13_260595134347_rgbf000120-resize_1-target.png,250,3.3105,2.967,1,1022,511,243,505,243,503,meters,,,,,2369827,2591003,27
300800,DepthScenes,duration_discrimination,discrim_jsons/d0_dr.json,http://54.197.185.130/DepthDuration/depth_discrimination_MTurk/DepthDiscrim_HTML.html#1,1,1366,768,1366,768,6-12-2021,8-27-45,96,,,,,,,1022,511,243,505,243,503,meters,,,,,2369827,2591003,27
300800,DepthScenes,duration_discrimination,discrim_jsons/d0_dr.json,http://54.197.185.130/DepthDuration/depth_discrimination_MTurk/DepthDiscrim_HTML.html#1,1,1349,768,1366,768,6-12-2021,8-27-45,98,,,,,,,1022,511,243,505,243,503,meters,3,2,depth_discrimination_stimuli/000486_2014-06-09_20-47-20_260595134347_rgbf000143-resize_2/000486_2014-06-09_20-47-20_260595134347_rgbf000143-resize-original.jpg,8871,2369827,2591003,27
300800,DepthScenes,duration_discrimination,discrim_jsons/d0_dr.json,http://54.197.185.130/DepthDuration/depth_discrimination_MTurk/DepthDiscrim_HTML.html#1,1,1349,768,1366,768,6-12-2021,8-27-45,99,,,,,,,1022,511,243,505,243,503,meters,3,2,depth_discrimination_stimuli/000103_2014-05-14_22-01-17_260595134347_rgbf000152-resize_5/000103_2014-05-14_22-01-17_260595134347_rgbf000152-resize-original.jpg,3679,2369827,2591003,27
300800,DepthScenes,duration_discrimination,discrim_jsons/d0_dr.json,http://54.197.185.130/DepthDuration/depth_discrimination_MTurk/DepthDiscrim_HTML.html#1,1,1349,768,1366,768,6-12-2021,8-27-45,100,,,,,,,1022,511,243,505,243,503,meters,4,4,depth_discrimination_stimuli/002700_2014-06-22_11-27-02_094959634447_rgbf000124-resize_3/002700_2014-06-22_11-27-02_094959634447_rgbf000124-resize-original.jpg,4528,2369827,2591003,27
300800,DepthScenes,duration_discrimination,discrim_jsons/d0_dr.json,http://54.197.185.130/DepthDuration/depth_discrimination_MTurk/DepthDiscrim_HTML.html#1,1,1349,768,1366,768,6-12-2021,8-27-45,101,,,,,,,1022,511,243,505,243,503,meters,3,2,depth_discrimination_stimuli/002272_2014-06-28_18-53-56_260595134347_rgbf000067-resize_2/002272_2014-06-28_18-53-56_260595134347_rgbf000067-resize-original.jpg,15705,2369827,2591003,27
300800,DepthScenes,duration_discrimination,discrim_jsons/d0_dr.json,http://54.197.185.130/DepthDuration/depth_discrimination_MTurk/DepthDiscrim_HTML.html#1,1,1349,768,1366,768,6-12-2021,8-27-45,102,,,,,,,1022,511,243,505,243,503,meters,4,4,depth_discrimination_stimuli/001059_2014-06-08_21-53-27_260595134347_rgbf000061-resize_4/001059_2014-06-08_21-53-27_260595134347_rgbf000061-resize-original.jpg,3447,2369827,2591003,27
300800,DepthScenes,duration_discrimination,discrim_jsons/d0_dr.json,http://54.197.185.130/DepthDuration/depth_discrimination_MTurk/DepthDiscrim_HTML.html#1,1,1349,768,1366,768,6-12-2021,8-27-45,103,,,,,,,1022,511,243,505,243,503,meters,3,3,depth_discrimination_stimuli/002953_2014-06-08_17-32-18_094959634447_rgbf000059-resize_5/002953_2014-06-08_17-32-18_094959634447_rgbf000059-resize-original.jpg,5280,2369827,2591003,27
300800,DepthScenes,duration_discrimination,discrim_jsons/d0_dr.json,http://54.197.185.130/DepthDuration/depth_discrimination_MTurk/DepthDiscrim_HTML.html#1,1,1349,768,1366,768,6-12-2021,8-27-45,104,,,,,,,1022,511,243,505,243,503,meters,3,4,depth_discrimination_stimuli/003338_2014-05-20_11-01-23_094959634447_rgbf000051-resize_6/003338_2014-05-20_11-01-23_094959634447_rgbf000051-resize-original.jpg,6368,2369827,2591003,27
300800,DepthScenes,duration_discrimination,discrim_jsons/d0_dr.json,http://54.197.185.130/DepthDuration/depth_discrimination_MTurk/DepthDiscrim_HTML.html#1,1,1349,768,1366,768,6-12-2021,8-27-45,105,,,,,,,1022,511,243,505,243,503,meters,3,3,depth_discrimination_stimuli/000709_2014-06-08_13-51-55_260595134347_rgbf000068-resize_3/000709_2014-06-08_13-51-55_260595134347_rgbf000068-resize-original.jpg,6999,2369827,2591003,27
300800,DepthScenes,duration_discrimination,discrim_jsons/d0_dr.json,http://54.197.185.130/DepthDuration/depth_discrimination_MTurk/DepthDiscrim_HTML.html#1,1,1349,768,1366,768,6-12-2021,8-27-45,106,,,,,,,1022,511,243,505,243,503,meters,3,5,depth_discrimination_stimuli/001150_2014-06-17_15-27-34_260595134347_rgbf000108-resize_2/001150_2014-06-17_15-27-34_260595134347_rgbf000108-resize-original.jpg,7201,2369827,2591003,27
300800,DepthScenes,duration_discrimination,discrim_jsons/d0_dr.json,http://54.197.185.130/DepthDuration/depth_discrimination_MTurk/DepthDiscrim_HTML.html#1,1,1349,768,1366,768,6-12-2021,8-27-45,107,,,,,,,1022,511,243,505,243,503,meters,3,3,scene_property_catch_stimuli/sun_bpzzatthlcapxzol.jpg,7943,2369827,2591003,27
300800,DepthScenes,duration_discrimination,discrim_jsons/d0_dr.json,http://54.197.185.130/DepthDuration/depth_discrimination_MTurk/DepthDiscrim_HTML.html#1,1,1349,768,1366,768,6-12-2021,8-27-45,108,,,,,,,1022,511,243,505,243,503,meters,4,3,depth_discrimination_stimuli/001235_2014-06-17_16-37-36_260595134347_rgbf000084-resize_4/001235_2014-06-17_16-37-36_260595134347_rgbf000084-resize-original.jpg,68144,2369827,2591003,27
300800,DepthScenes,duration_discrimination,discrim_jsons/d0_dr.json,http://54.197.185.130/DepthDuration/depth_discrimination_MTurk/DepthDiscrim_HTML.html#1,1,1349,768,1366,768,6-12-2021,8-27-45,109,,,,,,,1022,511,243,505,243,503,meters,2,2,depth_discrimination_stimuli/002763_2014-06-22_19-13-10_094959634447_rgbf000075-resize_4/002763_2014-06-22_19-13-10_094959634447_rgbf000075-resize-original.jpg,12240,2369827,2591003,27
300800,DepthScenes,duration_discrimination,discrim_jsons/d0_dr.json,http://54.197.185.130/DepthDuration/depth_discrimination_MTurk/DepthDiscrim_HTML.html#1,1,1349,768,1366,768,6-12-2021,8-27-45,110,,,,,,,1022,511,243,505,243,503,meters,3,2,depth_discrimination_stimuli/001650_2014-06-20_12-09-00_260595134347_rgbf000087-resize_3/001650_2014-06-20_12-09-00_260595134347_rgbf000087-resize-original.jpg,14072,2369827,2591003,27
300800,DepthScenes,duration_discrimination,discrim_jsons/d0_dr.json,http://54.197.185.130/DepthDuration/depth_discrimination_MTurk/DepthDiscrim_HTML.html#1,1,1349,768,1366,768,6-12-2021,8-27-45,111,,,,,,,1022,511,243,505,243,503,meters,3,3,depth_discrimination_stimuli/001148_2014-06-17_15-26-42_260595134347_rgbf000129-resize_0/001148_2014-06-17_15-26-42_260595134347_rgbf000129-resize-original.jpg,59480,2369827,2591003,27
300800,DepthScenes,duration_discrimination,discrim_jsons/d0_dr.json,http://54.197.185.130/DepthDuration/depth_discrimination_MTurk/DepthDiscrim_HTML.html#1,1,1349,768,1366,768,6-12-2021,8-27-45,112,,,,,,,1022,511,243,505,243,503,meters,2,1,depth_discrimination_stimuli/000866_2014-06-09_20-45-42_260595134347_rgbf000139-resize_1/000866_2014-06-09_20-45-42_260595134347_rgbf000139-resize-original.jpg,8304,2369827,2591003,27
300800,DepthScenes,duration_discrimination,discrim_jsons/d0_dr.json,http://54.197.185.130/DepthDuration/depth_discrimination_MTurk/DepthDiscrim_HTML.html#1,1,1349,768,1366,768,6-12-2021,8-27-45,113,,,,,,,1022,511,243,505,243,503,meters,3,4,depth_discrimination_stimuli/000742_2014-06-08_18-48-09_260595134347_rgbf000164-resize_4/000742_2014-06-08_18-48-09_260595134347_rgbf000164-resize-original.jpg,6904,2369827,2591003,27
300800,DepthScenes,duration_discrimination,discrim_jsons/d0_dr.json,http://54.197.185.130/DepthDuration/depth_discrimination_MTurk/DepthDiscrim_HTML.html#1,1,1349,768,1366,768,6-12-2021,8-27-45,114,,,,,,,1022,511,243,505,243,503,meters,3,3,depth_discrimination_stimuli/002637_2014-06-24_14-51-13_094959634447_rgbf000066-resize_4/002637_2014-06-24_14-51-13_094959634447_rgbf000066-resize-original.jpg,13512,2369827,2591003,27
300800,DepthScenes,duration_discrimination,discrim_jsons/d0_dr.json,http://54.197.185.130/DepthDuration/depth_discrimination_MTurk/DepthDiscrim_HTML.html#1,1,1349,768,1366,768,6-12-2021,8-27-45,115,,,,,,,1022,511,243,505,243,503,meters,2,3,depth_discrimination_stimuli/000943_2014-06-09_19-31-07_260595134347_rgbf000128-resize_1/000943_2014-06-09_19-31-07_260595134347_rgbf000128-resize-original.jpg,6392,2369827,2591003,27
300800,DepthScenes,duration_discrimination,discrim_jsons/d0_dr.json,http://54.197.185.130/DepthDuration/depth_discrimination_MTurk/DepthDiscrim_HTML.html#1,1,1349,768,1366,768,6-12-2021,8-27-45,116,,,,,,,1022,511,243,505,243,503,meters,4,3,depth_discrimination_stimuli/002136_2014-06-25_21-18-03_260595134347_rgbf000109-resize_3/002136_2014-06-25_21-18-03_260595134347_rgbf000109-resize-original.jpg,6984,2369827,2591003,27
300800,DepthScenes,duration_discrimination,discrim_jsons/d0_dr.json,http://54.197.185.130/DepthDuration/depth_discrimination_MTurk/DepthDiscrim_HTML.html#1,1,1349,768,1366,768,6-12-2021,8-27-45,117,,,,,,,1022,511,243,505,243,503,meters,3,2,depth_discrimination_stimuli/001094_2014-06-15_17-36-00_260595134347_rgbf000205-resize_0/001094_2014-06-15_17-36-00_260595134347_rgbf000205-resize-original.jpg,13242,2369827,2591003,27
300800,DepthScenes,duration_discrimination,discrim_jsons/d0_dr.json,http://54.197.185.130/DepthDuration/depth_discrimination_MTurk/DepthDiscrim_HTML.html#1,1,1349,768,1366,768,6-12-2021,8-27-45,118,,,,,,,1022,511,243,505,243,503,meters,4,3,depth_discrimination_stimuli/000521_2014-06-08_13-34-35_260595134347_rgbf000191-resize_2/000521_2014-06-08_13-34-35_260595134347_rgbf000191-resize-original.jpg,11277,2369827,2591003,27
300800,DepthScenes,duration_discrimination,discrim_jsons/d0_dr.json,http://54.197.185.130/DepthDuration/depth_discrimination_MTurk/DepthDiscrim_HTML.html#1,1,1349,768,1366,768,6-12-2021,8-27-45,119,,,,,,,1022,511,243,505,243,503,meters,3,4,depth_discrimination_stimuli/001199_2014-06-17_16-03-48_260595134347_rgbf000077-resize_0/001199_2014-06-17_16-03-48_260595134347_rgbf000077-resize-original.jpg,8735,2369827,2591003,27
300800,DepthScenes,duration_discrimination,discrim_jsons/d0_dr.json,http://54.197.185.130/DepthDuration/depth_discrimination_MTurk/DepthDiscrim_HTML.html#1,1,1349,768,1366,768,6-12-2021,8-27-45,120,,,,,,,1022,511,243,505,243,503,meters,4,5,depth_discrimination_stimuli/001810_2014-06-26_20-51-35_260595134347_rgbf000040-resize_3/001810_2014-06-26_20-51-35_260595134347_rgbf000040-resize-original.jpg,21320,2369827,2591003,27
300800,DepthScenes,duration_discrimination,discrim_jsons/d0_dr.json,http://54.197.185.130/DepthDuration/depth_discrimination_MTurk/DepthDiscrim_HTML.html#1,1,1349,768,1366,768,6-12-2021,8-27-45,121,,,,,,,1022,511,243,505,243,503,meters,4,4,depth_discrimination_stimuli/003081_2014-06-15_15-19-16_094959634447_rgbf000150-resize_1/003081_2014-06-15_15-19-16_094959634447_rgbf000150-resize-original.jpg,15208,2369827,2591003,27
300800,DepthScenes,duration_discrimination,discrim_jsons/d0_dr.json,http://54.197.185.130/DepthDuration/depth_discrimination_MTurk/DepthDiscrim_HTML.html#1,1,1349,768,1366,768,6-12-2021,8-27-45,122,,,,,,,1022,511,243,505,243,503,meters,3,5,depth_discrimination_stimuli/000749_2014-06-08_21-55-06_260595134347_rgbf000070-resize_2/000749_2014-06-08_21-55-06_260595134347_rgbf000070-resize-original.jpg,10736,2369827,2591003,27
300800,DepthScenes,duration_discrimination,discrim_jsons/d0_dr.json,http://54.197.185.130/DepthDuration/depth_discrimination_MTurk/DepthDiscrim_HTML.html#1,1,1349,768,1366,768,6-12-2021,8-27-45,123,,,,,,,1022,511,243,505,243,503,meters,2,3,depth_discrimination_stimuli/002639_2014-06-24_14-51-37_094959634447_rgbf000074-resize_4/002639_2014-06-24_14-51-37_094959634447_rgbf000074-resize-original.jpg,15736,2369827,2591003,27
300800,DepthScenes,duration_discrimination,discrim_jsons/d0_dr.json,http://54.197.185.130/DepthDuration/depth_discrimination_MTurk/DepthDiscrim_HTML.html#1,1,1349,768,1366,768,6-12-2021,8-27-45,124,,,,,,,1022,511,243,505,243,503,meters,2,3,depth_discrimination_stimuli/000788_2014-06-08_22-34-36_260595134347_rgbf000131-resize_1/000788_2014-06-08_22-34-36_260595134347_rgbf000131-resize-original.jpg,15816,2369827,2591003,27
300800,DepthScenes,duration_discrimination,discrim_jsons/d0_dr.json,http://54.197.185.130/DepthDuration/depth_discrimination_MTurk/DepthDiscrim_HTML.html#1,1,1349,768,1366,768,6-12-2021,8-27-45,125,,,,,,,1022,511,243,505,243,503,meters,4,4,depth_discrimination_stimuli/001132_2014-06-17_14-48-54_260595134347_rgbf000100-resize_2/001132_2014-06-17_14-48-54_260595134347_rgbf000100-resize-original.jpg,17080,2369827,2591003,27
300800,DepthScenes,duration_discrimination,discrim_jsons/d0_dr.json,http://54.197.185.130/DepthDuration/depth_discrimination_MTurk/DepthDiscrim_HTML.html#1,1,1349,768,1366,768,6-12-2021,8-27-45,126,,,,,,,1022,511,243,505,243,503,meters,3,3,depth_discrimination_stimuli/003495_2014-05-21_16-01-51_094959634447_rgbf000100-resize_3/003495_2014-05-21_16-01-51_094959634447_rgbf000100-resize-original.jpg,35466,2369827,2591003,27
300800,DepthScenes,duration_discrimination,discrim_jsons/d0_dr.json,http://54.197.185.130/DepthDuration/depth_discrimination_MTurk/DepthDiscrim_HTML.html#1,1,1349,768,1366,768,6-12-2021,8-27-45,127,,,,,,,1022,511,243,505,243,503,meters,4,3,depth_discrimination_stimuli/002725_2014-06-22_11-47-51_094959634447_rgbf000070-resize_1/002725_2014-06-22_11-47-51_094959634447_rgbf000070-resize-original.jpg,14136,2369827,2591003,27
300800,DepthScenes,duration_discrimination,discrim_jsons/d0_dr.json,http://54.197.185.130/DepthDuration/depth_discrimination_MTurk/DepthDiscrim_HTML.html#1,1,1349,768,1366,768,6-12-2021,8-27-45,128,,,,,,,1022,511,243,505,243,503,meters,2,3,depth_discrimination_stimuli/003490_2014-05-21_15-50-11_094959634447_rgbf000101-resize_3/003490_2014-05-21_15-50-11_094959634447_rgbf000101-resize-original.jpg,6632,2369827,2591003,27
300800,DepthScenes,duration_discrimination,discrim_jsons/d0_dr.json,http://54.197.185.130/DepthDuration/depth_discrimination_MTurk/DepthDiscrim_HTML.html#1,1,1349,768,1366,768,6-12-2021,8-27-45,129,,,,,,,1022,511,243,505,243,503,meters,3,3,depth_discrimination_stimuli/002790_2014-06-22_19-36-35_094959634447_rgbf000074-resize_4/002790_2014-06-22_19-36-35_094959634447_rgbf000074-resize-original.jpg,8396,2369827,2591003,27
300800,DepthScenes,duration_discrimination,discrim_jsons/d0_dr.json,http://54.197.185.130/DepthDuration/depth_discrimination_MTurk/DepthDiscrim_HTML.html#1,1,1349,768,1366,768,6-12-2021,8-27-45,130,,,,,,,1022,511,243,505,243,503,meters,3,4,depth_discrimination_stimuli/000505_2014-06-08_23-03-23_260595134347_rgbf000091-resize_0/000505_2014-06-08_23-03-23_260595134347_rgbf000091-resize-original.jpg,5400,2369827,2591003,27
300800,DepthScenes,duration_discrimination,discrim_jsons/d0_dr.json,http://54.197.185.130/DepthDuration/depth_discrimination_MTurk/DepthDiscrim_HTML.html#1,1,1349,768,1366,768,6-12-2021,8-27-45,131,,,,,,,1022,511,243,505,243,503,meters,3,3,depth_discrimination_stimuli/002323_2014-06-28_20-01-54_260595134347_rgbf000051-resize_4/002323_2014-06-28_20-01-54_260595134347_rgbf000051-resize-original.jpg,13544,2369827,2591003,27
300800,DepthScenes,duration_discrimination,discrim_jsons/d0_dr.json,http://54.197.185.130/DepthDuration/depth_discrimination_MTurk/DepthDiscrim_HTML.html#1,1,1349,768,1366,768,6-12-2021,8-27-45,132,,,,,,,1022,511,243,505,243,503,meters,3,4,depth_discrimination_stimuli/001197_2014-06-17_16-01-50_260595134347_rgbf000103-resize_4/001197_2014-06-17_16-01-50_260595134347_rgbf000103-resize-original.jpg,14544,2369827,2591003,27
300800,DepthScenes,duration_discrimination,discrim_jsons/d0_dr.json,http://54.197.185.130/DepthDuration/depth_discrimination_MTurk/DepthDiscrim_HTML.html#1,1,1349,768,1366,768,6-12-2021,8-27-45,133,,,,,,,1022,511,243,505,243,503,meters,4,3,depth_discrimination_stimuli/003070_2014-06-15_14-58-27_094959634447_rgbf000150-resize_3/003070_2014-06-15_14-58-27_094959634447_rgbf000150-resize-original.jpg,5872,2369827,2591003,27
300800,DepthScenes,duration_discrimination,discrim_jsons/d0_dr.json,http://54.197.185.130/DepthDuration/depth_discrimination_MTurk/DepthDiscrim_HTML.html#1,1,1349,768,1366,768,6-12-2021,8-27-45,134,,,,,,,1022,511,243,505,243,503,meters,3,4,depth_discrimination_stimuli/001617_2014-06-20_11-35-32_260595134347_rgbf000066-resize_1/001617_2014-06-20_11-35-32_260595134347_rgbf000066-resize-original.jpg,17336,2369827,2591003,27
300800,DepthScenes,duration_discrimination,discrim_jsons/d0_dr.json,http://54.197.185.130/DepthDuration/depth_discrimination_MTurk/DepthDiscrim_HTML.html#1,1,1349,768,1366,768,6-12-2021,8-27-45,135,,,,,,,1022,511,243,505,243,503,meters,4,3,depth_discrimination_stimuli/002344_2014-06-28_20-06-29_260595134347_rgbf000030-resize_1/002344_2014-06-28_20-06-29_260595134347_rgbf000030-resize-original.jpg,10352,2369827,2591003,27
300800,DepthScenes,duration_discrimination,discrim_jsons/d0_dr.json,http://54.197.185.130/DepthDuration/depth_discrimination_MTurk/DepthDiscrim_HTML.html#1,1,1349,768,1366,768,6-12-2021,8-27-45,136,,,,,,,1022,511,243,505,243,503,meters,3,2,depth_discrimination_stimuli/003546_2014-05-22_15-48-53_094959634447_rgbf004816-resize_3/003546_2014-05-22_15-48-53_094959634447_rgbf004816-resize-original.jpg,6352,2369827,2591003,27
300800,DepthScenes,duration_discrimination,discrim_jsons/d0_dr.json,http://54.197.185.130/DepthDuration/depth_discrimination_MTurk/DepthDiscrim_HTML.html#1,1,1349,768,1366,768,6-12-2021,8-27-45,137,,,,,,,1022,511,243,505,243,503,meters,4,5,depth_discrimination_stimuli/001828_2014-06-26_21-40-03_260595134347_rgbf000024-resize_0/001828_2014-06-26_21-40-03_260595134347_rgbf000024-resize-original.jpg,6232,2369827,2591003,27
300800,DepthScenes,duration_discrimination,discrim_jsons/d0_dr.json,http://54.197.185.130/DepthDuration/depth_discrimination_MTurk/DepthDiscrim_HTML.html#1,1,1349,768,1366,768,6-12-2021,8-27-45,138,,,,,,,1022,511,243,505,243,503,meters,3,3,depth_discrimination_stimuli/000677_2014-06-08_23-10-32_260595134347_rgbf000158-resize_6/000677_2014-06-08_23-10-32_260595134347_rgbf000158-resize-original.jpg,16128,2369827,2591003,27
300800,DepthScenes,duration_discrimination,discrim_jsons/d0_dr.json,http://54.197.185.130/DepthDuration/depth_discrimination_MTurk/DepthDiscrim_HTML.html#1,1,1349,768,1366,768,6-12-2021,8-27-45,139,,,,,,,1022,511,243,505,243,503,meters,4,3,depth_discrimination_stimuli/002057_2014-06-24_21-00-13_260595134347_rgbf000120-resize_1/002057_2014-06-24_21-00-13_260595134347_rgbf000120-resize-original.jpg,10344,2369827,2591003,27
300800,DepthScenes,duration_discrimination,discrim_jsons/d0_dr.json,http://54.197.185.130/DepthDuration/depth_discrimination_MTurk/DepthDiscrim_HTML.html#1,1,1349,768,1366,768,6-12-2021,8-27-45,140,,,,,,,1022,511,243,505,243,503,meters,4,3,depth_discrimination_stimuli/001188_2014-06-17_15-54-10_260595134347_rgbf000090-resize_2/001188_2014-06-17_15-54-10_260595134347_rgbf000090-resize-original.jpg,15975,2369827,2591003,27
300800,DepthScenes,duration_discrimination,discrim_jsons/d0_dr.json,http://54.197.185.130/DepthDuration/depth_discrimination_MTurk/DepthDiscrim_HTML.html#1,1,1349,768,1366,768,6-12-2021,8-27-45,141,,,,,,,1022,511,243,505,243,503,meters,3,2,depth_discrimination_stimuli/001815_2014-06-26_20-52-55_260595134347_rgbf000020-resize_0/001815_2014-06-26_20-52-55_260595134347_rgbf000020-resize-original.jpg,28693,2369827,2591003,27
300800,DepthScenes,duration_discrimination,discrim_jsons/d0_dr.json,http://54.197.185.130/DepthDuration/depth_discrimination_MTurk/DepthDiscrim_HTML.html#1,1,1349,768,1366,768,6-12-2021,8-27-45,142,,,,,,,1022,511,243,505,243,503,meters,3,4,depth_discrimination_stimuli/001584_2014-06-20_11-07-43_260595134347_rgbf000002-resize_1/001584_2014-06-20_11-07-43_260595134347_rgbf000002-resize-original.jpg,8511,2369827,2591003,27
300800,DepthScenes,duration_discrimination,discrim_jsons/d0_dr.json,http://54.197.185.130/DepthDuration/depth_discrimination_MTurk/DepthDiscrim_HTML.html#1,1,1349,768,1366,768,6-12-2021,8-27-45,143,,,,,,,1022,511,243,505,243,503,meters,4,4,depth_discrimination_stimuli/000470_2014-06-09_19-42-40_260595134347_rgbf000094-resize_1/000470_2014-06-09_19-42-40_260595134347_rgbf000094-resize-original.jpg,5895,2369827,2591003,27
300800,DepthScenes,duration_discrimination,discrim_jsons/d0_dr.json,http://54.197.185.130/DepthDuration/depth_discrimination_MTurk/DepthDiscrim_HTML.html#1,1,1349,768,1366,768,6-12-2021,8-27-45,144,,,,,,,1022,511,243,505,243,503,meters,3,3,depth_discrimination_stimuli/002758_2014-06-22_19-11-20_094959634447_rgbf000128-resize_1/002758_2014-06-22_19-11-20_094959634447_rgbf000128-resize-original.jpg,5567,2369827,2591003,27
300800,DepthScenes,duration_discrimination,discrim_jsons/d0_dr.json,http://54.197.185.130/DepthDuration/depth_discrimination_MTurk/DepthDiscrim_HTML.html#1,1,1349,768,1366,768,6-12-2021,8-27-45,145,,,,,,,1022,511,243,505,243,503,meters,4,4,depth_discrimination_stimuli/001011_2014-06-08_23-18-54_260595134347_rgbf000044-resize_4/001011_2014-06-08_23-18-54_260595134347_rgbf000044-resize-original.jpg,5271,2369827,2591003,27
300800,DepthScenes,duration_discrimination,discrim_jsons/d0_dr.json,http://54.197.185.130/DepthDuration/depth_discrimination_MTurk/DepthDiscrim_HTML.html#1,1,1349,768,1366,768,6-12-2021,8-27-45,146,,,,,,,1022,511,243,505,243,503,meters,3,5,depth_discrimination_stimuli/000753_2014-06-08_21-57-44_260595134347_rgbf000123-resize_3/000753_2014-06-08_21-57-44_260595134347_rgbf000123-resize-original.jpg,14042,2369827,2591003,27
300800,DepthScenes,duration_discrimination,discrim_jsons/d0_dr.json,http://54.197.185.130/DepthDuration/depth_discrimination_MTurk/DepthDiscrim_HTML.html#1,1,1349,768,1366,768,6-12-2021,8-27-45,147,,,,,,,1022,511,243,505,243,503,meters,3,5,depth_discrimination_stimuli/001392_2014-06-19_16-07-59_260595134347_rgbf000046-resize_1/001392_2014-06-19_16-07-59_260595134347_rgbf000046-resize-original.jpg,8368,2369827,2591003,27
300800,DepthScenes,duration_discrimination,discrim_jsons/d0_dr.json,http://54.197.185.130/DepthDuration/depth_discrimination_MTurk/DepthDiscrim_HTML.html#1,1,1349,768,1366,768,6-12-2021,8-27-45,148,,,,,,,1022,511,243,505,243,503,meters,5,3,depth_discrimination_stimuli/002279_2014-06-28_18-55-32_260595134347_rgbf000040-resize_5/002279_2014-06-28_18-55-32_260595134347_rgbf000040-resize-original.jpg,8000,2369827,2591003,27
300800,DepthScenes,duration_discrimination,discrim_jsons/d0_dr.json,http://54.197.185.130/DepthDuration/depth_discrimination_MTurk/DepthDiscrim_HTML.html#1,1,1349,768,1366,768,6-12-2021,8-27-45,149,,,,,,,1022,511,243,505,243,503,meters,3,3,depth_discrimination_stimuli/001092_2014-06-15_17-34-58_260595134347_rgbf000171-resize_3/001092_2014-06-15_17-34-58_260595134347_rgbf000171-resize-original.jpg,9279,2369827,2591003,27
300800,DepthScenes,duration_discrimination,discrim_jsons/d0_dr.json,http://54.197.185.130/DepthDuration/depth_discrimination_MTurk/DepthDiscrim_HTML.html#1,1,1349,768,1366,768,6-12-2021,8-27-45,150,,,,,,,1022,511,243,505,243,503,meters,5,3,depth_discrimination_stimuli/001447_2014-06-19_17-00-32_260595134347_rgbf000082-resize_5/001447_2014-06-19_17-00-32_260595134347_rgbf000082-resize-original.jpg,5264,2369827,2591003,27
300800,DepthScenes,duration_discrimination,discrim_jsons/d0_dr.json,http://54.197.185.130/DepthDuration/depth_discrimination_MTurk/DepthDiscrim_HTML.html#1,1,1349,768,1366,768,6-12-2021,8-27-45,151,,,,,,,1022,511,243,505,243,503,meters,3,3,depth_discrimination_stimuli/002039_2014-06-24_20-22-38_260595134347_rgbf000084-resize_1/002039_2014-06-24_20-22-38_260595134347_rgbf000084-resize-original.jpg,8248,2369827,2591003,27
300800,DepthScenes,duration_discrimination,discrim_jsons/d0_dr.json,http://54.197.185.130/DepthDuration/depth_discrimination_MTurk/DepthDiscrim_HTML.html#1,1,1349,768,1366,768,6-12-2021,8-27-45,152,,,,,,,1022,511,243,505,243,503,meters,4,4,depth_discrimination_stimuli/000735_2014-06-08_18-23-50_260595134347_rgbf000163-resize_2/000735_2014-06-08_18-23-50_260595134347_rgbf000163-resize-original.jpg,9984,2369827,2591003,27
300800,DepthScenes,duration_discrimination,discrim_jsons/d0_dr.json,http://54.197.185.130/DepthDuration/depth_discrimination_MTurk/DepthDiscrim_HTML.html#1,1,1349,768,1366,768,6-12-2021,8-27-45,153,,,,,,,1022,511,243,505,243,503,meters,3,3,depth_discrimination_stimuli/001244_2014-06-17_16-47-45_260595134347_rgbf000030-resize_4/001244_2014-06-17_16-47-45_260595134347_rgbf000030-resize-original.jpg,16689,2369827,2591003,27
300800,DepthScenes,duration_discrimination,discrim_jsons/d0_dr.json,http://54.197.185.130/DepthDuration/depth_discrimination_MTurk/DepthDiscrim_HTML.html#1,1,1349,768,1366,768,6-12-2021,8-27-45,154,,,,,,,1022,511,243,505,243,503,meters,5,2,depth_discrimination_stimuli/000436_2014-06-09_22-25-11_260595134347_rgbf000137-resize_1/000436_2014-06-09_22-25-11_260595134347_rgbf000137-resize-original.jpg,5571,2369827,2591003,27
300800,DepthScenes,duration_discrimination,discrim_jsons/d0_dr.json,http://54.197.185.130/DepthDuration/depth_discrimination_MTurk/DepthDiscrim_HTML.html#1,1,1349,768,1366,768,6-12-2021,8-27-45,155,,,,,,,1022,511,243,505,243,503,meters,5,2,depth_discrimination_stimuli/002988_2014-06-15_12-24-20_094959634447_rgbf000150-resize_1/002988_2014-06-15_12-24-20_094959634447_rgbf000150-resize-original.jpg,6429,2369827,2591003,27
300800,DepthScenes,duration_discrimination,discrim_jsons/d0_dr.json,http://54.197.185.130/DepthDuration/depth_discrimination_MTurk/DepthDiscrim_HTML.html#1,1,1349,768,1366,768,6-12-2021,8-27-45,156,,,,,,,1022,511,243,505,243,503,meters,3,4,depth_discrimination_stimuli/000682_2014-06-08_23-14-58_260595134347_rgbf000041-resize_5/000682_2014-06-08_23-14-58_260595134347_rgbf000041-resize-original.jpg,5463,2369827,2591003,27
300800,DepthScenes,duration_discrimination,discrim_jsons/d0_dr.json,http://54.197.185.130/DepthDuration/depth_discrimination_MTurk/DepthDiscrim_HTML.html#1,1,1349,768,1366,768,6-12-2021,8-27-45,157,,,,,,,1022,511,243,505,243,503,meters,4,3,depth_discrimination_stimuli/003228_2014-05-14_13-42-35_094959634447_rgbf000101-resize_1/003228_2014-05-14_13-42-35_094959634447_rgbf000101-resize-original.jpg,4832,2369827,2591003,27
300800,DepthScenes,duration_discrimination,discrim_jsons/d0_dr.json,http://54.197.185.130/DepthDuration/depth_discrimination_MTurk/DepthDiscrim_HTML.html#1,1,1349,768,1366,768,6-12-2021,8-27-45,158,,,,,,,1022,511,243,505,243,503,meters,3,3,depth_discrimination_stimuli/001450_2014-06-19_17-02-03_260595134347_rgbf000203-resize_4/001450_2014-06-19_17-02-03_260595134347_rgbf000203-resize-original.jpg,8288,2369827,2591003,27
300800,DepthScenes,duration_discrimination,discrim_jsons/d0_dr.json,http://54.197.185.130/DepthDuration/depth_discrimination_MTurk/DepthDiscrim_HTML.html#1,1,1349,768,1366,768,6-12-2021,8-27-45,159,,,,,,,1022,511,243,505,243,503,meters,3,4,depth_discrimination_stimuli/003292_2014-05-14_21-53-49_094959634447_rgbf000100-resize_2/003292_2014-05-14_21-53-49_094959634447_rgbf000100-resize-original.jpg,6984,2369827,2591003,27
300800,DepthScenes,duration_discrimination,discrim_jsons/d0_dr.json,http://54.197.185.130/DepthDuration/depth_discrimination_MTurk/DepthDiscrim_HTML.html#1,1,1349,768,1366,768,6-12-2021,8-27-45,160,,,,,,,1022,511,243,505,243,503,meters,4,3,depth_discrimination_stimuli/002549_2014-06-24_13-41-39_094959634447_rgbf000022-resize_3/002549_2014-06-24_13-41-39_094959634447_rgbf000022-resize-original.jpg,18647,2369827,2591003,27
300800,DepthScenes,duration_discrimination,discrim_jsons/d0_dr.json,http://54.197.185.130/DepthDuration/depth_discrimination_MTurk/DepthDiscrim_HTML.html#1,1,1349,768,1366,768,6-12-2021,8-27-45,161,,,,,,,1022,511,243,505,243,503,meters,3,5,depth_discrimination_stimuli/002118_2014-06-25_20-32-08_260595134347_rgbf000078-resize_1/002118_2014-06-25_20-32-08_260595134347_rgbf000078-resize-original.jpg,6783,2369827,2591003,27
300800,DepthScenes,duration_discrimination,discrim_jsons/d0_dr.json,http://54.197.185.130/DepthDuration/depth_discrimination_MTurk/DepthDiscrim_HTML.html#1,1,1349,768,1366,768,6-12-2021,8-27-45,162,,,,,,,1022,511,243,505,243,503,meters,3,4,depth_discrimination_stimuli/000493_2014-06-09_21-01-18_260595134347_rgbf000196-resize_3/000493_2014-06-09_21-01-18_260595134347_rgbf000196-resize-original.jpg,5711,2369827,2591003,27
300800,DepthScenes,duration_discrimination,discrim_jsons/d0_dr.json,http://54.197.185.130/DepthDuration/depth_discrimination_MTurk/DepthDiscrim_HTML.html#1,1,1349,768,1366,768,6-12-2021,8-27-45,163,,,,,,,1022,511,243,505,243,503,meters,3,4,depth_discrimination_stimuli/002468_2014-06-28_20-38-39_260595134347_rgbf000045-resize_1/002468_2014-06-28_20-38-39_260595134347_rgbf000045-resize-original.jpg,6943,2369827,2591003,27
300800,DepthScenes,duration_discrimination,discrim_jsons/d0_dr.json,http://54.197.185.130/DepthDuration/depth_discrimination_MTurk/DepthDiscrim_HTML.html#1,1,1349,768,1366,768,6-12-2021,8-27-45,164,,,,,,,1022,511,243,505,243,503,meters,4,4,depth_discrimination_stimuli/000457_2014-06-08_16-52-43_260595134347_rgbf000199-resize_1/000457_2014-06-08_16-52-43_260595134347_rgbf000199-resize-original.jpg,10407,2369827,2591003,27
300800,DepthScenes,duration_discrimination,discrim_jsons/d0_dr.json,http://54.197.185.130/DepthDuration/depth_discrimination_MTurk/DepthDiscrim_HTML.html#1,1,1349,768,1366,768,6-12-2021,8-27-45,165,,,,,,,1022,511,243,505,243,503,meters,3,4,depth_discrimination_stimuli/000636_2014-06-08_16-39-02_260595134347_rgbf000108-resize_4/000636_2014-06-08_16-39-02_260595134347_rgbf000108-resize-original.jpg,5703,2369827,2591003,27
300800,DepthScenes,duration_discrimination,discrim_jsons/d0_dr.json,http://54.197.185.130/DepthDuration/depth_discrimination_MTurk/DepthDiscrim_HTML.html#1,1,1349,768,1366,768,6-12-2021,8-27-45,166,,,,,,,1022,511,243,505,243,503,meters,2,2,depth_discrimination_stimuli/002630_2014-06-24_14-47-50_094959634447_rgbf000055-resize_1/002630_2014-06-24_14-47-50_094959634447_rgbf000055-resize-original.jpg,4392,2369827,2591003,27
300800,DepthScenes,duration_discrimination,discrim_jsons/d0_dr.json,http://54.197.185.130/DepthDuration/depth_discrimination_MTurk/DepthDiscrim_HTML.html#1,1,1349,768,1366,768,6-12-2021,8-27-45,167,,,,,,,1022,511,243,505,243,503,meters,5,3,depth_discrimination_stimuli/000556_2014-06-09_22-42-56_260595134347_rgbf000214-resize_1/000556_2014-06-09_22-42-56_260595134347_rgbf000214-resize-original.jpg,3599,2369827,2591003,27
300800,DepthScenes,duration_discrimination,discrim_jsons/d0_dr.json,http://54.197.185.130/DepthDuration/depth_discrimination_MTurk/DepthDiscrim_HTML.html#1,1,1349,768,1366,768,6-12-2021,8-27-45,168,,,,,,,1022,511,243,505,243,503,meters,2,4,depth_discrimination_stimuli/001066_2014-06-08_22-03-20_260595134347_rgbf000066-resize_4/001066_2014-06-08_22-03-20_260595134347_rgbf000066-resize-original.jpg,4623,2369827,2591003,27
300800,DepthScenes,duration_discrimination,discrim_jsons/d0_dr.json,http://54.197.185.130/DepthDuration/depth_discrimination_MTurk/DepthDiscrim_HTML.html#1,1,1349,768,1366,768,6-12-2021,8-27-45,169,,,,,,,1022,511,243,505,243,503,meters,3,4,depth_discrimination_stimuli/001571_2014-06-20_17-21-32_260595134347_rgbf000089-resize_1/001571_2014-06-20_17-21-32_260595134347_rgbf000089-resize-original.jpg,3383,2369827,2591003,27
300800,DepthScenes,duration_discrimination,discrim_jsons/d0_dr.json,http://54.197.185.130/DepthDuration/depth_discrimination_MTurk/DepthDiscrim_HTML.html#1,1,1349,768,1366,768,6-12-2021,8-27-45,170,,,,,,,1022,511,243,505,243,503,meters,3,3,depth_discrimination_stimuli/002375_2014-06-28_20-13-44_260595134347_rgbf000032-resize_1/002375_2014-06-28_20-13-44_260595134347_rgbf000032-resize-original.jpg,23112,2369827,2591003,27
300800,DepthScenes,duration_discrimination,discrim_jsons/d0_dr.json,http://54.197.185.130/DepthDuration/depth_discrimination_MTurk/DepthDiscrim_HTML.html#1,1,1349,768,1366,768,6-12-2021,8-27-45,171,,,,,,,1022,511,243,505,243,503,meters,4,4,depth_discrimination_stimuli/000736_2014-06-08_18-24-15_260595134347_rgbf000206-resize_3/000736_2014-06-08_18-24-15_260595134347_rgbf000206-resize-original.jpg,6032,2369827,2591003,27
300800,DepthScenes,duration_discrimination,discrim_jsons/d0_dr.json,http://54.197.185.130/DepthDuration/depth_discrimination_MTurk/DepthDiscrim_HTML.html#1,1,1349,768,1366,768,6-12-2021,8-27-45,172,,,,,,,1022,511,243,505,243,503,meters,4,2,depth_discrimination_stimuli/000542_2014-06-08_18-27-08_260595134347_rgbf000118-resize_1/000542_2014-06-08_18-27-08_260595134347_rgbf000118-resize-original.jpg,4592,2369827,2591003,27
300800,DepthScenes,duration_discrimination,discrim_jsons/d0_dr.json,http://54.197.185.130/DepthDuration/depth_discrimination_MTurk/DepthDiscrim_HTML.html#1,1,1349,768,1366,768,6-12-2021,8-27-45,173,,,,,,,1022,511,243,505,243,503,meters,2,5,depth_discrimination_stimuli/002570_2014-06-24_13-59-54_094959634447_rgbf000059-resize_0/002570_2014-06-24_13-59-54_094959634447_rgbf000059-resize-original.jpg,4088,2369827,2591003,27
300800,DepthScenes,duration_discrimination,discrim_jsons/d0_dr.json,http://54.197.185.130/DepthDuration/depth_discrimination_MTurk/DepthDiscrim_HTML.html#1,1,1349,768,1366,768,6-12-2021,8-27-45,174,,,,,,,1022,511,243,505,243,503,meters,3,3,depth_discrimination_stimuli/001214_2014-06-17_16-13-55_260595134347_rgbf000111-resize_0/001214_2014-06-17_16-13-55_260595134347_rgbf000111-resize-original.jpg,4696,2369827,2591003,27
300800,DepthScenes,duration_discrimination,discrim_jsons/d0_dr.json,http://54.197.185.130/DepthDuration/depth_discrimination_MTurk/DepthDiscrim_HTML.html#1,1,1349,768,1366,768,6-12-2021,8-27-45,175,,,,,,,1022,511,243,505,243,503,meters,4,3,depth_discrimination_stimuli/000830_2014-06-04_19-49-31_260595134347_rgbf000096-resize_2/000830_2014-06-04_19-49-31_260595134347_rgbf000096-resize-original.jpg,8456,2369827,2591003,27
300800,DepthScenes,duration_discrimination,discrim_jsons/d0_dr.json,http://54.197.185.130/DepthDuration/depth_discrimination_MTurk/DepthDiscrim_HTML.html#1,1,1349,768,1366,768,6-12-2021,8-27-45,176,,,,,,,1022,511,243,505,243,503,meters,4,3,depth_discrimination_stimuli/003423_2014-05-21_10-23-26_094959634447_rgbf002665-resize_2/003423_2014-05-21_10-23-26_094959634447_rgbf002665-resize-original.jpg,8928,2369827,2591003,27
300800,DepthScenes,duration_discrimination,discrim_jsons/d0_dr.json,http://54.197.185.130/DepthDuration/depth_discrimination_MTurk/DepthDiscrim_HTML.html#1,1,1349,768,1366,768,6-12-2021,8-27-45,177,,,,,,,1022,511,243,505,243,503,meters,4,3,depth_discrimination_stimuli/001175_2014-06-17_15-45-55_260595134347_rgbf000129-resize_4/001175_2014-06-17_15-45-55_260595134347_rgbf000129-resize-original.jpg,6280,2369827,2591003,27
300800,DepthScenes,duration_discrimination,discrim_jsons/d0_dr.json,http://54.197.185.130/DepthDuration/depth_discrimination_MTurk/DepthDiscrim_HTML.html#1,1,1349,768,1366,768,6-12-2021,8-27-45,178,,,,,,,1022,511,243,505,243,503,meters,4,2,depth_discrimination_stimuli/001100_2014-06-15_17-46-26_260595134347_rgbf000225-resize_2/001100_2014-06-15_17-46-26_260595134347_rgbf000225-resize-original.jpg,7656,2369827,2591003,27
300800,DepthScenes,duration_discrimination,discrim_jsons/d0_dr.json,http://54.197.185.130/DepthDuration/depth_discrimination_MTurk/DepthDiscrim_HTML.html#1,1,1349,768,1366,768,6-12-2021,8-27-45,179,,,,,,,1022,511,243,505,243,503,meters,4,4,depth_discrimination_stimuli/000555_2014-06-09_22-42-23_260595134347_rgbf000037-resize_4/000555_2014-06-09_22-42-23_260595134347_rgbf000037-resize-original.jpg,5528,2369827,2591003,27
300800,DepthScenes,duration_discrimination,discrim_jsons/d0_dr.json,http://54.197.185.130/DepthDuration/depth_discrimination_MTurk/DepthDiscrim_HTML.html#1,1,1349,768,1366,768,6-12-2021,8-27-45,180,,,,,,,1022,511,243,505,243,503,meters,4,3,depth_discrimination_stimuli/003621_2014-05-23_18-06-08_094959634447_rgbf000101-resize_1/003621_2014-05-23_18-06-08_094959634447_rgbf000101-resize-original.jpg,5128,2369827,2591003,27
300800,DepthScenes,duration_discrimination,discrim_jsons/d0_dr.json,http://54.197.185.130/DepthDuration/depth_discrimination_MTurk/DepthDiscrim_HTML.html#1,1,1349,768,1366,768,6-12-2021,8-27-45,181,,,,,,,1022,511,243,505,243,503,meters,4,4,depth_discrimination_stimuli/001136_2014-06-17_15-19-41_260595134347_rgbf000076-resize_3/001136_2014-06-17_15-19-41_260595134347_rgbf000076-resize-original.jpg,5624,2369827,2591003,27
300800,DepthScenes,duration_discrimination,discrim_jsons/d0_dr.json,http://54.197.185.130/DepthDuration/depth_discrimination_MTurk/DepthDiscrim_HTML.html#1,1,1349,768,1366,768,6-12-2021,8-27-45,182,,,,,,,1022,511,243,505,243,503,meters,4,3,depth_discrimination_stimuli/000917_2014-06-09_22-45-29_260595134347_rgbf000149-resize_3/000917_2014-06-09_22-45-29_260595134347_rgbf000149-resize-original.jpg,6864,2369827,2591003,27
300800,DepthScenes,duration_discrimination,discrim_jsons/d0_dr.json,http://54.197.185.130/DepthDuration/depth_discrimination_MTurk/DepthDiscrim_HTML.html#1,1,1349,768,1366,768,6-12-2021,8-27-45,183,,,,,,,1022,511,243,505,243,503,meters,3,3,depth_discrimination_stimuli/002139_2014-06-25_21-19-37_260595134347_rgbf000124-resize_2/002139_2014-06-25_21-19-37_260595134347_rgbf000124-resize-original.jpg,5280,2369827,2591003,27
300800,DepthScenes,duration_discrimination,discrim_jsons/d0_dr.json,http://54.197.185.130/DepthDuration/depth_discrimination_MTurk/DepthDiscrim_HTML.html#1,1,1349,768,1366,768,6-12-2021,8-27-45,184,,,,,,,1022,511,243,505,243,503,meters,3,3,depth_discrimination_stimuli/002414_2014-06-28_20-24-58_260595134347_rgbf000067-resize_4/002414_2014-06-28_20-24-58_260595134347_rgbf000067-resize-original.jpg,253992,2369827,2591003,27
300800,DepthScenes,duration_discrimination,discrim_jsons/d0_dr.json,http://54.197.185.130/DepthDuration/depth_discrimination_MTurk/DepthDiscrim_HTML.html#1,1,1349,768,1366,768,6-12-2021,8-27-45,185,,,,,,,1022,511,243,505,243,503,meters,2,4,depth_discrimination_stimuli/000409_2014-06-04_19-23-33_260595134347_rgbf000067-resize_0/000409_2014-06-04_19-23-33_260595134347_rgbf000067-resize-original.jpg,4831,2369827,2591003,27
300800,DepthScenes,duration_discrimination,discrim_jsons/d0_dr.json,http://54.197.185.130/DepthDuration/depth_discrimination_MTurk/DepthDiscrim_HTML.html#1,1,1349,768,1366,768,6-12-2021,8-27-45,186,,,,,,,1022,511,243,505,243,503,meters,4,2,depth_discrimination_stimuli/003092_2014-06-24_21-01-49_094959634447_rgbf000049-resize_2/003092_2014-06-24_21-01-49_094959634447_rgbf000049-resize-original.jpg,7535,2369827,2591003,27
300800,DepthScenes,duration_discrimination,discrim_jsons/d0_dr.json,http://54.197.185.130/DepthDuration/depth_discrimination_MTurk/DepthDiscrim_HTML.html#1,1,1349,768,1366,768,6-12-2021,8-27-45,187,,,,,,,1022,511,243,505,243,503,meters,3,2,depth_discrimination_stimuli/002445_2014-06-28_20-32-16_260595134347_rgbf000029-resize_4/002445_2014-06-28_20-32-16_260595134347_rgbf000029-resize-original.jpg,5151,2369827,2591003,27
300800,DepthScenes,duration_discrimination,discrim_jsons/d0_dr.json,http://54.197.185.130/DepthDuration/depth_discrimination_MTurk/DepthDiscrim_HTML.html#1,1,1349,768,1366,768,6-12-2021,8-27-45,188,,,,,,,1022,511,243,505,243,503,meters,3,4,depth_discrimination_stimuli/002043_2014-06-24_20-29-38_260595134347_rgbf000039-resize_4/002043_2014-06-24_20-29-38_260595134347_rgbf000039-resize-original.jpg,6967,2369827,2591003,27
300800,DepthScenes,duration_discrimination,discrim_jsons/d0_dr.json,http://54.197.185.130/DepthDuration/depth_discrimination_MTurk/DepthDiscrim_HTML.html#1,1,1349,768,1366,768,6-12-2021,8-27-45,189,,,,,,,1022,511,243,505,243,503,meters,3,3,depth_discrimination_stimuli/001029_2014-06-08_13-17-57_260595134347_rgbf000065-resize_1/001029_2014-06-08_13-17-57_260595134347_rgbf000065-resize-original.jpg,2311,2369827,2591003,27
300800,DepthScenes,duration_discrimination,discrim_jsons/d0_dr.json,http://54.197.185.130/DepthDuration/depth_discrimination_MTurk/DepthDiscrim_HTML.html#1,1,1349,768,1366,768,6-12-2021,8-27-45,190,,,,,,,1022,511,243,505,243,503,meters,3,3,depth_discrimination_stimuli/001110_2014-06-15_17-25-28_260595134347_rgbf000150-resize_1/001110_2014-06-15_17-25-28_260595134347_rgbf000150-resize-original.jpg,8241,2369827,2591003,27
300800,DepthScenes,duration_discrimination,discrim_jsons/d0_dr.json,http://54.197.185.130/DepthDuration/depth_discrimination_MTurk/DepthDiscrim_HTML.html#1,1,1349,768,1366,768,6-12-2021,8-27-45,191,,,,,,,1022,511,243,505,243,503,meters,4,3,depth_discrimination_stimuli/002464_2014-06-28_20-36-57_260595134347_rgbf000029-resize_0/002464_2014-06-28_20-36-57_260595134347_rgbf000029-resize-original.jpg,6799,2369827,2591003,27
300800,DepthScenes,duration_discrimination,discrim_jsons/d0_dr.json,http://54.197.185.130/DepthDuration/depth_discrimination_MTurk/DepthDiscrim_HTML.html#1,1,1349,768,1366,768,6-12-2021,8-27-45,192,,,,,,,1022,511,243,505,243,503,meters,3,4,depth_discrimination_stimuli/001516_2014-06-20_16-25-09_260595134347_rgbf000076-resize_2/001516_2014-06-20_16-25-09_260595134347_rgbf000076-resize-original.jpg,13975,2369827,2591003,27
300800,DepthScenes,duration_discrimination,discrim_jsons/d0_dr.json,http://54.197.185.130/DepthDuration/depth_discrimination_MTurk/DepthDiscrim_HTML.html#1,1,1349,768,1366,768,6-12-2021,8-27-45,193,,,,,,,1022,511,243,505,243,503,meters,3,3,depth_discrimination_stimuli/002467_2014-06-28_20-38-07_260595134347_rgbf000026-resize_2/002467_2014-06-28_20-38-07_260595134347_rgbf000026-resize-original.jpg,19111,2369827,2591003,27
300800,DepthScenes,duration_discrimination,discrim_jsons/d0_dr.json,http://54.197.185.130/DepthDuration/depth_discrimination_MTurk/DepthDiscrim_HTML.html#1,1,1349,768,1366,768,6-12-2021,8-27-45,194,,,,,,,1022,511,243,505,243,503,meters,4,3,depth_discrimination_stimuli/002748_2014-06-22_19-07-22_094959634447_rgbf000078-resize_1/002748_2014-06-22_19-07-22_094959634447_rgbf000078-resize-original.jpg,4359,2369827,2591003,27
300800,DepthScenes,duration_discrimination,discrim_jsons/d0_dr.json,http://54.197.185.130/DepthDuration/depth_discrimination_MTurk/DepthDiscrim_HTML.html#1,1,1349,768,1366,768,6-12-2021,8-27-45,195,,,,,,,1022,511,243,505,243,503,meters,3,4,depth_discrimination_stimuli/001133_2014-06-17_14-49-16_260595134347_rgbf000100-resize_0/001133_2014-06-17_14-49-16_260595134347_rgbf000100-resize-original.jpg,4360,2369827,2591003,27
300800,DepthScenes,duration_discrimination,discrim_jsons/d0_dr.json,http://54.197.185.130/DepthDuration/depth_discrimination_MTurk/DepthDiscrim_HTML.html#1,1,1349,768,1366,768,6-12-2021,8-27-45,196,,,,,,,1022,511,243,505,243,503,meters,4,2,depth_discrimination_stimuli/002788_2014-06-22_19-36-03_094959634447_rgbf000088-resize_2/002788_2014-06-22_19-36-03_094959634447_rgbf000088-resize-original.jpg,4792,2369827,2591003,27
