subjID,experimentName,versionName,sequenceName,url,selected_row,windowWidth,windowHeight,screenWidth,screenHeight,startDate,startTime,trial,stimulus_0,stimulus_1,duration,actual_depth_0,actual_depth_1,discrim_choice,trial_RT,log_fixation,log_sceneDuration1,log_mask1,log_sceneDuration2,log_mask2,unitSelection,meanDepth_rating,navigability_rating,rated_stimulus,rating_RT,experimentTime,totalTime,age
223452,DepthScenes,duration_discrimination,discrim_jsons/d0_rotated_dr.json,http://54.173.234.186/DepthDuration/depth_discrimination_MTurk/DepthDiscrim_HTML.html#2,2,1119,751,1118,894,6-19-2021,15-52-14,1,depth_discrimination_stimuli/002103_2014-06-25_20-00-40_260595134347_rgbf000049-resize_0/002103_2014-06-25_20-00-40_260595134347_rgbf000049-resize_0-target.png,depth_discrimination_stimuli/000692_2014-06-08_13-09-42_260595134347_rgbf000199-resize_2/000692_2014-06-08_13-09-42_260595134347_rgbf000199-resize_2-target.png,1000,4.105,3.661,0,3330,502,1002,497,1000,513,feet,,,,,629992,716120,30
223452,DepthScenes,duration_discrimination,discrim_jsons/d0_rotated_dr.json,http://54.173.234.186/DepthDuration/depth_discrimination_MTurk/DepthDiscrim_HTML.html#2,2,1119,751,1118,894,6-19-2021,15-52-14,2,depth_discrimination_stimuli/002468_2014-06-28_20-38-39_260595134347_rgbf000045-resize_1/002468_2014-06-28_20-38-39_260595134347_rgbf000045-resize_1-target.png,depth_discrimination_stimuli/002579_2014-06-24_14-08-03_094959634447_rgbf000061-resize_2/002579_2014-06-24_14-08-03_094959634447_rgbf000061-resize_2-target.png,1000,1.956,2.223125,1,1901,516,991,499,1001,494,feet,,,,,629992,716120,30
223452,DepthScenes,duration_discrimination,discrim_jsons/d0_rotated_dr.json,http://54.173.234.186/DepthDuration/depth_discrimination_MTurk/DepthDiscrim_HTML.html#2,2,1119,751,1118,894,6-19-2021,15-52-14,3,depth_discrimination_stimuli/002039_2014-06-24_20-22-38_260595134347_rgbf000084-resize_1/002039_2014-06-24_20-22-38_260595134347_rgbf000084-resize_1-target.png,depth_discrimination_stimuli/001450_2014-06-19_17-02-03_260595134347_rgbf000203-resize_4/001450_2014-06-19_17-02-03_260595134347_rgbf000203-resize_4-target.png,1000,4.408,4.0106666666667,0,1670,509,995,508,989,525,feet,,,,,629992,716120,30
223452,DepthScenes,duration_discrimination,discrim_jsons/d0_rotated_dr.json,http://54.173.234.186/DepthDuration/depth_discrimination_MTurk/DepthDiscrim_HTML.html#2,2,1119,751,1118,894,6-19-2021,15-52-14,4,depth_discrimination_stimuli/000943_2014-06-09_19-31-07_260595134347_rgbf000128-resize_1/000943_2014-06-09_19-31-07_260595134347_rgbf000128-resize_1-target.png,depth_discrimination_stimuli/001555_2014-06-20_17-12-10_260595134347_rgbf000065-resize_4/001555_2014-06-20_17-12-10_260595134347_rgbf000065-resize_4-target.png,250,1.9765,1.633,0,3389,514,243,497,249,512,feet,,,,,629992,716120,30
223452,DepthScenes,duration_discrimination,discrim_jsons/d0_rotated_dr.json,http://54.173.234.186/DepthDuration/depth_discrimination_MTurk/DepthDiscrim_HTML.html#2,2,1119,751,1118,894,6-19-2021,15-52-14,5,depth_discrimination_stimuli/000709_2014-06-08_13-51-55_260595134347_rgbf000068-resize_3/000709_2014-06-08_13-51-55_260595134347_rgbf000068-resize_3-target.png,depth_discrimination_stimuli/003587_2014-05-23_16-48-02_094959634447_rgbf002384-resize_2/003587_2014-05-23_16-48-02_094959634447_rgbf002384-resize_2-target.png,1000,1.803,1.357,1,1580,510,992,498,1001,499,feet,,,,,629992,716120,30
223452,DepthScenes,duration_discrimination,discrim_jsons/d0_rotated_dr.json,http://54.173.234.186/DepthDuration/depth_discrimination_MTurk/DepthDiscrim_HTML.html#2,2,1119,751,1118,894,6-19-2021,15-52-14,6,depth_discrimination_stimuli/002136_2014-06-25_21-18-03_260595134347_rgbf000109-resize_3/002136_2014-06-25_21-18-03_260595134347_rgbf000109-resize_3-target.png,depth_discrimination_stimuli/000469_2014-06-09_19-42-10_260595134347_rgbf000081-resize_1/000469_2014-06-09_19-42-10_260595134347_rgbf000081-resize_1-target.png,1000,1.957,1.652,1,1675,517,999,502,990,507,feet,,,,,629992,716120,30
223452,DepthScenes,duration_discrimination,discrim_jsons/d0_rotated_dr.json,http://54.173.234.186/DepthDuration/depth_discrimination_MTurk/DepthDiscrim_HTML.html#2,2,1119,751,1118,894,6-19-2021,15-52-14,7,depth_discrimination_stimuli/002344_2014-06-28_20-06-29_260595134347_rgbf000030-resize_1/002344_2014-06-28_20-06-29_260595134347_rgbf000030-resize_1-target.png,depth_discrimination_stimuli/002509_2014-06-24_13-19-22_094959634447_rgbf000077-resize_0/002509_2014-06-24_13-19-22_094959634447_rgbf000077-resize_0-target.png,1000,1.5795,1.3065,1,1636,511,994,495,1014,499,feet,,,,,629992,716120,30
223452,DepthScenes,duration_discrimination,discrim_jsons/d0_rotated_dr.json,http://54.173.234.186/DepthDuration/depth_discrimination_MTurk/DepthDiscrim_HTML.html#2,2,1119,751,1118,894,6-19-2021,15-52-14,8,depth_discrimination_stimuli/002464_2014-06-28_20-36-57_260595134347_rgbf000029-resize_0/002464_2014-06-28_20-36-57_260595134347_rgbf000029-resize_0-target.png,depth_discrimination_stimuli/000409_2014-06-04_19-23-33_260595134347_rgbf000067-resize_0/000409_2014-06-04_19-23-33_260595134347_rgbf000067-resize_0-target.png,250,3.9525,3.7335,0,823,509,257,503,236,503,feet,,,,,629992,716120,30
223452,DepthScenes,duration_discrimination,discrim_jsons/d0_rotated_dr.json,http://54.173.234.186/DepthDuration/depth_discrimination_MTurk/DepthDiscrim_HTML.html#2,2,1119,751,1118,894,6-19-2021,15-52-14,9,depth_discrimination_stimuli/003048_2014-06-15_13-49-43_094959634447_rgbf000150-resize_1/003048_2014-06-15_13-49-43_094959634447_rgbf000150-resize_1-target.png,depth_discrimination_stimuli/002444_2014-06-28_20-32-08_260595134347_rgbf000027-resize_0/002444_2014-06-28_20-32-08_260595134347_rgbf000027-resize_0-target.png,250,4.0035,4.389,0,996,505,259,488,255,497,feet,,,,,629992,716120,30
223452,DepthScenes,duration_discrimination,discrim_jsons/d0_rotated_dr.json,http://54.173.234.186/DepthDuration/depth_discrimination_MTurk/DepthDiscrim_HTML.html#2,2,1119,751,1118,894,6-19-2021,15-52-14,10,depth_discrimination_stimuli/002630_2014-06-24_14-47-50_094959634447_rgbf000055-resize_1/002630_2014-06-24_14-47-50_094959634447_rgbf000055-resize_1-target.png,depth_discrimination_stimuli/001449_2014-06-19_17-01-27_260595134347_rgbf000116-resize_2/001449_2014-06-19_17-01-27_260595134347_rgbf000116-resize_2-target.png,1000,3.0095,3.452,1,1525,514,1000,492,998,511,feet,,,,,629992,716120,30
223452,DepthScenes,duration_discrimination,discrim_jsons/d0_rotated_dr.json,http://54.173.234.186/DepthDuration/depth_discrimination_MTurk/DepthDiscrim_HTML.html#2,2,1119,751,1118,894,6-19-2021,15-52-14,11,depth_discrimination_stimuli/002131_2014-06-25_21-12-01_260595134347_rgbf000083-resize_0/002131_2014-06-25_21-12-01_260595134347_rgbf000083-resize_0-target.png,depth_discrimination_stimuli/001100_2014-06-15_17-46-26_260595134347_rgbf000225-resize_2/001100_2014-06-15_17-46-26_260595134347_rgbf000225-resize_2-target.png,250,1.7685,2.24,1,834,500,264,495,244,507,feet,,,,,629992,716120,30
223452,DepthScenes,duration_discrimination,discrim_jsons/d0_rotated_dr.json,http://54.173.234.186/DepthDuration/depth_discrimination_MTurk/DepthDiscrim_HTML.html#2,2,1119,751,1118,894,6-19-2021,15-52-14,12,depth_discrimination_stimuli/002949_2014-06-26_15-57-42_094959634447_rgbf000079-resize_1/002949_2014-06-26_15-57-42_094959634447_rgbf000079-resize_1-target.png,depth_discrimination_stimuli/002279_2014-06-28_18-55-32_260595134347_rgbf000040-resize_5/002279_2014-06-28_18-55-32_260595134347_rgbf000040-resize_5-target.png,250,1.8915,1.5043333333333,0,912,501,254,505,256,485,feet,,,,,629992,716120,30
223452,DepthScenes,duration_discrimination,discrim_jsons/d0_rotated_dr.json,http://54.173.234.186/DepthDuration/depth_discrimination_MTurk/DepthDiscrim_HTML.html#2,2,1119,751,1118,894,6-19-2021,15-52-14,13,depth_discrimination_stimuli/001516_2014-06-20_16-25-09_260595134347_rgbf000076-resize_2/001516_2014-06-20_16-25-09_260595134347_rgbf000076-resize_2-target.png,depth_discrimination_stimuli/000635_2014-06-08_16-38-42_260595134347_rgbf000106-resize_1/000635_2014-06-08_16-38-42_260595134347_rgbf000106-resize_1-target.png,250,1.7445,2.074,1,1273,501,253,501,259,487,feet,,,,,629992,716120,30
223452,DepthScenes,duration_discrimination,discrim_jsons/d0_rotated_dr.json,http://54.173.234.186/DepthDuration/depth_discrimination_MTurk/DepthDiscrim_HTML.html#2,2,1119,751,1118,894,6-19-2021,15-52-14,14,depth_discrimination_stimuli/001148_2014-06-17_15-26-42_260595134347_rgbf000129-resize_0/001148_2014-06-17_15-26-42_260595134347_rgbf000129-resize_0-target.png,depth_discrimination_stimuli/000734_2014-06-08_17-39-11_260595134347_rgbf000128-resize_2/000734_2014-06-08_17-39-11_260595134347_rgbf000128-resize_2-target.png,1000,4.368,4.098,1,1569,513,994,497,997,514,feet,,,,,629992,716120,30
223452,DepthScenes,duration_discrimination,discrim_jsons/d0_rotated_dr.json,http://54.173.234.186/DepthDuration/depth_discrimination_MTurk/DepthDiscrim_HTML.html#2,2,1119,751,1118,894,6-19-2021,15-52-14,15,depth_discrimination_stimuli/002043_2014-06-24_20-29-38_260595134347_rgbf000039-resize_4/002043_2014-06-24_20-29-38_260595134347_rgbf000039-resize_4-target.png,depth_discrimination_stimuli/002445_2014-06-28_20-32-16_260595134347_rgbf000029-resize_4/002445_2014-06-28_20-32-16_260595134347_rgbf000029-resize_4-target.png,1000,2.8435,2.5315,1,1591,510,1003,500,1010,477,feet,,,,,629992,716120,30
223452,DepthScenes,duration_discrimination,discrim_jsons/d0_rotated_dr.json,http://54.173.234.186/DepthDuration/depth_discrimination_MTurk/DepthDiscrim_HTML.html#2,2,1119,751,1118,894,6-19-2021,15-52-14,16,depth_discrimination_stimuli/000454_2014-06-08_16-37-28_260595134347_rgbf000048-resize_2/000454_2014-06-08_16-37-28_260595134347_rgbf000048-resize_2-target.png,depth_discrimination_stimuli/000375_2014-06-08_11-17-29_260595134347_rgbf000133-resize_2/000375_2014-06-08_11-17-29_260595134347_rgbf000133-resize_2-target.png,1000,1.213,4.718,0,2688,508,1005,497,996,505,feet,,,,,629992,716120,30
223452,DepthScenes,duration_discrimination,discrim_jsons/d0_rotated_dr.json,http://54.173.234.186/DepthDuration/depth_discrimination_MTurk/DepthDiscrim_HTML.html#2,2,1119,751,1118,894,6-19-2021,15-52-14,17,depth_discrimination_stimuli/003395_2014-05-20_15-39-18_094959634447_rgbf000101-resize_0/003395_2014-05-20_15-39-18_094959634447_rgbf000101-resize_0-target.png,depth_discrimination_stimuli/001540_2014-06-20_17-01-05_260595134347_rgbf000086-resize_2/001540_2014-06-20_17-01-05_260595134347_rgbf000086-resize_2-target.png,250,4.835,1.459,1,896,509,242,515,242,503,feet,,,,,629992,716120,30
223452,DepthScenes,duration_discrimination,discrim_jsons/d0_rotated_dr.json,http://54.173.234.186/DepthDuration/depth_discrimination_MTurk/DepthDiscrim_HTML.html#2,2,1119,751,1118,894,6-19-2021,15-52-14,18,depth_discrimination_stimuli/003621_2014-05-23_18-06-08_094959634447_rgbf000101-resize_1/003621_2014-05-23_18-06-08_094959634447_rgbf000101-resize_1-target.png,depth_discrimination_stimuli/001808_2014-06-26_20-50-58_260595134347_rgbf000029-resize_1/001808_2014-06-26_20-50-58_260595134347_rgbf000029-resize_1-target.png,1000,3.9835,4.249,0,1671,506,1009,495,1000,504,feet,,,,,629992,716120,30
223452,DepthScenes,duration_discrimination,discrim_jsons/d0_rotated_dr.json,http://54.173.234.186/DepthDuration/depth_discrimination_MTurk/DepthDiscrim_HTML.html#2,2,1119,751,1118,894,6-19-2021,15-52-14,19,depth_discrimination_stimuli/001806_2014-06-26_20-50-20_260595134347_rgbf000091-resize_1/001806_2014-06-26_20-50-20_260595134347_rgbf000091-resize_1-target.png,depth_discrimination_stimuli/002460_2014-06-28_20-35-43_260595134347_rgbf000028-resize_4/002460_2014-06-28_20-35-43_260595134347_rgbf000028-resize_4-target.png,250,2.7305,2.269,0,1171,512,245,500,255,501,feet,,,,,629992,716120,30
223452,DepthScenes,duration_discrimination,discrim_jsons/d0_rotated_dr.json,http://54.173.234.186/DepthDuration/depth_discrimination_MTurk/DepthDiscrim_HTML.html#2,2,1119,751,1118,894,6-19-2021,15-52-14,20,depth_discrimination_stimuli/001132_2014-06-17_14-48-54_260595134347_rgbf000100-resize_2/001132_2014-06-17_14-48-54_260595134347_rgbf000100-resize_2-target.png,depth_discrimination_stimuli/002639_2014-06-24_14-51-37_094959634447_rgbf000074-resize_4/002639_2014-06-24_14-51-37_094959634447_rgbf000074-resize_4-target.png,250,3.753,4.0375,0,941,524,231,495,250,515,feet,,,,,629992,716120,30
223452,DepthScenes,duration_discrimination,discrim_jsons/d0_rotated_dr.json,http://54.173.234.186/DepthDuration/depth_discrimination_MTurk/DepthDiscrim_HTML.html#2,2,1119,751,1118,894,6-19-2021,15-52-14,21,depth_discrimination_stimuli/001532_2014-06-20_16-50-41_260595134347_rgbf000081-resize_4/001532_2014-06-20_16-50-41_260595134347_rgbf000081-resize_4-target.png,depth_discrimination_stimuli/002784_2014-06-22_19-26-30_094959634447_rgbf000083-resize_3/002784_2014-06-22_19-26-30_094959634447_rgbf000083-resize_3-target.png,250,1.5758333333333,1.8046666666667,1,847,519,239,496,251,510,feet,,,,,629992,716120,30
223452,DepthScenes,duration_discrimination,discrim_jsons/d0_rotated_dr.json,http://54.173.234.186/DepthDuration/depth_discrimination_MTurk/DepthDiscrim_HTML.html#2,2,1119,751,1118,894,6-19-2021,15-52-14,22,depth_discrimination_stimuli/002545_2014-06-24_13-38-53_094959634447_rgbf000080-resize_4/002545_2014-06-24_13-38-53_094959634447_rgbf000080-resize_4-target.png,depth_discrimination_stimuli/002549_2014-06-24_13-41-39_094959634447_rgbf000022-resize_3/002549_2014-06-24_13-41-39_094959634447_rgbf000022-resize_3-target.png,1000,1.9205,1.476,1,2368,510,992,512,992,506,feet,,,,,629992,716120,30
223452,DepthScenes,duration_discrimination,discrim_jsons/d0_rotated_dr.json,http://54.173.234.186/DepthDuration/depth_discrimination_MTurk/DepthDiscrim_HTML.html#2,2,1119,751,1118,894,6-19-2021,15-52-14,23,depth_discrimination_stimuli/001175_2014-06-17_15-45-55_260595134347_rgbf000129-resize_4/001175_2014-06-17_15-45-55_260595134347_rgbf000129-resize_4-target.png,depth_discrimination_stimuli/002467_2014-06-28_20-38-07_260595134347_rgbf000026-resize_2/002467_2014-06-28_20-38-07_260595134347_rgbf000026-resize_2-target.png,250,4.255,4.742,1,1156,506,255,500,245,495,feet,,,,,629992,716120,30
223452,DepthScenes,duration_discrimination,discrim_jsons/d0_rotated_dr.json,http://54.173.234.186/DepthDuration/depth_discrimination_MTurk/DepthDiscrim_HTML.html#2,2,1119,751,1118,894,6-19-2021,15-52-14,24,depth_discrimination_stimuli/000137_2014-05-20_17-04-49_260595134347_rgbf000120-resize_1/000137_2014-05-20_17-04-49_260595134347_rgbf000120-resize_1-target.png,depth_discrimination_stimuli/000691_2014-06-08_13-08-50_260595134347_rgbf000132-resize_3/000691_2014-06-08_13-08-50_260595134347_rgbf000132-resize_3-target.png,1000,3.786,4.153,0,1690,514,992,500,1002,502,feet,,,,,629992,716120,30
223452,DepthScenes,duration_discrimination,discrim_jsons/d0_rotated_dr.json,http://54.173.234.186/DepthDuration/depth_discrimination_MTurk/DepthDiscrim_HTML.html#2,2,1119,751,1118,894,6-19-2021,15-52-14,25,depth_discrimination_stimuli/000542_2014-06-08_18-27-08_260595134347_rgbf000118-resize_1/000542_2014-06-08_18-27-08_260595134347_rgbf000118-resize_1-target.png,depth_discrimination_stimuli/002118_2014-06-25_20-32-08_260595134347_rgbf000078-resize_1/002118_2014-06-25_20-32-08_260595134347_rgbf000078-resize_1-target.png,250,3,2.646,1,1071,502,253,508,246,501,feet,,,,,629992,716120,30
223452,DepthScenes,duration_discrimination,discrim_jsons/d0_rotated_dr.json,http://54.173.234.186/DepthDuration/depth_discrimination_MTurk/DepthDiscrim_HTML.html#2,2,1119,751,1118,894,6-19-2021,15-52-14,26,depth_discrimination_stimuli/001170_2014-06-17_15-43-44_260595134347_rgbf000096-resize_6/001170_2014-06-17_15-43-44_260595134347_rgbf000096-resize_6-target.png,depth_discrimination_stimuli/002364_2014-06-28_20-11-05_260595134347_rgbf000042-resize_0/002364_2014-06-28_20-11-05_260595134347_rgbf000042-resize_0-target.png,1000,1.191,4.682,1,1579,511,997,497,1002,493,feet,,,,,629992,716120,30
223452,DepthScenes,duration_discrimination,discrim_jsons/d0_rotated_dr.json,http://54.173.234.186/DepthDuration/depth_discrimination_MTurk/DepthDiscrim_HTML.html#2,2,1119,751,1118,894,6-19-2021,15-52-14,27,depth_discrimination_stimuli/000736_2014-06-08_18-24-15_260595134347_rgbf000206-resize_3/000736_2014-06-08_18-24-15_260595134347_rgbf000206-resize_3-target.png,depth_discrimination_stimuli/002323_2014-06-28_20-01-54_260595134347_rgbf000051-resize_4/002323_2014-06-28_20-01-54_260595134347_rgbf000051-resize_4-target.png,1000,3.515,3.731,1,1542,502,1011,489,1004,496,feet,,,,,629992,716120,30
223452,DepthScenes,duration_discrimination,discrim_jsons/d0_rotated_dr.json,http://54.173.234.186/DepthDuration/depth_discrimination_MTurk/DepthDiscrim_HTML.html#2,2,1119,751,1118,894,6-19-2021,15-52-14,28,depth_discrimination_stimuli/002365_2014-06-28_20-11-21_260595134347_rgbf000102-resize_1/002365_2014-06-28_20-11-21_260595134347_rgbf000102-resize_1-target.png,depth_discrimination_stimuli/000457_2014-06-08_16-52-43_260595134347_rgbf000199-resize_1/000457_2014-06-08_16-52-43_260595134347_rgbf000199-resize_1-target.png,250,4.013,3.649,0,1118,514,244,501,245,498,feet,,,,,629992,716120,30
223452,DepthScenes,duration_discrimination,discrim_jsons/d0_rotated_dr.json,http://54.173.234.186/DepthDuration/depth_discrimination_MTurk/DepthDiscrim_HTML.html#2,2,1119,751,1118,894,6-19-2021,15-52-14,29,depth_discrimination_stimuli/002995_2014-06-15_12-31-26_094959634447_rgbf000150-resize_1/002995_2014-06-15_12-31-26_094959634447_rgbf000150-resize_1-target.png,depth_discrimination_stimuli/000739_2014-06-08_18-45-58_260595134347_rgbf000068-resize_1/000739_2014-06-08_18-45-58_260595134347_rgbf000068-resize_1-target.png,250,3.836,3.534,0,1139,513,245,506,249,497,feet,,,,,629992,716120,30
223452,DepthScenes,duration_discrimination,discrim_jsons/d0_rotated_dr.json,http://54.173.234.186/DepthDuration/depth_discrimination_MTurk/DepthDiscrim_HTML.html#2,2,1119,751,1118,894,6-19-2021,15-52-14,30,depth_discrimination_stimuli/003010_2014-06-15_12-54-35_094959634447_rgbf000112-resize_0/003010_2014-06-15_12-54-35_094959634447_rgbf000112-resize_0-target.png,depth_discrimination_stimuli/003546_2014-05-22_15-48-53_094959634447_rgbf004816-resize_3/003546_2014-05-22_15-48-53_094959634447_rgbf004816-resize_3-target.png,250,3.1185,2.62625,1,897,505,254,499,256,494,feet,,,,,629992,716120,30
223452,DepthScenes,duration_discrimination,discrim_jsons/d0_rotated_dr.json,http://54.173.234.186/DepthDuration/depth_discrimination_MTurk/DepthDiscrim_HTML.html#2,2,1119,751,1118,894,6-19-2021,15-52-14,31,depth_discrimination_stimuli/002340_2014-06-28_20-05-46_260595134347_rgbf000113-resize_0/002340_2014-06-28_20-05-46_260595134347_rgbf000113-resize_0-target.png,depth_discrimination_stimuli/001264_2014-06-16_16-10-23_260595134347_rgbf000109-resize_1/001264_2014-06-16_16-10-23_260595134347_rgbf000109-resize_1-target.png,250,2.4735,2.9665,0,841,503,256,503,241,497,feet,,,,,629992,716120,30
223452,DepthScenes,duration_discrimination,discrim_jsons/d0_rotated_dr.json,http://54.173.234.186/DepthDuration/depth_discrimination_MTurk/DepthDiscrim_HTML.html#2,2,1119,751,1118,894,6-19-2021,15-52-14,32,depth_discrimination_stimuli/001570_2014-06-20_17-21-09_260595134347_rgbf000135-resize_4/001570_2014-06-20_17-21-09_260595134347_rgbf000135-resize_4-target.png,depth_discrimination_stimuli/002375_2014-06-28_20-13-44_260595134347_rgbf000032-resize_1/002375_2014-06-28_20-13-44_260595134347_rgbf000032-resize_1-target.png,1000,4.467,4.0175,1,1852,502,1000,511,994,508,feet,,,,,629992,716120,30
223452,DepthScenes,duration_discrimination,discrim_jsons/d0_rotated_dr.json,http://54.173.234.186/DepthDuration/depth_discrimination_MTurk/DepthDiscrim_HTML.html#2,2,1119,751,1118,894,6-19-2021,15-52-14,33,depth_discrimination_stimuli/001214_2014-06-17_16-13-55_260595134347_rgbf000111-resize_0/001214_2014-06-17_16-13-55_260595134347_rgbf000111-resize_0-target.png,depth_discrimination_stimuli/000665_2014-06-09_20-42-35_260595134347_rgbf000110-resize_1/000665_2014-06-09_20-42-35_260595134347_rgbf000110-resize_1-target.png,1000,2.6505,3.057,0,3054,504,996,1524,0,967,feet,,,,,629992,716120,30
223452,DepthScenes,duration_discrimination,discrim_jsons/d0_rotated_dr.json,http://54.173.234.186/DepthDuration/depth_discrimination_MTurk/DepthDiscrim_HTML.html#2,2,1119,751,1118,894,6-19-2021,15-52-14,34,depth_discrimination_stimuli/001724_2014-06-26_19-28-50_260595134347_rgbf000037-resize_7/001724_2014-06-26_19-28-50_260595134347_rgbf000037-resize_7-target.png,depth_discrimination_stimuli/002989_2014-06-15_12-25-03_094959634447_rgbf000150-resize_3/002989_2014-06-15_12-25-03_094959634447_rgbf000150-resize_3-target.png,250,3.827,4.1975,1,3971,509,246,1145,0,129,feet,,,,,629992,716120,30
223452,DepthScenes,duration_discrimination,discrim_jsons/d0_rotated_dr.json,http://54.173.234.186/DepthDuration/depth_discrimination_MTurk/DepthDiscrim_HTML.html#2,2,1119,751,1118,894,6-19-2021,15-52-14,35,depth_discrimination_stimuli/001618_2014-06-20_11-37-31_260595134347_rgbf000027-resize_3/001618_2014-06-20_11-37-31_260595134347_rgbf000027-resize_3-target.png,depth_discrimination_stimuli/001016_2014-06-09_16-16-10_260595134347_rgbf000112-resize_5/001016_2014-06-09_16-16-10_260595134347_rgbf000112-resize_5-target.png,1000,1.8725,1.6565,0,1624,506,1001,501,1001,514,feet,,,,,629992,716120,30
223452,DepthScenes,duration_discrimination,discrim_jsons/d0_rotated_dr.json,http://54.173.234.186/DepthDuration/depth_discrimination_MTurk/DepthDiscrim_HTML.html#2,2,1119,751,1118,894,6-19-2021,15-52-14,36,depth_discrimination_stimuli/001571_2014-06-20_17-21-32_260595134347_rgbf000089-resize_1/001571_2014-06-20_17-21-32_260595134347_rgbf000089-resize_1-target.png,depth_discrimination_stimuli/002953_2014-06-08_17-32-18_094959634447_rgbf000059-resize_5/002953_2014-06-08_17-32-18_094959634447_rgbf000059-resize_5-target.png,250,1.86,1.551,0,854,501,260,500,243,507,feet,,,,,629992,716120,30
223452,DepthScenes,duration_discrimination,discrim_jsons/d0_rotated_dr.json,http://54.173.234.186/DepthDuration/depth_discrimination_MTurk/DepthDiscrim_HTML.html#2,2,1119,751,1118,894,6-19-2021,15-52-14,37,depth_discrimination_stimuli/000917_2014-06-09_22-45-29_260595134347_rgbf000149-resize_3/000917_2014-06-09_22-45-29_260595134347_rgbf000149-resize_3-target.png,depth_discrimination_stimuli/003081_2014-06-15_15-19-16_094959634447_rgbf000150-resize_1/003081_2014-06-15_15-19-16_094959634447_rgbf000150-resize_1-target.png,1000,4.1865,3.9125,1,1713,505,1008,499,1001,489,feet,,,,,629992,716120,30
223452,DepthScenes,duration_discrimination,discrim_jsons/d0_rotated_dr.json,http://54.173.234.186/DepthDuration/depth_discrimination_MTurk/DepthDiscrim_HTML.html#2,2,1119,751,1118,894,6-19-2021,15-52-14,38,depth_discrimination_stimuli/003228_2014-05-14_13-42-35_094959634447_rgbf000101-resize_1/003228_2014-05-14_13-42-35_094959634447_rgbf000101-resize_1-target.png,depth_discrimination_stimuli/001164_2014-06-17_15-35-46_260595134347_rgbf000085-resize_3/001164_2014-06-17_15-35-46_260595134347_rgbf000085-resize_3-target.png,1000,1.968,2.354,1,2988,510,1005,485,1002,501,feet,,,,,629992,716120,30
223452,DepthScenes,duration_discrimination,discrim_jsons/d0_rotated_dr.json,http://54.173.234.186/DepthDuration/depth_discrimination_MTurk/DepthDiscrim_HTML.html#2,2,1119,751,1118,894,6-19-2021,15-52-14,39,depth_discrimination_stimuli/000906_2014-06-08_13-35-43_260595134347_rgbf000155-resize_1/000906_2014-06-08_13-35-43_260595134347_rgbf000155-resize_1-target.png,depth_discrimination_stimuli/001059_2014-06-08_21-53-27_260595134347_rgbf000061-resize_4/001059_2014-06-08_21-53-27_260595134347_rgbf000061-resize_4-target.png,1000,2.849,2.4185,0,1640,509,1003,490,1010,502,feet,,,,,629992,716120,30
223452,DepthScenes,duration_discrimination,discrim_jsons/d0_rotated_dr.json,http://54.173.234.186/DepthDuration/depth_discrimination_MTurk/DepthDiscrim_HTML.html#2,2,1119,751,1118,894,6-19-2021,15-52-14,40,depth_discrimination_stimuli/002748_2014-06-22_19-07-22_094959634447_rgbf000078-resize_1/002748_2014-06-22_19-07-22_094959634447_rgbf000078-resize_1-target.png,depth_discrimination_stimuli/002657_2014-06-13_15-29-54_094959634447_rgbf000150-resize_1/002657_2014-06-13_15-29-54_094959634447_rgbf000150-resize_1-target.png,1000,4.6705,4.919,0,4019,503,1008,542,955,502,feet,,,,,629992,716120,30
223452,DepthScenes,duration_discrimination,discrim_jsons/d0_rotated_dr.json,http://54.173.234.186/DepthDuration/depth_discrimination_MTurk/DepthDiscrim_HTML.html#2,2,1119,751,1118,894,6-19-2021,15-52-14,41,depth_discrimination_stimuli/000800_2014-06-08_22-42-09_260595134347_rgbf000095-resize_3/000800_2014-06-08_22-42-09_260595134347_rgbf000095-resize_3-target.png,depth_discrimination_stimuli/002700_2014-06-22_11-27-02_094959634447_rgbf000124-resize_3/002700_2014-06-22_11-27-02_094959634447_rgbf000124-resize_3-target.png,250,2.8,3.301,1,1726,520,233,510,238,501,feet,,,,,629992,716120,30
223452,DepthScenes,duration_discrimination,discrim_jsons/d0_rotated_dr.json,http://54.173.234.186/DepthDuration/depth_discrimination_MTurk/DepthDiscrim_HTML.html#2,2,1119,751,1118,894,6-19-2021,15-52-14,42,depth_discrimination_stimuli/002875_2014-06-01_15-19-00_094959634447_rgbf000151-resize_1/002875_2014-06-01_15-19-00_094959634447_rgbf000151-resize_1-target.png,depth_discrimination_stimuli/000749_2014-06-08_21-55-06_260595134347_rgbf000070-resize_2/000749_2014-06-08_21-55-06_260595134347_rgbf000070-resize_2-target.png,1000,1.9675,2.331,0,1633,508,994,517,989,502,feet,,,,,629992,716120,30
223452,DepthScenes,duration_discrimination,discrim_jsons/d0_rotated_dr.json,http://54.173.234.186/DepthDuration/depth_discrimination_MTurk/DepthDiscrim_HTML.html#2,2,1119,751,1118,894,6-19-2021,15-52-14,43,depth_discrimination_stimuli/003288_2014-05-14_21-50-30_094959634447_rgbf000028-resize_3/003288_2014-05-14_21-50-30_094959634447_rgbf000028-resize_3-target.png,depth_discrimination_stimuli/000735_2014-06-08_18-23-50_260595134347_rgbf000163-resize_2/000735_2014-06-08_18-23-50_260595134347_rgbf000163-resize_2-target.png,1000,3.877,4.1695,0,1584,510,999,506,991,509,feet,,,,,629992,716120,30
223452,DepthScenes,duration_discrimination,discrim_jsons/d0_rotated_dr.json,http://54.173.234.186/DepthDuration/depth_discrimination_MTurk/DepthDiscrim_HTML.html#2,2,1119,751,1118,894,6-19-2021,15-52-14,44,depth_discrimination_stimuli/000447_2014-06-08_16-15-46_260595134347_rgbf000130-resize_1/000447_2014-06-08_16-15-46_260595134347_rgbf000130-resize_1-target.png,depth_discrimination_stimuli/002988_2014-06-15_12-24-20_094959634447_rgbf000150-resize_1/002988_2014-06-15_12-24-20_094959634447_rgbf000150-resize_1-target.png,250,4.479,4.767,0,6727,620,1004,0,1,1044,feet,,,,,629992,716120,30
223452,DepthScenes,duration_discrimination,discrim_jsons/d0_rotated_dr.json,http://54.173.234.186/DepthDuration/depth_discrimination_MTurk/DepthDiscrim_HTML.html#2,2,1119,751,1118,894,6-19-2021,15-52-14,45,depth_discrimination_stimuli/002272_2014-06-28_18-53-56_260595134347_rgbf000067-resize_2/002272_2014-06-28_18-53-56_260595134347_rgbf000067-resize_2-target.png,depth_discrimination_stimuli/003534_2014-05-22_15-06-10_094959634447_rgbf000102-resize_4/003534_2014-05-22_15-06-10_094959634447_rgbf000102-resize_4-target.png,250,1.138,1.426,1,804,507,246,499,259,499,feet,,,,,629992,716120,30
223452,DepthScenes,duration_discrimination,discrim_jsons/d0_rotated_dr.json,http://54.173.234.186/DepthDuration/depth_discrimination_MTurk/DepthDiscrim_HTML.html#2,2,1119,751,1118,894,6-19-2021,15-52-14,46,depth_discrimination_stimuli/000522_2014-06-08_13-35-06_260595134347_rgbf000244-resize_1/000522_2014-06-08_13-35-06_260595134347_rgbf000244-resize_1-target.png,depth_discrimination_stimuli/001092_2014-06-15_17-34-58_260595134347_rgbf000171-resize_3/001092_2014-06-15_17-34-58_260595134347_rgbf000171-resize_3-target.png,1000,2.3715,2.6935,0,1517,516,987,500,998,511,feet,,,,,629992,716120,30
223452,DepthScenes,duration_discrimination,discrim_jsons/d0_rotated_dr.json,http://54.173.234.186/DepthDuration/depth_discrimination_MTurk/DepthDiscrim_HTML.html#2,2,1119,751,1118,894,6-19-2021,15-52-14,47,depth_discrimination_stimuli/000866_2014-06-09_20-45-42_260595134347_rgbf000139-resize_1/000866_2014-06-09_20-45-42_260595134347_rgbf000139-resize_1-target.png,depth_discrimination_stimuli/000682_2014-06-08_23-14-58_260595134347_rgbf000041-resize_5/000682_2014-06-08_23-14-58_260595134347_rgbf000041-resize_5-target.png,1000,3.2155,2.724,1,1670,509,996,496,1005,506,feet,,,,,629992,716120,30
223452,DepthScenes,duration_discrimination,discrim_jsons/d0_rotated_dr.json,http://54.173.234.186/DepthDuration/depth_discrimination_MTurk/DepthDiscrim_HTML.html#2,2,1119,751,1118,894,6-19-2021,15-52-14,48,depth_discrimination_stimuli/000569_2014-06-09_22-51-47_260595134347_rgbf000141-resize_3/000569_2014-06-09_22-51-47_260595134347_rgbf000141-resize_3-target.png,depth_discrimination_stimuli/000868_2014-06-09_20-49-52_260595134347_rgbf000064-resize_4/000868_2014-06-09_20-49-52_260595134347_rgbf000064-resize_4-target.png,250,4.512,1.2815,1,952,509,250,505,240,527,feet,,,,,629992,716120,30
223452,DepthScenes,duration_discrimination,discrim_jsons/d0_rotated_dr.json,http://54.173.234.186/DepthDuration/depth_discrimination_MTurk/DepthDiscrim_HTML.html#2,2,1119,751,1118,894,6-19-2021,15-52-14,49,depth_discrimination_stimuli/000636_2014-06-08_16-39-02_260595134347_rgbf000108-resize_4/000636_2014-06-08_16-39-02_260595134347_rgbf000108-resize_4-target.png,depth_discrimination_stimuli/002568_2014-06-24_13-59-21_094959634447_rgbf000062-resize_4/002568_2014-06-24_13-59-21_094959634447_rgbf000062-resize_4-target.png,1000,2.682,3.015,1,1587,509,1004,500,1004,486,feet,,,,,629992,716120,30
223452,DepthScenes,duration_discrimination,discrim_jsons/d0_rotated_dr.json,http://54.173.234.186/DepthDuration/depth_discrimination_MTurk/DepthDiscrim_HTML.html#2,2,1119,751,1118,894,6-19-2021,15-52-14,50,depth_discrimination_stimuli/001181_2014-06-17_15-50-57_260595134347_rgbf000106-resize_4/001181_2014-06-17_15-50-57_260595134347_rgbf000106-resize_4-target.png,depth_discrimination_stimuli/002425_2014-06-28_20-27-29_260595134347_rgbf000031-resize_8/002425_2014-06-28_20-27-29_260595134347_rgbf000031-resize_8-target.png,1000,4.149,3.896,1,1630,503,1000,501,1002,496,feet,,,,,629992,716120,30
223452,DepthScenes,duration_discrimination,discrim_jsons/d0_rotated_dr.json,http://54.173.234.186/DepthDuration/depth_discrimination_MTurk/DepthDiscrim_HTML.html#2,2,1119,751,1118,894,6-19-2021,15-52-14,51,depth_discrimination_stimuli/001498_2014-06-19_17-45-14_260595134347_rgbf000129-resize_4/001498_2014-06-19_17-45-14_260595134347_rgbf000129-resize_4-target.png,depth_discrimination_stimuli/003125_2014-05-12_10-39-22_094959634447_rgbf000100-resize_0/003125_2014-05-12_10-39-22_094959634447_rgbf000100-resize_0-target.png,250,1.4075,4.8655,0,889,502,252,499,279,478,feet,,,,,629992,716120,30
223452,DepthScenes,duration_discrimination,discrim_jsons/d0_rotated_dr.json,http://54.173.234.186/DepthDuration/depth_discrimination_MTurk/DepthDiscrim_HTML.html#2,2,1119,751,1118,894,6-19-2021,15-52-14,52,depth_discrimination_stimuli/002637_2014-06-24_14-51-13_094959634447_rgbf000066-resize_4/002637_2014-06-24_14-51-13_094959634447_rgbf000066-resize_4-target.png,depth_discrimination_stimuli/000720_2014-06-08_18-37-27_260595134347_rgbf000203-resize_4/000720_2014-06-08_18-37-27_260595134347_rgbf000203-resize_4-target.png,250,1.9955,1.558,1,769,503,259,493,258,496,feet,,,,,629992,716120,30
223452,DepthScenes,duration_discrimination,discrim_jsons/d0_rotated_dr.json,http://54.173.234.186/DepthDuration/depth_discrimination_MTurk/DepthDiscrim_HTML.html#2,2,1119,751,1118,894,6-19-2021,15-52-14,53,depth_discrimination_stimuli/000368_2014-06-09_15-53-01_260595134347_rgbf000155-resize_2/000368_2014-06-09_15-53-01_260595134347_rgbf000155-resize_2-target.png,depth_discrimination_stimuli/002199_2014-06-28_18-33-56_260595134347_rgbf000074-resize_0/002199_2014-06-28_18-33-56_260595134347_rgbf000074-resize_0-target.png,1000,2.486,1.996,1,1877,501,999,511,1000,490,feet,,,,,629992,716120,30
223452,DepthScenes,duration_discrimination,discrim_jsons/d0_rotated_dr.json,http://54.173.234.186/DepthDuration/depth_discrimination_MTurk/DepthDiscrim_HTML.html#2,2,1119,751,1118,894,6-19-2021,15-52-14,54,depth_discrimination_stimuli/002788_2014-06-22_19-36-03_094959634447_rgbf000088-resize_2/002788_2014-06-22_19-36-03_094959634447_rgbf000088-resize_2-target.png,depth_discrimination_stimuli/001289_2014-06-16_16-25-52_260595134347_rgbf000067-resize_1/001289_2014-06-16_16-25-52_260595134347_rgbf000067-resize_1-target.png,250,1.6465,1.8835,1,839,511,255,500,235,500,feet,,,,,629992,716120,30
223452,DepthScenes,duration_discrimination,discrim_jsons/d0_rotated_dr.json,http://54.173.234.186/DepthDuration/depth_discrimination_MTurk/DepthDiscrim_HTML.html#2,2,1119,751,1118,894,6-19-2021,15-52-14,55,depth_discrimination_stimuli/003083_2014-06-15_15-21-03_094959634447_rgbf000063-resize_1/003083_2014-06-15_15-21-03_094959634447_rgbf000063-resize_1-target.png,depth_discrimination_stimuli/001417_2014-06-19_16-25-36_260595134347_rgbf000115-resize_5/001417_2014-06-19_16-25-36_260595134347_rgbf000115-resize_5-target.png,1000,4.1405,4.6255,1,1638,509,996,496,1014,487,feet,,,,,629992,716120,30
223452,DepthScenes,duration_discrimination,discrim_jsons/d0_rotated_dr.json,http://54.173.234.186/DepthDuration/depth_discrimination_MTurk/DepthDiscrim_HTML.html#2,2,1119,751,1118,894,6-19-2021,15-52-14,56,depth_discrimination_stimuli/001133_2014-06-17_14-49-16_260595134347_rgbf000100-resize_0/001133_2014-06-17_14-49-16_260595134347_rgbf000100-resize_0-target.png,depth_discrimination_stimuli/001617_2014-06-20_11-35-32_260595134347_rgbf000066-resize_1/001617_2014-06-20_11-35-32_260595134347_rgbf000066-resize_1-target.png,250,4.2115,3.791,0,1125,508,248,500,247,510,feet,,,,,629992,716120,30
223452,DepthScenes,duration_discrimination,discrim_jsons/d0_rotated_dr.json,http://54.173.234.186/DepthDuration/depth_discrimination_MTurk/DepthDiscrim_HTML.html#2,2,1119,751,1118,894,6-19-2021,15-52-14,57,depth_discrimination_stimuli/000009_2014-05-26_14-32-05_260595134347_rgbf000034-resize_3/000009_2014-05-26_14-32-05_260595134347_rgbf000034-resize_3-target.png,depth_discrimination_stimuli/002660_2014-06-13_15-44-18_094959634447_rgbf001878-resize_2/002660_2014-06-13_15-44-18_094959634447_rgbf001878-resize_2-target.png,250,3.8715,3.576,1,1031,516,240,499,249,507,feet,,,,,629992,716120,30
223452,DepthScenes,duration_discrimination,discrim_jsons/d0_rotated_dr.json,http://54.173.234.186/DepthDuration/depth_discrimination_MTurk/DepthDiscrim_HTML.html#2,2,1119,751,1118,894,6-19-2021,15-52-14,58,depth_discrimination_stimuli/003495_2014-05-21_16-01-51_094959634447_rgbf000100-resize_3/003495_2014-05-21_16-01-51_094959634447_rgbf000100-resize_3-target.png,depth_discrimination_stimuli/001167_2014-06-17_15-38-07_260595134347_rgbf000108-resize_0/001167_2014-06-17_15-38-07_260595134347_rgbf000108-resize_0-target.png,1000,1.6255,1.8505,0,1623,503,1011,488,1004,500,feet,,,,,629992,716120,30
223452,DepthScenes,duration_discrimination,discrim_jsons/d0_rotated_dr.json,http://54.173.234.186/DepthDuration/depth_discrimination_MTurk/DepthDiscrim_HTML.html#2,2,1119,751,1118,894,6-19-2021,15-52-14,59,depth_discrimination_stimuli/000830_2014-06-04_19-49-31_260595134347_rgbf000096-resize_2/000830_2014-06-04_19-49-31_260595134347_rgbf000096-resize_2-target.png,depth_discrimination_stimuli/000929_2014-06-09_16-33-19_260595134347_rgbf000139-resize_0/000929_2014-06-09_16-33-19_260595134347_rgbf000139-resize_0-target.png,1000,2.6353333333333,2.868,0,1545,509,1004,489,1006,500,feet,,,,,629992,716120,30
223452,DepthScenes,duration_discrimination,discrim_jsons/d0_rotated_dr.json,http://54.173.234.186/DepthDuration/depth_discrimination_MTurk/DepthDiscrim_HTML.html#2,2,1119,751,1118,894,6-19-2021,15-52-14,60,depth_discrimination_stimuli/001136_2014-06-17_15-19-41_260595134347_rgbf000076-resize_3/001136_2014-06-17_15-19-41_260595134347_rgbf000076-resize_3-target.png,depth_discrimination_stimuli/000869_2014-06-09_20-50-18_260595134347_rgbf000060-resize_3/000869_2014-06-09_20-50-18_260595134347_rgbf000060-resize_3-target.png,1000,1.8655,2.266,1,1611,503,1014,490,1008,497,feet,,,,,629992,716120,30
223452,DepthScenes,duration_discrimination,discrim_jsons/d0_rotated_dr.json,http://54.173.234.186/DepthDuration/depth_discrimination_MTurk/DepthDiscrim_HTML.html#2,2,1119,751,1118,894,6-19-2021,15-52-14,61,depth_discrimination_stimuli/001029_2014-06-08_13-17-57_260595134347_rgbf000065-resize_1/001029_2014-06-08_13-17-57_260595134347_rgbf000065-resize_1-target.png,depth_discrimination_stimuli/001199_2014-06-17_16-03-48_260595134347_rgbf000077-resize_0/001199_2014-06-17_16-03-48_260595134347_rgbf000077-resize_0-target.png,1000,3.0835,3.4375,0,1563,514,990,518,987,498,feet,,,,,629992,716120,30
223452,DepthScenes,duration_discrimination,discrim_jsons/d0_rotated_dr.json,http://54.173.234.186/DepthDuration/depth_discrimination_MTurk/DepthDiscrim_HTML.html#2,2,1119,751,1118,894,6-19-2021,15-52-14,62,depth_discrimination_stimuli/003092_2014-06-24_21-01-49_094959634447_rgbf000049-resize_2/003092_2014-06-24_21-01-49_094959634447_rgbf000049-resize_2-target.png,depth_discrimination_stimuli/000753_2014-06-08_21-57-44_260595134347_rgbf000123-resize_3/000753_2014-06-08_21-57-44_260595134347_rgbf000123-resize_3-target.png,250,1.666,1.916,1,909,513,238,499,253,507,feet,,,,,629992,716120,30
223452,DepthScenes,duration_discrimination,discrim_jsons/d0_rotated_dr.json,http://54.173.234.186/DepthDuration/depth_discrimination_MTurk/DepthDiscrim_HTML.html#2,2,1119,751,1118,894,6-19-2021,15-52-14,63,depth_discrimination_stimuli/000758_2014-06-08_22-05-08_260595134347_rgbf000085-resize_0/000758_2014-06-08_22-05-08_260595134347_rgbf000085-resize_0-target.png,depth_discrimination_stimuli/003070_2014-06-15_14-58-27_094959634447_rgbf000150-resize_3/003070_2014-06-15_14-58-27_094959634447_rgbf000150-resize_3-target.png,250,3.381,2.9415,1,828,510,242,506,253,490,feet,,,,,629992,716120,30
223452,DepthScenes,duration_discrimination,discrim_jsons/d0_rotated_dr.json,http://54.173.234.186/DepthDuration/depth_discrimination_MTurk/DepthDiscrim_HTML.html#2,2,1119,751,1118,894,6-19-2021,15-52-14,64,depth_discrimination_stimuli/000191_2014-05-12_17-07-38_260595134347_rgbf000199-resize_0/000191_2014-05-12_17-07-38_260595134347_rgbf000199-resize_0-target.png,depth_discrimination_stimuli/000780_2014-06-08_22-28-29_260595134347_rgbf000126-resize_1/000780_2014-06-08_22-28-29_260595134347_rgbf000126-resize_1-target.png,250,3.7995,3.3825,1,1147,501,252,500,258,494,feet,,,,,629992,716120,30
223452,DepthScenes,duration_discrimination,discrim_jsons/d0_rotated_dr.json,http://54.173.234.186/DepthDuration/depth_discrimination_MTurk/DepthDiscrim_HTML.html#2,2,1119,751,1118,894,6-19-2021,15-52-14,65,depth_discrimination_stimuli/000953_2014-06-08_11-42-19_260595134347_rgbf000083-resize_0/000953_2014-06-08_11-42-19_260595134347_rgbf000083-resize_0-target.png,depth_discrimination_stimuli/000787_2014-06-08_22-33-53_260595134347_rgbf000175-resize_1/000787_2014-06-08_22-33-53_260595134347_rgbf000175-resize_1-target.png,1000,1.369,4.784,1,2426,512,1007,487,1004,500,feet,,,,,629992,716120,30
223452,DepthScenes,duration_discrimination,discrim_jsons/d0_rotated_dr.json,http://54.173.234.186/DepthDuration/depth_discrimination_MTurk/DepthDiscrim_HTML.html#2,2,1119,751,1118,894,6-19-2021,15-52-14,66,depth_discrimination_stimuli/003423_2014-05-21_10-23-26_094959634447_rgbf002665-resize_2/003423_2014-05-21_10-23-26_094959634447_rgbf002665-resize_2-target.png,depth_discrimination_stimuli/001235_2014-06-17_16-37-36_260595134347_rgbf000084-resize_4/001235_2014-06-17_16-37-36_260595134347_rgbf000084-resize_4-target.png,250,3.2575,3.6605,0,2595,500,252,891,0,1014,feet,,,,,629992,716120,30
223452,DepthScenes,duration_discrimination,discrim_jsons/d0_rotated_dr.json,http://54.173.234.186/DepthDuration/depth_discrimination_MTurk/DepthDiscrim_HTML.html#2,2,1119,751,1118,894,6-19-2021,15-52-14,67,depth_discrimination_stimuli/000927_2014-06-09_16-32-30_260595134347_rgbf000123-resize_3/000927_2014-06-09_16-32-30_260595134347_rgbf000123-resize_3-target.png,depth_discrimination_stimuli/001810_2014-06-26_20-51-35_260595134347_rgbf000040-resize_3/001810_2014-06-26_20-51-35_260595134347_rgbf000040-resize_3-target.png,1000,2.6785,2.2525,1,1524,524,1005,473,1000,513,feet,,,,,629992,716120,30
223452,DepthScenes,duration_discrimination,discrim_jsons/d0_rotated_dr.json,http://54.173.234.186/DepthDuration/depth_discrimination_MTurk/DepthDiscrim_HTML.html#2,2,1119,751,1118,894,6-19-2021,15-52-14,68,depth_discrimination_stimuli/000788_2014-06-08_22-34-36_260595134347_rgbf000131-resize_1/000788_2014-06-08_22-34-36_260595134347_rgbf000131-resize_1-target.png,depth_discrimination_stimuli/000521_2014-06-08_13-34-35_260595134347_rgbf000191-resize_2/000521_2014-06-08_13-34-35_260595134347_rgbf000191-resize_2-target.png,1000,3.359,3.0385,1,1527,510,995,508,994,495,feet,,,,,629992,716120,30
223452,DepthScenes,duration_discrimination,discrim_jsons/d0_rotated_dr.json,http://54.173.234.186/DepthDuration/depth_discrimination_MTurk/DepthDiscrim_HTML.html#2,2,1119,751,1118,894,6-19-2021,15-52-14,69,depth_discrimination_stimuli/002805_2014-06-22_19-54-03_094959634447_rgbf000079-resize_1/002805_2014-06-22_19-54-03_094959634447_rgbf000079-resize_1-target.png,depth_discrimination_stimuli/003292_2014-05-14_21-53-49_094959634447_rgbf000100-resize_2/003292_2014-05-14_21-53-49_094959634447_rgbf000100-resize_2-target.png,250,3.144,3.4815,0,1424,506,258,500,240,499,feet,,,,,629992,716120,30
223452,DepthScenes,duration_discrimination,discrim_jsons/d0_rotated_dr.json,http://54.173.234.186/DepthDuration/depth_discrimination_MTurk/DepthDiscrim_HTML.html#2,2,1119,751,1118,894,6-19-2021,15-52-14,70,depth_discrimination_stimuli/001815_2014-06-26_20-52-55_260595134347_rgbf000020-resize_0/001815_2014-06-26_20-52-55_260595134347_rgbf000020-resize_0-target.png,depth_discrimination_stimuli/000642_2014-06-08_16-59-25_260595134347_rgbf000098-resize_2/000642_2014-06-08_16-59-25_260595134347_rgbf000098-resize_2-target.png,250,3.3865,2.8815,1,1404,513,244,497,255,506,feet,,,,,629992,716120,30
223452,DepthScenes,duration_discrimination,discrim_jsons/d0_rotated_dr.json,http://54.173.234.186/DepthDuration/depth_discrimination_MTurk/DepthDiscrim_HTML.html#2,2,1119,751,1118,894,6-19-2021,15-52-14,71,depth_discrimination_stimuli/003338_2014-05-20_11-01-23_094959634447_rgbf000051-resize_6/003338_2014-05-20_11-01-23_094959634447_rgbf000051-resize_6-target.png,depth_discrimination_stimuli/000878_2014-06-08_22-52-45_260595134347_rgbf000045-resize_2/000878_2014-06-08_22-52-45_260595134347_rgbf000045-resize_2-target.png,250,1.693,2.092,1,982,515,243,501,244,513,feet,,,,,629992,716120,30
223452,DepthScenes,duration_discrimination,discrim_jsons/d0_rotated_dr.json,http://54.173.234.186/DepthDuration/depth_discrimination_MTurk/DepthDiscrim_HTML.html#2,2,1119,751,1118,894,6-19-2021,15-52-14,72,depth_discrimination_stimuli/002139_2014-06-25_21-19-37_260595134347_rgbf000124-resize_2/002139_2014-06-25_21-19-37_260595134347_rgbf000124-resize_2-target.png,depth_discrimination_stimuli/000549_2014-06-08_22-10-24_260595134347_rgbf000247-resize_3/000549_2014-06-08_22-10-24_260595134347_rgbf000247-resize_3-target.png,1000,2.107,1.841,1,1569,514,996,491,1017,492,feet,,,,,629992,716120,30
223452,DepthScenes,duration_discrimination,discrim_jsons/d0_rotated_dr.json,http://54.173.234.186/DepthDuration/depth_discrimination_MTurk/DepthDiscrim_HTML.html#2,2,1119,751,1118,894,6-19-2021,15-52-14,73,depth_discrimination_stimuli/000555_2014-06-09_22-42-23_260595134347_rgbf000037-resize_4/000555_2014-06-09_22-42-23_260595134347_rgbf000037-resize_4-target.png,depth_discrimination_stimuli/001110_2014-06-15_17-25-28_260595134347_rgbf000150-resize_1/001110_2014-06-15_17-25-28_260595134347_rgbf000150-resize_1-target.png,1000,1.9765,1.7115,0,1589,512,998,498,993,510,feet,,,,,629992,716120,30
223452,DepthScenes,duration_discrimination,discrim_jsons/d0_rotated_dr.json,http://54.173.234.186/DepthDuration/depth_discrimination_MTurk/DepthDiscrim_HTML.html#2,2,1119,751,1118,894,6-19-2021,15-52-14,74,depth_discrimination_stimuli/003490_2014-05-21_15-50-11_094959634447_rgbf000101-resize_3/003490_2014-05-21_15-50-11_094959634447_rgbf000101-resize_3-target.png,depth_discrimination_stimuli/001392_2014-06-19_16-07-59_260595134347_rgbf000046-resize_1/001392_2014-06-19_16-07-59_260595134347_rgbf000046-resize_1-target.png,250,3.6445,4.135,0,802,522,253,489,257,501,feet,,,,,629992,716120,30
223452,DepthScenes,duration_discrimination,discrim_jsons/d0_rotated_dr.json,http://54.173.234.186/DepthDuration/depth_discrimination_MTurk/DepthDiscrim_HTML.html#2,2,1119,751,1118,894,6-19-2021,15-52-14,75,depth_discrimination_stimuli/002663_2014-06-13_15-50-26_094959634447_rgbf000075-resize_1/002663_2014-06-13_15-50-26_094959634447_rgbf000075-resize_1-target.png,depth_discrimination_stimuli/000414_2014-06-04_19-49-13_260595134347_rgbf000044-resize_0/000414_2014-06-04_19-49-13_260595134347_rgbf000044-resize_0-target.png,250,4.7495,4.329,0,956,521,250,498,252,508,feet,,,,,629992,716120,30
223452,DepthScenes,duration_discrimination,discrim_jsons/d0_rotated_dr.json,http://54.173.234.186/DepthDuration/depth_discrimination_MTurk/DepthDiscrim_HTML.html#2,2,1119,751,1118,894,6-19-2021,15-52-14,76,depth_discrimination_stimuli/001188_2014-06-17_15-54-10_260595134347_rgbf000090-resize_2/001188_2014-06-17_15-54-10_260595134347_rgbf000090-resize_2-target.png,depth_discrimination_stimuli/002750_2014-06-22_19-08-03_094959634447_rgbf000094-resize_4/002750_2014-06-22_19-08-03_094959634447_rgbf000094-resize_4-target.png,1000,2.744,2.354,1,1605,506,1006,500,999,497,feet,,,,,629992,716120,30
223452,DepthScenes,duration_discrimination,discrim_jsons/d0_rotated_dr.json,http://54.173.234.186/DepthDuration/depth_discrimination_MTurk/DepthDiscrim_HTML.html#2,2,1119,751,1118,894,6-19-2021,15-52-14,77,depth_discrimination_stimuli/002678_2014-06-13_16-15-32_094959634447_rgbf000151-resize_6/002678_2014-06-13_16-15-32_094959634447_rgbf000151-resize_6-target.png,depth_discrimination_stimuli/001011_2014-06-08_23-18-54_260595134347_rgbf000044-resize_4/001011_2014-06-08_23-18-54_260595134347_rgbf000044-resize_4-target.png,250,2.183,2.473,1,858,512,253,496,244,498,feet,,,,,629992,716120,30
223452,DepthScenes,duration_discrimination,discrim_jsons/d0_rotated_dr.json,http://54.173.234.186/DepthDuration/depth_discrimination_MTurk/DepthDiscrim_HTML.html#2,2,1119,751,1118,894,6-19-2021,15-52-14,78,depth_discrimination_stimuli/002790_2014-06-22_19-36-35_094959634447_rgbf000074-resize_4/002790_2014-06-22_19-36-35_094959634447_rgbf000074-resize_4-target.png,depth_discrimination_stimuli/001032_2014-06-08_13-23-17_260595134347_rgbf000021-resize_3/001032_2014-06-08_13-23-17_260595134347_rgbf000021-resize_3-target.png,250,3.512,3.2725,1,792,506,255,500,247,499,feet,,,,,629992,716120,30
223452,DepthScenes,duration_discrimination,discrim_jsons/d0_rotated_dr.json,http://54.173.234.186/DepthDuration/depth_discrimination_MTurk/DepthDiscrim_HTML.html#2,2,1119,751,1118,894,6-19-2021,15-52-14,79,depth_discrimination_stimuli/003492_2014-05-21_15-50-55_094959634447_rgbf000828-resize_1/003492_2014-05-21_15-50-55_094959634447_rgbf000828-resize_1-target.png,depth_discrimination_stimuli/001158_2014-06-17_15-32-16_260595134347_rgbf000138-resize_2/001158_2014-06-17_15-32-16_260595134347_rgbf000138-resize_2-target.png,1000,4.06875,4.5315,0,1568,506,1001,497,1005,494,feet,,,,,629992,716120,30
223452,DepthScenes,duration_discrimination,discrim_jsons/d0_rotated_dr.json,http://54.173.234.186/DepthDuration/depth_discrimination_MTurk/DepthDiscrim_HTML.html#2,2,1119,751,1118,894,6-19-2021,15-52-14,80,depth_discrimination_stimuli/002763_2014-06-22_19-13-10_094959634447_rgbf000075-resize_4/002763_2014-06-22_19-13-10_094959634447_rgbf000075-resize_4-target.png,depth_discrimination_stimuli/001244_2014-06-17_16-47-45_260595134347_rgbf000030-resize_4/001244_2014-06-17_16-47-45_260595134347_rgbf000030-resize_4-target.png,250,1.68375,2.0425,0,768,506,258,500,252,499,feet,,,,,629992,716120,30
223452,DepthScenes,duration_discrimination,discrim_jsons/d0_rotated_dr.json,http://54.173.234.186/DepthDuration/depth_discrimination_MTurk/DepthDiscrim_HTML.html#2,2,1119,751,1118,894,6-19-2021,15-52-14,81,depth_discrimination_stimuli/002057_2014-06-24_21-00-13_260595134347_rgbf000120-resize_1/002057_2014-06-24_21-00-13_260595134347_rgbf000120-resize_1-target.png,depth_discrimination_stimuli/000505_2014-06-08_23-03-23_260595134347_rgbf000091-resize_0/000505_2014-06-08_23-03-23_260595134347_rgbf000091-resize_0-target.png,250,2.967,3.3105,1,901,504,260,494,245,504,feet,,,,,629992,716120,30
223452,DepthScenes,duration_discrimination,discrim_jsons/d0_rotated_dr.json,http://54.173.234.186/DepthDuration/depth_discrimination_MTurk/DepthDiscrim_HTML.html#2,2,1119,751,1118,894,6-19-2021,15-52-14,82,depth_discrimination_stimuli/002072_2014-06-24_21-48-06_260595134347_rgbf000115-resize_0/002072_2014-06-24_21-48-06_260595134347_rgbf000115-resize_0-target.png,depth_discrimination_stimuli/001012_2014-06-08_23-19-38_260595134347_rgbf000057-resize_0/001012_2014-06-08_23-19-38_260595134347_rgbf000057-resize_0-target.png,250,4.702,1.38325,1,806,515,241,503,242,500,feet,,,,,629992,716120,30
223452,DepthScenes,duration_discrimination,discrim_jsons/d0_rotated_dr.json,http://54.173.234.186/DepthDuration/depth_discrimination_MTurk/DepthDiscrim_HTML.html#2,2,1119,751,1118,894,6-19-2021,15-52-14,83,depth_discrimination_stimuli/000810_2014-06-08_17-20-01_260595134347_rgbf000105-resize_0/000810_2014-06-08_17-20-01_260595134347_rgbf000105-resize_0-target.png,depth_discrimination_stimuli/000103_2014-05-14_22-01-17_260595134347_rgbf000152-resize_5/000103_2014-05-14_22-01-17_260595134347_rgbf000152-resize_5-target.png,250,1.4865,1.993,0,846,504,249,503,248,538,feet,,,,,629992,716120,30
223452,DepthScenes,duration_discrimination,discrim_jsons/d0_rotated_dr.json,http://54.173.234.186/DepthDuration/depth_discrimination_MTurk/DepthDiscrim_HTML.html#2,2,1119,751,1118,894,6-19-2021,15-52-14,84,depth_discrimination_stimuli/000109_2014-05-14_23-41-52_260595134347_rgbf000035-resize_9/000109_2014-05-14_23-41-52_260595134347_rgbf000035-resize_9-target.png,depth_discrimination_stimuli/000470_2014-06-09_19-42-40_260595134347_rgbf000094-resize_1/000470_2014-06-09_19-42-40_260595134347_rgbf000094-resize_1-target.png,250,1.3545,1.831,0,902,501,255,496,249,502,feet,,,,,629992,716120,30
223452,DepthScenes,duration_discrimination,discrim_jsons/d0_rotated_dr.json,http://54.173.234.186/DepthDuration/depth_discrimination_MTurk/DepthDiscrim_HTML.html#2,2,1119,751,1118,894,6-19-2021,15-52-14,85,depth_discrimination_stimuli/002675_2014-06-13_16-08-49_094959634447_rgbf000151-resize_2/002675_2014-06-13_16-08-49_094959634447_rgbf000151-resize_2-target.png,depth_discrimination_stimuli/001222_2014-06-17_16-24-06_260595134347_rgbf000073-resize_0/001222_2014-06-17_16-24-06_260595134347_rgbf000073-resize_0-target.png,1000,4.5065,1.4385,1,2267,509,1002,507,1000,501,feet,,,,,629992,716120,30
223452,DepthScenes,duration_discrimination,discrim_jsons/d0_rotated_dr.json,http://54.173.234.186/DepthDuration/depth_discrimination_MTurk/DepthDiscrim_HTML.html#2,2,1119,751,1118,894,6-19-2021,15-52-14,86,depth_discrimination_stimuli/002987_2014-06-08_18-48-20_094959634447_rgbf000022-resize_0/002987_2014-06-08_18-48-20_094959634447_rgbf000022-resize_0-target.png,depth_discrimination_stimuli/000502_2014-06-08_23-02-32_260595134347_rgbf000063-resize_4/000502_2014-06-08_23-02-32_260595134347_rgbf000063-resize_4-target.png,250,2.6775,2.431,0,793,502,255,494,269,491,feet,,,,,629992,716120,30
223452,DepthScenes,duration_discrimination,discrim_jsons/d0_rotated_dr.json,http://54.173.234.186/DepthDuration/depth_discrimination_MTurk/DepthDiscrim_HTML.html#2,2,1119,751,1118,894,6-19-2021,15-52-14,87,depth_discrimination_stimuli/003079_2014-06-15_15-18-20_094959634447_rgbf000152-resize_8/003079_2014-06-15_15-18-20_094959634447_rgbf000152-resize_8-target.png,depth_discrimination_stimuli/001056_2014-06-08_18-46-44_260595134347_rgbf000068-resize_0/001056_2014-06-08_18-46-44_260595134347_rgbf000068-resize_0-target.png,1000,2.8775,2.6625,1,1869,1085,996,0,929,500,feet,,,,,629992,716120,30
223452,DepthScenes,duration_discrimination,discrim_jsons/d0_rotated_dr.json,http://54.173.234.186/DepthDuration/depth_discrimination_MTurk/DepthDiscrim_HTML.html#2,2,1119,751,1118,894,6-19-2021,15-52-14,88,depth_discrimination_stimuli/001584_2014-06-20_11-07-43_260595134347_rgbf000002-resize_1/001584_2014-06-20_11-07-43_260595134347_rgbf000002-resize_1-target.png,depth_discrimination_stimuli/002570_2014-06-24_13-59-54_094959634447_rgbf000059-resize_0/002570_2014-06-24_13-59-54_094959634447_rgbf000059-resize_0-target.png,1000,3.53,4.037,0,1598,528,979,496,998,512,feet,,,,,629992,716120,30
223452,DepthScenes,duration_discrimination,discrim_jsons/d0_rotated_dr.json,http://54.173.234.186/DepthDuration/depth_discrimination_MTurk/DepthDiscrim_HTML.html#2,2,1119,751,1118,894,6-19-2021,15-52-14,89,depth_discrimination_stimuli/000742_2014-06-08_18-48-09_260595134347_rgbf000164-resize_4/000742_2014-06-08_18-48-09_260595134347_rgbf000164-resize_4-target.png,depth_discrimination_stimuli/000773_2014-06-08_22-24-54_260595134347_rgbf000093-resize_1/000773_2014-06-08_22-24-54_260595134347_rgbf000093-resize_1-target.png,1000,4.632,4.973,1,1587,511,1000,494,1006,496,feet,,,,,629992,716120,30
223452,DepthScenes,duration_discrimination,discrim_jsons/d0_rotated_dr.json,http://54.173.234.186/DepthDuration/depth_discrimination_MTurk/DepthDiscrim_HTML.html#2,2,1119,751,1118,894,6-19-2021,15-52-14,90,depth_discrimination_stimuli/002964_2014-06-08_17-46-11_094959634447_rgbf000091-resize_4/002964_2014-06-08_17-46-11_094959634447_rgbf000091-resize_4-target.png,depth_discrimination_stimuli/000483_2014-06-09_20-41-45_260595134347_rgbf000116-resize_4/000483_2014-06-09_20-41-45_260595134347_rgbf000116-resize_4-target.png,1000,1.691,1.337,1,1545,510,1005,499,992,505,feet,,,,,629992,716120,30
223452,DepthScenes,duration_discrimination,discrim_jsons/d0_rotated_dr.json,http://54.173.234.186/DepthDuration/depth_discrimination_MTurk/DepthDiscrim_HTML.html#2,2,1119,751,1118,894,6-19-2021,15-52-14,91,depth_discrimination_stimuli/002758_2014-06-22_19-11-20_094959634447_rgbf000128-resize_1/002758_2014-06-22_19-11-20_094959634447_rgbf000128-resize_1-target.png,depth_discrimination_stimuli/000854_2014-06-09_19-43-13_260595134347_rgbf000066-resize_0/000854_2014-06-09_19-43-13_260595134347_rgbf000066-resize_0-target.png,250,2.555,3.068,0,898,502,256,501,248,498,feet,,,,,629992,716120,30
223452,DepthScenes,duration_discrimination,discrim_jsons/d0_rotated_dr.json,http://54.173.234.186/DepthDuration/depth_discrimination_MTurk/DepthDiscrim_HTML.html#2,2,1119,751,1118,894,6-19-2021,15-52-14,92,depth_discrimination_stimuli/002209_2014-06-28_18-36-10_260595134347_rgbf000051-resize_1/002209_2014-06-28_18-36-10_260595134347_rgbf000051-resize_1-target.png,depth_discrimination_stimuli/001055_2014-06-08_18-45-35_260595134347_rgbf000111-resize_4/001055_2014-06-08_18-45-35_260595134347_rgbf000111-resize_4-target.png,1000,2.057,2.429,0,1537,504,1006,492,1009,498,feet,,,,,629992,716120,30
223452,DepthScenes,duration_discrimination,discrim_jsons/d0_rotated_dr.json,http://54.173.234.186/DepthDuration/depth_discrimination_MTurk/DepthDiscrim_HTML.html#2,2,1119,751,1118,894,6-19-2021,15-52-14,93,depth_discrimination_stimuli/001150_2014-06-17_15-27-34_260595134347_rgbf000108-resize_2/001150_2014-06-17_15-27-34_260595134347_rgbf000108-resize_2-target.png,depth_discrimination_stimuli/000677_2014-06-08_23-10-32_260595134347_rgbf000158-resize_6/000677_2014-06-08_23-10-32_260595134347_rgbf000158-resize_6-target.png,1000,4.0325,3.556,1,1577,509,995,499,1009,499,feet,,,,,629992,716120,30
223452,DepthScenes,duration_discrimination,discrim_jsons/d0_rotated_dr.json,http://54.173.234.186/DepthDuration/depth_discrimination_MTurk/DepthDiscrim_HTML.html#2,2,1119,751,1118,894,6-19-2021,15-52-14,94,depth_discrimination_stimuli/001828_2014-06-26_21-40-03_260595134347_rgbf000024-resize_0/001828_2014-06-26_21-40-03_260595134347_rgbf000024-resize_0-target.png,depth_discrimination_stimuli/002414_2014-06-28_20-24-58_260595134347_rgbf000067-resize_4/002414_2014-06-28_20-24-58_260595134347_rgbf000067-resize_4-target.png,250,4.826,4.363,1,1013,515,238,512,246,509,feet,,,,,629992,716120,30
223452,DepthScenes,duration_discrimination,discrim_jsons/d0_rotated_dr.json,http://54.173.234.186/DepthDuration/depth_discrimination_MTurk/DepthDiscrim_HTML.html#2,2,1119,751,1118,894,6-19-2021,15-52-14,95,depth_discrimination_stimuli/002905_2014-06-03_18-04-43_094959634447_rgbf000151-resize_2/002905_2014-06-03_18-04-43_094959634447_rgbf000151-resize_2-target.png,depth_discrimination_stimuli/000740_2014-06-08_18-46-23_260595134347_rgbf000049-resize_6/000740_2014-06-08_18-46-23_260595134347_rgbf000049-resize_6-target.png,250,2.0295,1.687,1,872,515,246,501,253,497,feet,,,,,629992,716120,30
223452,DepthScenes,duration_discrimination,discrim_jsons/d0_rotated_dr.json,http://54.173.234.186/DepthDuration/depth_discrimination_MTurk/DepthDiscrim_HTML.html#2,2,1119,751,1118,894,6-19-2021,15-52-14,96,depth_discrimination_stimuli/002153_2014-06-25_21-27-18_260595134347_rgbf000038-resize_5/002153_2014-06-25_21-27-18_260595134347_rgbf000038-resize_5-target.png,depth_discrimination_stimuli/002725_2014-06-22_11-47-51_094959634447_rgbf000070-resize_1/002725_2014-06-22_11-47-51_094959634447_rgbf000070-resize_1-target.png,250,2.505,2.195,1,963,504,261,485,257,502,feet,,,,,629992,716120,30
223452,DepthScenes,duration_discrimination,discrim_jsons/d0_rotated_dr.json,http://54.173.234.186/DepthDuration/depth_discrimination_MTurk/DepthDiscrim_HTML.html#2,2,1119,751,1118,894,6-19-2021,15-52-14,96,,,,,,,963,504,261,485,257,502,feet,,,,,629992,716120,30
223452,DepthScenes,duration_discrimination,discrim_jsons/d0_rotated_dr.json,http://54.173.234.186/DepthDuration/depth_discrimination_MTurk/DepthDiscrim_HTML.html#2,2,1102,751,1118,894,6-19-2021,15-52-14,98,,,,,,,963,504,261,485,257,502,feet,3,5,depth_discrimination_stimuli/000522_2014-06-08_13-35-06_260595134347_rgbf000244-resize_1/000522_2014-06-08_13-35-06_260595134347_rgbf000244-resize-original.jpg,13832,629992,716120,30
223452,DepthScenes,duration_discrimination,discrim_jsons/d0_rotated_dr.json,http://54.173.234.186/DepthDuration/depth_discrimination_MTurk/DepthDiscrim_HTML.html#2,2,1102,751,1118,894,6-19-2021,15-52-14,99,,,,,,,963,504,261,485,257,502,feet,3,5,depth_discrimination_stimuli/002568_2014-06-24_13-59-21_094959634447_rgbf000062-resize_4/002568_2014-06-24_13-59-21_094959634447_rgbf000062-resize-original.jpg,2808,629992,716120,30
223452,DepthScenes,duration_discrimination,discrim_jsons/d0_rotated_dr.json,http://54.173.234.186/DepthDuration/depth_discrimination_MTurk/DepthDiscrim_HTML.html#2,2,1102,751,1118,894,6-19-2021,15-52-14,100,,,,,,,963,504,261,485,257,502,feet,3,5,depth_discrimination_stimuli/000735_2014-06-08_18-23-50_260595134347_rgbf000163-resize_2/000735_2014-06-08_18-23-50_260595134347_rgbf000163-resize-original.jpg,6928,629992,716120,30
223452,DepthScenes,duration_discrimination,discrim_jsons/d0_rotated_dr.json,http://54.173.234.186/DepthDuration/depth_discrimination_MTurk/DepthDiscrim_HTML.html#2,2,1102,751,1118,894,6-19-2021,15-52-14,101,,,,,,,963,504,261,485,257,502,feet,5,5,depth_discrimination_stimuli/003070_2014-06-15_14-58-27_094959634447_rgbf000150-resize_3/003070_2014-06-15_14-58-27_094959634447_rgbf000150-resize-original.jpg,3760,629992,716120,30
223452,DepthScenes,duration_discrimination,discrim_jsons/d0_rotated_dr.json,http://54.173.234.186/DepthDuration/depth_discrimination_MTurk/DepthDiscrim_HTML.html#2,2,1102,751,1118,894,6-19-2021,15-52-14,102,,,,,,,963,504,261,485,257,502,feet,2,5,depth_discrimination_stimuli/001132_2014-06-17_14-48-54_260595134347_rgbf000100-resize_2/001132_2014-06-17_14-48-54_260595134347_rgbf000100-resize-original.jpg,30448,629992,716120,30
223452,DepthScenes,duration_discrimination,discrim_jsons/d0_rotated_dr.json,http://54.173.234.186/DepthDuration/depth_discrimination_MTurk/DepthDiscrim_HTML.html#2,2,1102,751,1118,894,6-19-2021,15-52-14,103,,,,,,,963,504,261,485,257,502,feet,2,5,depth_discrimination_stimuli/001150_2014-06-17_15-27-34_260595134347_rgbf000108-resize_2/001150_2014-06-17_15-27-34_260595134347_rgbf000108-resize-original.jpg,3039,629992,716120,30
223452,DepthScenes,duration_discrimination,discrim_jsons/d0_rotated_dr.json,http://54.173.234.186/DepthDuration/depth_discrimination_MTurk/DepthDiscrim_HTML.html#2,2,1102,751,1118,894,6-19-2021,15-52-14,104,,,,,,,963,504,261,485,257,502,feet,3,4,depth_discrimination_stimuli/001199_2014-06-17_16-03-48_260595134347_rgbf000077-resize_0/001199_2014-06-17_16-03-48_260595134347_rgbf000077-resize-original.jpg,5457,629992,716120,30
223452,DepthScenes,duration_discrimination,discrim_jsons/d0_rotated_dr.json,http://54.173.234.186/DepthDuration/depth_discrimination_MTurk/DepthDiscrim_HTML.html#2,2,1102,751,1118,894,6-19-2021,15-52-14,105,,,,,,,963,504,261,485,257,502,feet,3,5,depth_discrimination_stimuli/001449_2014-06-19_17-01-27_260595134347_rgbf000116-resize_2/001449_2014-06-19_17-01-27_260595134347_rgbf000116-resize-original.jpg,2485,629992,716120,30
223452,DepthScenes,duration_discrimination,discrim_jsons/d0_rotated_dr.json,http://54.173.234.186/DepthDuration/depth_discrimination_MTurk/DepthDiscrim_HTML.html#2,2,1102,751,1118,894,6-19-2021,15-52-14,106,,,,,,,963,504,261,485,257,502,feet,4,3,depth_discrimination_stimuli/003228_2014-05-14_13-42-35_094959634447_rgbf000101-resize_1/003228_2014-05-14_13-42-35_094959634447_rgbf000101-resize-original.jpg,3888,629992,716120,30
223452,DepthScenes,duration_discrimination,discrim_jsons/d0_rotated_dr.json,http://54.173.234.186/DepthDuration/depth_discrimination_MTurk/DepthDiscrim_HTML.html#2,2,1102,751,1118,894,6-19-2021,15-52-14,107,,,,,,,963,504,261,485,257,502,feet,4,5,depth_discrimination_stimuli/002136_2014-06-25_21-18-03_260595134347_rgbf000109-resize_3/002136_2014-06-25_21-18-03_260595134347_rgbf000109-resize-original.jpg,2688,629992,716120,30
223452,DepthScenes,duration_discrimination,discrim_jsons/d0_rotated_dr.json,http://54.173.234.186/DepthDuration/depth_discrimination_MTurk/DepthDiscrim_HTML.html#2,2,1102,751,1118,894,6-19-2021,15-52-14,108,,,,,,,963,504,261,485,257,502,feet,3,4,depth_discrimination_stimuli/001618_2014-06-20_11-37-31_260595134347_rgbf000027-resize_3/001618_2014-06-20_11-37-31_260595134347_rgbf000027-resize-original.jpg,3248,629992,716120,30
223452,DepthScenes,duration_discrimination,discrim_jsons/d0_rotated_dr.json,http://54.173.234.186/DepthDuration/depth_discrimination_MTurk/DepthDiscrim_HTML.html#2,2,1102,751,1118,894,6-19-2021,15-52-14,109,,,,,,,963,504,261,485,257,502,feet,4,5,depth_discrimination_stimuli/001181_2014-06-17_15-50-57_260595134347_rgbf000106-resize_4/001181_2014-06-17_15-50-57_260595134347_rgbf000106-resize-original.jpg,1000,629992,716120,30
223452,DepthScenes,duration_discrimination,discrim_jsons/d0_rotated_dr.json,http://54.173.234.186/DepthDuration/depth_discrimination_MTurk/DepthDiscrim_HTML.html#2,2,1102,751,1118,894,6-19-2021,15-52-14,110,,,,,,,963,504,261,485,257,502,feet,3,5,depth_discrimination_stimuli/002414_2014-06-28_20-24-58_260595134347_rgbf000067-resize_4/002414_2014-06-28_20-24-58_260595134347_rgbf000067-resize-original.jpg,10984,629992,716120,30
223452,DepthScenes,duration_discrimination,discrim_jsons/d0_rotated_dr.json,http://54.173.234.186/DepthDuration/depth_discrimination_MTurk/DepthDiscrim_HTML.html#2,2,1102,751,1118,894,6-19-2021,15-52-14,111,,,,,,,963,504,261,485,257,502,feet,4,2,depth_discrimination_stimuli/002784_2014-06-22_19-26-30_094959634447_rgbf000083-resize_3/002784_2014-06-22_19-26-30_094959634447_rgbf000083-resize-original.jpg,2974,629992,716120,30
223452,DepthScenes,duration_discrimination,discrim_jsons/d0_rotated_dr.json,http://54.173.234.186/DepthDuration/depth_discrimination_MTurk/DepthDiscrim_HTML.html#2,2,1102,751,1118,894,6-19-2021,15-52-14,112,,,,,,,963,504,261,485,257,502,feet,3,2,depth_discrimination_stimuli/003495_2014-05-21_16-01-51_094959634447_rgbf000100-resize_3/003495_2014-05-21_16-01-51_094959634447_rgbf000100-resize-original.jpg,1728,629992,716120,30
223452,DepthScenes,duration_discrimination,discrim_jsons/d0_rotated_dr.json,http://54.173.234.186/DepthDuration/depth_discrimination_MTurk/DepthDiscrim_HTML.html#2,2,1102,751,1118,894,6-19-2021,15-52-14,113,,,,,,,963,504,261,485,257,502,feet,4,3,depth_discrimination_stimuli/002323_2014-06-28_20-01-54_260595134347_rgbf000051-resize_4/002323_2014-06-28_20-01-54_260595134347_rgbf000051-resize-original.jpg,1160,629992,716120,30
223452,DepthScenes,duration_discrimination,discrim_jsons/d0_rotated_dr.json,http://54.173.234.186/DepthDuration/depth_discrimination_MTurk/DepthDiscrim_HTML.html#2,2,1102,751,1118,894,6-19-2021,15-52-14,114,,,,,,,963,504,261,485,257,502,feet,1,5,depth_discrimination_stimuli/000409_2014-06-04_19-23-33_260595134347_rgbf000067-resize_0/000409_2014-06-04_19-23-33_260595134347_rgbf000067-resize-original.jpg,1113,629992,716120,30
223452,DepthScenes,duration_discrimination,discrim_jsons/d0_rotated_dr.json,http://54.173.234.186/DepthDuration/depth_discrimination_MTurk/DepthDiscrim_HTML.html#2,2,1102,751,1118,894,6-19-2021,15-52-14,115,,,,,,,963,504,261,485,257,502,feet,3,4,depth_discrimination_stimuli/002995_2014-06-15_12-31-26_094959634447_rgbf000150-resize_1/002995_2014-06-15_12-31-26_094959634447_rgbf000150-resize-original.jpg,999,629992,716120,30
223452,DepthScenes,duration_discrimination,discrim_jsons/d0_rotated_dr.json,http://54.173.234.186/DepthDuration/depth_discrimination_MTurk/DepthDiscrim_HTML.html#2,2,1102,751,1118,894,6-19-2021,15-52-14,116,,,,,,,963,504,261,485,257,502,feet,2,5,depth_discrimination_stimuli/001032_2014-06-08_13-23-17_260595134347_rgbf000021-resize_3/001032_2014-06-08_13-23-17_260595134347_rgbf000021-resize-original.jpg,1056,629992,716120,30
223452,DepthScenes,duration_discrimination,discrim_jsons/d0_rotated_dr.json,http://54.173.234.186/DepthDuration/depth_discrimination_MTurk/DepthDiscrim_HTML.html#2,2,1102,751,1118,894,6-19-2021,15-52-14,117,,,,,,,963,504,261,485,257,502,feet,1,3,depth_discrimination_stimuli/002570_2014-06-24_13-59-54_094959634447_rgbf000059-resize_0/002570_2014-06-24_13-59-54_094959634447_rgbf000059-resize-original.jpg,1095,629992,716120,30
223452,DepthScenes,duration_discrimination,discrim_jsons/d0_rotated_dr.json,http://54.173.234.186/DepthDuration/depth_discrimination_MTurk/DepthDiscrim_HTML.html#2,2,1102,751,1118,894,6-19-2021,15-52-14,118,,,,,,,963,504,261,485,257,502,feet,3,4,depth_discrimination_stimuli/000505_2014-06-08_23-03-23_260595134347_rgbf000091-resize_0/000505_2014-06-08_23-03-23_260595134347_rgbf000091-resize-original.jpg,928,629992,716120,30
223452,DepthScenes,duration_discrimination,discrim_jsons/d0_rotated_dr.json,http://54.173.234.186/DepthDuration/depth_discrimination_MTurk/DepthDiscrim_HTML.html#2,2,1102,751,1118,894,6-19-2021,15-52-14,119,,,,,,,963,504,261,485,257,502,feet,3,2,depth_discrimination_stimuli/001110_2014-06-15_17-25-28_260595134347_rgbf000150-resize_1/001110_2014-06-15_17-25-28_260595134347_rgbf000150-resize-original.jpg,1048,629992,716120,30
223452,DepthScenes,duration_discrimination,discrim_jsons/d0_rotated_dr.json,http://54.173.234.186/DepthDuration/depth_discrimination_MTurk/DepthDiscrim_HTML.html#2,2,1102,751,1118,894,6-19-2021,15-52-14,120,,,,,,,963,504,261,485,257,502,feet,5,3,depth_discrimination_stimuli/000470_2014-06-09_19-42-40_260595134347_rgbf000094-resize_1/000470_2014-06-09_19-42-40_260595134347_rgbf000094-resize-original.jpg,1048,629992,716120,30
223452,DepthScenes,duration_discrimination,discrim_jsons/d0_rotated_dr.json,http://54.173.234.186/DepthDuration/depth_discrimination_MTurk/DepthDiscrim_HTML.html#2,2,1102,751,1118,894,6-19-2021,15-52-14,121,,,,,,,963,504,261,485,257,502,feet,4,3,depth_discrimination_stimuli/003079_2014-06-15_15-18-20_094959634447_rgbf000152-resize_8/003079_2014-06-15_15-18-20_094959634447_rgbf000152-resize-original.jpg,960,629992,716120,30
223452,DepthScenes,duration_discrimination,discrim_jsons/d0_rotated_dr.json,http://54.173.234.186/DepthDuration/depth_discrimination_MTurk/DepthDiscrim_HTML.html#2,2,1102,751,1118,894,6-19-2021,15-52-14,122,,,,,,,963,504,261,485,257,502,feet,2,4,depth_discrimination_stimuli/002464_2014-06-28_20-36-57_260595134347_rgbf000029-resize_0/002464_2014-06-28_20-36-57_260595134347_rgbf000029-resize-original.jpg,865,629992,716120,30
223452,DepthScenes,duration_discrimination,discrim_jsons/d0_rotated_dr.json,http://54.173.234.186/DepthDuration/depth_discrimination_MTurk/DepthDiscrim_HTML.html#2,2,1102,751,1118,894,6-19-2021,15-52-14,123,,,,,,,963,504,261,485,257,502,feet,5,3,scene_property_catch_stimuli/sun_bpzzatthlcapxzol.jpg,1296,629992,716120,30
223452,DepthScenes,duration_discrimination,discrim_jsons/d0_rotated_dr.json,http://54.173.234.186/DepthDuration/depth_discrimination_MTurk/DepthDiscrim_HTML.html#2,2,1102,751,1118,894,6-19-2021,15-52-14,124,,,,,,,963,504,261,485,257,502,feet,4,3,depth_discrimination_stimuli/003010_2014-06-15_12-54-35_094959634447_rgbf000112-resize_0/003010_2014-06-15_12-54-35_094959634447_rgbf000112-resize-original.jpg,798,629992,716120,30
223452,DepthScenes,duration_discrimination,discrim_jsons/d0_rotated_dr.json,http://54.173.234.186/DepthDuration/depth_discrimination_MTurk/DepthDiscrim_HTML.html#2,2,1102,751,1118,894,6-19-2021,15-52-14,125,,,,,,,963,504,261,485,257,502,feet,2,3,depth_discrimination_stimuli/002340_2014-06-28_20-05-46_260595134347_rgbf000113-resize_0/002340_2014-06-28_20-05-46_260595134347_rgbf000113-resize-original.jpg,872,629992,716120,30
223452,DepthScenes,duration_discrimination,discrim_jsons/d0_rotated_dr.json,http://54.173.234.186/DepthDuration/depth_discrimination_MTurk/DepthDiscrim_HTML.html#2,2,1102,751,1118,894,6-19-2021,15-52-14,126,,,,,,,963,504,261,485,257,502,feet,4,5,depth_discrimination_stimuli/000753_2014-06-08_21-57-44_260595134347_rgbf000123-resize_3/000753_2014-06-08_21-57-44_260595134347_rgbf000123-resize-original.jpg,1536,629992,716120,30
223452,DepthScenes,duration_discrimination,discrim_jsons/d0_rotated_dr.json,http://54.173.234.186/DepthDuration/depth_discrimination_MTurk/DepthDiscrim_HTML.html#2,2,1102,751,1118,894,6-19-2021,15-52-14,127,,,,,,,963,504,261,485,257,502,feet,2,3,depth_discrimination_stimuli/000749_2014-06-08_21-55-06_260595134347_rgbf000070-resize_2/000749_2014-06-08_21-55-06_260595134347_rgbf000070-resize-original.jpg,896,629992,716120,30
223452,DepthScenes,duration_discrimination,discrim_jsons/d0_rotated_dr.json,http://54.173.234.186/DepthDuration/depth_discrimination_MTurk/DepthDiscrim_HTML.html#2,2,1102,751,1118,894,6-19-2021,15-52-14,128,,,,,,,963,504,261,485,257,502,feet,1,3,depth_discrimination_stimuli/001264_2014-06-16_16-10-23_260595134347_rgbf000109-resize_1/001264_2014-06-16_16-10-23_260595134347_rgbf000109-resize-original.jpg,896,629992,716120,30
223452,DepthScenes,duration_discrimination,discrim_jsons/d0_rotated_dr.json,http://54.173.234.186/DepthDuration/depth_discrimination_MTurk/DepthDiscrim_HTML.html#2,2,1102,751,1118,894,6-19-2021,15-52-14,129,,,,,,,963,504,261,485,257,502,feet,4,5,depth_discrimination_stimuli/002305_2014-06-28_19-56-50_260595134347_rgbf000102-resize_7/002305_2014-06-28_19-56-50_260595134347_rgbf000102-resize-original.jpg,680,629992,716120,30
223452,DepthScenes,duration_discrimination,discrim_jsons/d0_rotated_dr.json,http://54.173.234.186/DepthDuration/depth_discrimination_MTurk/DepthDiscrim_HTML.html#2,2,1102,751,1118,894,6-19-2021,15-52-14,130,,,,,,,963,504,261,485,257,502,feet,2,3,depth_discrimination_stimuli/000709_2014-06-08_13-51-55_260595134347_rgbf000068-resize_3/000709_2014-06-08_13-51-55_260595134347_rgbf000068-resize-original.jpg,880,629992,716120,30
223452,DepthScenes,duration_discrimination,discrim_jsons/d0_rotated_dr.json,http://54.173.234.186/DepthDuration/depth_discrimination_MTurk/DepthDiscrim_HTML.html#2,2,1102,751,1118,894,6-19-2021,15-52-14,131,,,,,,,963,504,261,485,257,502,feet,1,3,depth_discrimination_stimuli/002467_2014-06-28_20-38-07_260595134347_rgbf000026-resize_2/002467_2014-06-28_20-38-07_260595134347_rgbf000026-resize-original.jpg,864,629992,716120,30
223452,DepthScenes,duration_discrimination,discrim_jsons/d0_rotated_dr.json,http://54.173.234.186/DepthDuration/depth_discrimination_MTurk/DepthDiscrim_HTML.html#2,2,1102,751,1118,894,6-19-2021,15-52-14,132,,,,,,,963,504,261,485,257,502,feet,4,5,depth_discrimination_stimuli/002988_2014-06-15_12-24-20_094959634447_rgbf000150-resize_1/002988_2014-06-15_12-24-20_094959634447_rgbf000150-resize-original.jpg,824,629992,716120,30
223452,DepthScenes,duration_discrimination,discrim_jsons/d0_rotated_dr.json,http://54.173.234.186/DepthDuration/depth_discrimination_MTurk/DepthDiscrim_HTML.html#2,2,1102,751,1118,894,6-19-2021,15-52-14,133,,,,,,,963,504,261,485,257,502,feet,3,2,depth_discrimination_stimuli/000943_2014-06-09_19-31-07_260595134347_rgbf000128-resize_1/000943_2014-06-09_19-31-07_260595134347_rgbf000128-resize-original.jpg,824,629992,716120,30
223452,DepthScenes,duration_discrimination,discrim_jsons/d0_rotated_dr.json,http://54.173.234.186/DepthDuration/depth_discrimination_MTurk/DepthDiscrim_HTML.html#2,2,1102,751,1118,894,6-19-2021,15-52-14,134,,,,,,,963,504,261,485,257,502,feet,1,3,depth_discrimination_stimuli/000929_2014-06-09_16-33-19_260595134347_rgbf000139-resize_0/000929_2014-06-09_16-33-19_260595134347_rgbf000139-resize-original.jpg,1016,629992,716120,30
223452,DepthScenes,duration_discrimination,discrim_jsons/d0_rotated_dr.json,http://54.173.234.186/DepthDuration/depth_discrimination_MTurk/DepthDiscrim_HTML.html#2,2,1102,751,1118,894,6-19-2021,15-52-14,135,,,,,,,963,504,261,485,257,502,feet,4,2,depth_discrimination_stimuli/002545_2014-06-24_13-38-53_094959634447_rgbf000080-resize_4/002545_2014-06-24_13-38-53_094959634447_rgbf000080-resize-original.jpg,4144,629992,716120,30
223452,DepthScenes,duration_discrimination,discrim_jsons/d0_rotated_dr.json,http://54.173.234.186/DepthDuration/depth_discrimination_MTurk/DepthDiscrim_HTML.html#2,2,1102,751,1118,894,6-19-2021,15-52-14,136,,,,,,,963,504,261,485,257,502,feet,1,4,depth_discrimination_stimuli/000191_2014-05-12_17-07-38_260595134347_rgbf000199-resize_0/000191_2014-05-12_17-07-38_260595134347_rgbf000199-resize-original.jpg,904,629992,716120,30
223452,DepthScenes,duration_discrimination,discrim_jsons/d0_rotated_dr.json,http://54.173.234.186/DepthDuration/depth_discrimination_MTurk/DepthDiscrim_HTML.html#2,2,1102,751,1118,894,6-19-2021,15-52-14,137,,,,,,,963,504,261,485,257,502,feet,5,3,depth_discrimination_stimuli/001214_2014-06-17_16-13-55_260595134347_rgbf000111-resize_0/001214_2014-06-17_16-13-55_260595134347_rgbf000111-resize-original.jpg,887,629992,716120,30
223452,DepthScenes,duration_discrimination,discrim_jsons/d0_rotated_dr.json,http://54.173.234.186/DepthDuration/depth_discrimination_MTurk/DepthDiscrim_HTML.html#2,2,1102,751,1118,894,6-19-2021,15-52-14,138,,,,,,,963,504,261,485,257,502,feet,2,1,depth_discrimination_stimuli/001516_2014-06-20_16-25-09_260595134347_rgbf000076-resize_2/001516_2014-06-20_16-25-09_260595134347_rgbf000076-resize-original.jpg,776,629992,716120,30
223452,DepthScenes,duration_discrimination,discrim_jsons/d0_rotated_dr.json,http://54.173.234.186/DepthDuration/depth_discrimination_MTurk/DepthDiscrim_HTML.html#2,2,1102,751,1118,894,6-19-2021,15-52-14,139,,,,,,,963,504,261,485,257,502,feet,4,5,depth_discrimination_stimuli/001450_2014-06-19_17-02-03_260595134347_rgbf000203-resize_4/001450_2014-06-19_17-02-03_260595134347_rgbf000203-resize-original.jpg,872,629992,716120,30
223452,DepthScenes,duration_discrimination,discrim_jsons/d0_rotated_dr.json,http://54.173.234.186/DepthDuration/depth_discrimination_MTurk/DepthDiscrim_HTML.html#2,2,1102,751,1118,894,6-19-2021,15-52-14,140,,,,,,,963,504,261,485,257,502,feet,3,5,depth_discrimination_stimuli/003534_2014-05-22_15-06-10_094959634447_rgbf000102-resize_4/003534_2014-05-22_15-06-10_094959634447_rgbf000102-resize-original.jpg,1056,629992,716120,30
223452,DepthScenes,duration_discrimination,discrim_jsons/d0_rotated_dr.json,http://54.173.234.186/DepthDuration/depth_discrimination_MTurk/DepthDiscrim_HTML.html#2,2,1102,751,1118,894,6-19-2021,15-52-14,141,,,,,,,963,504,261,485,257,502,feet,3,5,depth_discrimination_stimuli/000457_2014-06-08_16-52-43_260595134347_rgbf000199-resize_1/000457_2014-06-08_16-52-43_260595134347_rgbf000199-resize-original.jpg,920,629992,716120,30
223452,DepthScenes,duration_discrimination,discrim_jsons/d0_rotated_dr.json,http://54.173.234.186/DepthDuration/depth_discrimination_MTurk/DepthDiscrim_HTML.html#2,2,1102,751,1118,894,6-19-2021,15-52-14,142,,,,,,,963,504,261,485,257,502,feet,1,2,depth_discrimination_stimuli/002987_2014-06-08_18-48-20_094959634447_rgbf000022-resize_0/002987_2014-06-08_18-48-20_094959634447_rgbf000022-resize-original.jpg,784,629992,716120,30
223452,DepthScenes,duration_discrimination,discrim_jsons/d0_rotated_dr.json,http://54.173.234.186/DepthDuration/depth_discrimination_MTurk/DepthDiscrim_HTML.html#2,2,1102,751,1118,894,6-19-2021,15-52-14,143,,,,,,,963,504,261,485,257,502,feet,3,4,depth_discrimination_stimuli/002663_2014-06-13_15-50-26_094959634447_rgbf000075-resize_1/002663_2014-06-13_15-50-26_094959634447_rgbf000075-resize-original.jpg,976,629992,716120,30
223452,DepthScenes,duration_discrimination,discrim_jsons/d0_rotated_dr.json,http://54.173.234.186/DepthDuration/depth_discrimination_MTurk/DepthDiscrim_HTML.html#2,2,1102,751,1118,894,6-19-2021,15-52-14,144,,,,,,,963,504,261,485,257,502,feet,2,5,depth_discrimination_stimuli/002660_2014-06-13_15-44-18_094959634447_rgbf001878-resize_2/002660_2014-06-13_15-44-18_094959634447_rgbf001878-resize-original.jpg,1017,629992,716120,30
223452,DepthScenes,duration_discrimination,discrim_jsons/d0_rotated_dr.json,http://54.173.234.186/DepthDuration/depth_discrimination_MTurk/DepthDiscrim_HTML.html#2,2,1102,751,1118,894,6-19-2021,15-52-14,145,,,,,,,963,504,261,485,257,502,feet,3,2,scene_property_catch_stimuli/000675_2014-06-08_22-59-18_260595134347_rgbf000096-resize.jpg,4126,629992,716120,30
223452,DepthScenes,duration_discrimination,discrim_jsons/d0_rotated_dr.json,http://54.173.234.186/DepthDuration/depth_discrimination_MTurk/DepthDiscrim_HTML.html#2,2,1102,751,1118,894,6-19-2021,15-52-14,146,,,,,,,963,504,261,485,257,502,feet,2,1,depth_discrimination_stimuli/002445_2014-06-28_20-32-16_260595134347_rgbf000029-resize_4/002445_2014-06-28_20-32-16_260595134347_rgbf000029-resize-original.jpg,840,629992,716120,30
223452,DepthScenes,duration_discrimination,discrim_jsons/d0_rotated_dr.json,http://54.173.234.186/DepthDuration/depth_discrimination_MTurk/DepthDiscrim_HTML.html#2,2,1102,751,1118,894,6-19-2021,15-52-14,147,,,,,,,963,504,261,485,257,502,feet,4,5,depth_discrimination_stimuli/001175_2014-06-17_15-45-55_260595134347_rgbf000129-resize_4/001175_2014-06-17_15-45-55_260595134347_rgbf000129-resize-original.jpg,864,629992,716120,30
223452,DepthScenes,duration_discrimination,discrim_jsons/d0_rotated_dr.json,http://54.173.234.186/DepthDuration/depth_discrimination_MTurk/DepthDiscrim_HTML.html#2,2,1102,751,1118,894,6-19-2021,15-52-14,148,,,,,,,963,504,261,485,257,502,feet,3,2,depth_discrimination_stimuli/000555_2014-06-09_22-42-23_260595134347_rgbf000037-resize_4/000555_2014-06-09_22-42-23_260595134347_rgbf000037-resize-original.jpg,1448,629992,716120,30
223452,DepthScenes,duration_discrimination,discrim_jsons/d0_rotated_dr.json,http://54.173.234.186/DepthDuration/depth_discrimination_MTurk/DepthDiscrim_HTML.html#2,2,1102,751,1118,894,6-19-2021,15-52-14,149,,,,,,,963,504,261,485,257,502,feet,3,4,depth_discrimination_stimuli/001011_2014-06-08_23-18-54_260595134347_rgbf000044-resize_4/001011_2014-06-08_23-18-54_260595134347_rgbf000044-resize-original.jpg,647,629992,716120,30
223452,DepthScenes,duration_discrimination,discrim_jsons/d0_rotated_dr.json,http://54.173.234.186/DepthDuration/depth_discrimination_MTurk/DepthDiscrim_HTML.html#2,2,1102,751,1118,894,6-19-2021,15-52-14,150,,,,,,,963,504,261,485,257,502,feet,2,1,depth_discrimination_stimuli/000788_2014-06-08_22-34-36_260595134347_rgbf000131-resize_1/000788_2014-06-08_22-34-36_260595134347_rgbf000131-resize-original.jpg,752,629992,716120,30
223452,DepthScenes,duration_discrimination,discrim_jsons/d0_rotated_dr.json,http://54.173.234.186/DepthDuration/depth_discrimination_MTurk/DepthDiscrim_HTML.html#2,2,1102,751,1118,894,6-19-2021,15-52-14,151,,,,,,,963,504,261,485,257,502,feet,3,4,depth_discrimination_stimuli/000677_2014-06-08_23-10-32_260595134347_rgbf000158-resize_6/000677_2014-06-08_23-10-32_260595134347_rgbf000158-resize-original.jpg,864,629992,716120,30
223452,DepthScenes,duration_discrimination,discrim_jsons/d0_rotated_dr.json,http://54.173.234.186/DepthDuration/depth_discrimination_MTurk/DepthDiscrim_HTML.html#2,2,1102,751,1118,894,6-19-2021,15-52-14,152,,,,,,,963,504,261,485,257,502,feet,2,1,depth_discrimination_stimuli/003423_2014-05-21_10-23-26_094959634447_rgbf002665-resize_2/003423_2014-05-21_10-23-26_094959634447_rgbf002665-resize-original.jpg,896,629992,716120,30
223452,DepthScenes,duration_discrimination,discrim_jsons/d0_rotated_dr.json,http://54.173.234.186/DepthDuration/depth_discrimination_MTurk/DepthDiscrim_HTML.html#2,2,1102,751,1118,894,6-19-2021,15-52-14,153,,,,,,,963,504,261,485,257,502,feet,2,2,depth_discrimination_stimuli/001650_2014-06-20_12-09-00_260595134347_rgbf000087-resize_3/001650_2014-06-20_12-09-00_260595134347_rgbf000087-resize-original.jpg,968,629992,716120,30
223452,DepthScenes,duration_discrimination,discrim_jsons/d0_rotated_dr.json,http://54.173.234.186/DepthDuration/depth_discrimination_MTurk/DepthDiscrim_HTML.html#2,2,1102,751,1118,894,6-19-2021,15-52-14,154,,,,,,,963,504,261,485,257,502,feet,3,2,depth_discrimination_stimuli/001016_2014-06-09_16-16-10_260595134347_rgbf000112-resize_5/001016_2014-06-09_16-16-10_260595134347_rgbf000112-resize-original.jpg,1344,629992,716120,30
223452,DepthScenes,duration_discrimination,discrim_jsons/d0_rotated_dr.json,http://54.173.234.186/DepthDuration/depth_discrimination_MTurk/DepthDiscrim_HTML.html#2,2,1102,751,1118,894,6-19-2021,15-52-14,155,,,,,,,963,504,261,485,257,502,feet,1,4,depth_discrimination_stimuli/000502_2014-06-08_23-02-32_260595134347_rgbf000063-resize_4/000502_2014-06-08_23-02-32_260595134347_rgbf000063-resize-original.jpg,1008,629992,716120,30
223452,DepthScenes,duration_discrimination,discrim_jsons/d0_rotated_dr.json,http://54.173.234.186/DepthDuration/depth_discrimination_MTurk/DepthDiscrim_HTML.html#2,2,1102,751,1118,894,6-19-2021,15-52-14,156,,,,,,,963,504,261,485,257,502,feet,2,3,depth_discrimination_stimuli/002509_2014-06-24_13-19-22_094959634447_rgbf000077-resize_0/002509_2014-06-24_13-19-22_094959634447_rgbf000077-resize-original.jpg,1000,629992,716120,30
223452,DepthScenes,duration_discrimination,discrim_jsons/d0_rotated_dr.json,http://54.173.234.186/DepthDuration/depth_discrimination_MTurk/DepthDiscrim_HTML.html#2,2,1102,751,1118,894,6-19-2021,15-52-14,157,,,,,,,963,504,261,485,257,502,feet,1,2,depth_discrimination_stimuli/000414_2014-06-04_19-49-13_260595134347_rgbf000044-resize_0/000414_2014-06-04_19-49-13_260595134347_rgbf000044-resize-original.jpg,856,629992,716120,30
223452,DepthScenes,duration_discrimination,discrim_jsons/d0_rotated_dr.json,http://54.173.234.186/DepthDuration/depth_discrimination_MTurk/DepthDiscrim_HTML.html#2,2,1102,751,1118,894,6-19-2021,15-52-14,158,,,,,,,963,504,261,485,257,502,feet,3,2,depth_discrimination_stimuli/003069_2014-06-15_14-57-50_094959634447_rgbf000150-resize_4/003069_2014-06-15_14-57-50_094959634447_rgbf000150-resize-original.jpg,1352,629992,716120,30
223452,DepthScenes,duration_discrimination,discrim_jsons/d0_rotated_dr.json,http://54.173.234.186/DepthDuration/depth_discrimination_MTurk/DepthDiscrim_HTML.html#2,2,1102,751,1118,894,6-19-2021,15-52-14,159,,,,,,,963,504,261,485,257,502,feet,1,4,depth_discrimination_stimuli/000773_2014-06-08_22-24-54_260595134347_rgbf000093-resize_1/000773_2014-06-08_22-24-54_260595134347_rgbf000093-resize-original.jpg,1080,629992,716120,30
223452,DepthScenes,duration_discrimination,discrim_jsons/d0_rotated_dr.json,http://54.173.234.186/DepthDuration/depth_discrimination_MTurk/DepthDiscrim_HTML.html#2,2,1102,751,1118,894,6-19-2021,15-52-14,160,,,,,,,963,504,261,485,257,502,feet,3,4,depth_discrimination_stimuli/002630_2014-06-24_14-47-50_094959634447_rgbf000055-resize_1/002630_2014-06-24_14-47-50_094959634447_rgbf000055-resize-original.jpg,1296,629992,716120,30
223452,DepthScenes,duration_discrimination,discrim_jsons/d0_rotated_dr.json,http://54.173.234.186/DepthDuration/depth_discrimination_MTurk/DepthDiscrim_HTML.html#2,2,1102,751,1118,894,6-19-2021,15-52-14,161,,,,,,,963,504,261,485,257,502,feet,5,3,depth_discrimination_stimuli/003338_2014-05-20_11-01-23_094959634447_rgbf000051-resize_6/003338_2014-05-20_11-01-23_094959634447_rgbf000051-resize-original.jpg,1064,629992,716120,30
223452,DepthScenes,duration_discrimination,discrim_jsons/d0_rotated_dr.json,http://54.173.234.186/DepthDuration/depth_discrimination_MTurk/DepthDiscrim_HTML.html#2,2,1102,751,1118,894,6-19-2021,15-52-14,162,,,,,,,963,504,261,485,257,502,feet,2,1,depth_discrimination_stimuli/001094_2014-06-15_17-36-00_260595134347_rgbf000205-resize_0/001094_2014-06-15_17-36-00_260595134347_rgbf000205-resize-original.jpg,1183,629992,716120,30
223452,DepthScenes,duration_discrimination,discrim_jsons/d0_rotated_dr.json,http://54.173.234.186/DepthDuration/depth_discrimination_MTurk/DepthDiscrim_HTML.html#2,2,1102,751,1118,894,6-19-2021,15-52-14,163,,,,,,,963,504,261,485,257,502,feet,2,1,depth_discrimination_stimuli/001584_2014-06-20_11-07-43_260595134347_rgbf000002-resize_1/001584_2014-06-20_11-07-43_260595134347_rgbf000002-resize-original.jpg,858,629992,716120,30
223452,DepthScenes,duration_discrimination,discrim_jsons/d0_rotated_dr.json,http://54.173.234.186/DepthDuration/depth_discrimination_MTurk/DepthDiscrim_HTML.html#2,2,1102,751,1118,894,6-19-2021,15-52-14,164,,,,,,,963,504,261,485,257,502,feet,1,2,depth_discrimination_stimuli/002953_2014-06-08_17-32-18_094959634447_rgbf000059-resize_5/002953_2014-06-08_17-32-18_094959634447_rgbf000059-resize-original.jpg,926,629992,716120,30
223452,DepthScenes,duration_discrimination,discrim_jsons/d0_rotated_dr.json,http://54.173.234.186/DepthDuration/depth_discrimination_MTurk/DepthDiscrim_HTML.html#2,2,1102,751,1118,894,6-19-2021,15-52-14,165,,,,,,,963,504,261,485,257,502,feet,3,4,depth_discrimination_stimuli/000740_2014-06-08_18-46-23_260595134347_rgbf000049-resize_6/000740_2014-06-08_18-46-23_260595134347_rgbf000049-resize-original.jpg,872,629992,716120,30
223452,DepthScenes,duration_discrimination,discrim_jsons/d0_rotated_dr.json,http://54.173.234.186/DepthDuration/depth_discrimination_MTurk/DepthDiscrim_HTML.html#2,2,1102,751,1118,894,6-19-2021,15-52-14,166,,,,,,,963,504,261,485,257,502,feet,2,5,depth_discrimination_stimuli/002763_2014-06-22_19-13-10_094959634447_rgbf000075-resize_4/002763_2014-06-22_19-13-10_094959634447_rgbf000075-resize-original.jpg,1640,629992,716120,30
223452,DepthScenes,duration_discrimination,discrim_jsons/d0_rotated_dr.json,http://54.173.234.186/DepthDuration/depth_discrimination_MTurk/DepthDiscrim_HTML.html#2,2,1102,751,1118,894,6-19-2021,15-52-14,167,,,,,,,963,504,261,485,257,502,feet,3,2,depth_discrimination_stimuli/000447_2014-06-08_16-15-46_260595134347_rgbf000130-resize_1/000447_2014-06-08_16-15-46_260595134347_rgbf000130-resize-original.jpg,816,629992,716120,30
223452,DepthScenes,duration_discrimination,discrim_jsons/d0_rotated_dr.json,http://54.173.234.186/DepthDuration/depth_discrimination_MTurk/DepthDiscrim_HTML.html#2,2,1102,751,1118,894,6-19-2021,15-52-14,168,,,,,,,963,504,261,485,257,502,feet,1,4,depth_discrimination_stimuli/002748_2014-06-22_19-07-22_094959634447_rgbf000078-resize_1/002748_2014-06-22_19-07-22_094959634447_rgbf000078-resize-original.jpg,952,629992,716120,30
223452,DepthScenes,duration_discrimination,discrim_jsons/d0_rotated_dr.json,http://54.173.234.186/DepthDuration/depth_discrimination_MTurk/DepthDiscrim_HTML.html#2,2,1102,751,1118,894,6-19-2021,15-52-14,169,,,,,,,963,504,261,485,257,502,feet,2,1,depth_discrimination_stimuli/002375_2014-06-28_20-13-44_260595134347_rgbf000032-resize_1/002375_2014-06-28_20-13-44_260595134347_rgbf000032-resize-original.jpg,1011,629992,716120,30
223452,DepthScenes,duration_discrimination,discrim_jsons/d0_rotated_dr.json,http://54.173.234.186/DepthDuration/depth_discrimination_MTurk/DepthDiscrim_HTML.html#2,2,1102,751,1118,894,6-19-2021,15-52-14,170,,,,,,,963,504,261,485,257,502,feet,1,3,depth_discrimination_stimuli/002057_2014-06-24_21-00-13_260595134347_rgbf000120-resize_1/002057_2014-06-24_21-00-13_260595134347_rgbf000120-resize-original.jpg,948,629992,716120,30
223452,DepthScenes,duration_discrimination,discrim_jsons/d0_rotated_dr.json,http://54.173.234.186/DepthDuration/depth_discrimination_MTurk/DepthDiscrim_HTML.html#2,2,1102,751,1118,894,6-19-2021,15-52-14,171,,,,,,,963,504,261,485,257,502,feet,2,4,depth_discrimination_stimuli/000665_2014-06-09_20-42-35_260595134347_rgbf000110-resize_1/000665_2014-06-09_20-42-35_260595134347_rgbf000110-resize-original.jpg,777,629992,716120,30
223452,DepthScenes,duration_discrimination,discrim_jsons/d0_rotated_dr.json,http://54.173.234.186/DepthDuration/depth_discrimination_MTurk/DepthDiscrim_HTML.html#2,2,1102,751,1118,894,6-19-2021,15-52-14,172,,,,,,,963,504,261,485,257,502,feet,5,2,depth_discrimination_stimuli/003621_2014-05-23_18-06-08_094959634447_rgbf000101-resize_1/003621_2014-05-23_18-06-08_094959634447_rgbf000101-resize-original.jpg,847,629992,716120,30
223452,DepthScenes,duration_discrimination,discrim_jsons/d0_rotated_dr.json,http://54.173.234.186/DepthDuration/depth_discrimination_MTurk/DepthDiscrim_HTML.html#2,2,1102,751,1118,894,6-19-2021,15-52-14,173,,,,,,,963,504,261,485,257,502,feet,1,2,depth_discrimination_stimuli/002272_2014-06-28_18-53-56_260595134347_rgbf000067-resize_2/002272_2014-06-28_18-53-56_260595134347_rgbf000067-resize-original.jpg,920,629992,716120,30
223452,DepthScenes,duration_discrimination,discrim_jsons/d0_rotated_dr.json,http://54.173.234.186/DepthDuration/depth_discrimination_MTurk/DepthDiscrim_HTML.html#2,2,1102,751,1118,894,6-19-2021,15-52-14,174,,,,,,,963,504,261,485,257,502,feet,1,3,depth_discrimination_stimuli/001808_2014-06-26_20-50-58_260595134347_rgbf000029-resize_1/001808_2014-06-26_20-50-58_260595134347_rgbf000029-resize-original.jpg,800,629992,716120,30
223452,DepthScenes,duration_discrimination,discrim_jsons/d0_rotated_dr.json,http://54.173.234.186/DepthDuration/depth_discrimination_MTurk/DepthDiscrim_HTML.html#2,2,1102,751,1118,894,6-19-2021,15-52-14,175,,,,,,,963,504,261,485,257,502,feet,4,4,depth_discrimination_stimuli/001158_2014-06-17_15-32-16_260595134347_rgbf000138-resize_2/001158_2014-06-17_15-32-16_260595134347_rgbf000138-resize-original.jpg,2481,629992,716120,30
223452,DepthScenes,duration_discrimination,discrim_jsons/d0_rotated_dr.json,http://54.173.234.186/DepthDuration/depth_discrimination_MTurk/DepthDiscrim_HTML.html#2,2,1102,751,1118,894,6-19-2021,15-52-14,176,,,,,,,963,504,261,485,257,502,feet,4,3,depth_discrimination_stimuli/003092_2014-06-24_21-01-49_094959634447_rgbf000049-resize_2/003092_2014-06-24_21-01-49_094959634447_rgbf000049-resize-original.jpg,951,629992,716120,30
223452,DepthScenes,duration_discrimination,discrim_jsons/d0_rotated_dr.json,http://54.173.234.186/DepthDuration/depth_discrimination_MTurk/DepthDiscrim_HTML.html#2,2,1102,751,1118,894,6-19-2021,15-52-14,177,,,,,,,963,504,261,485,257,502,feet,3,2,depth_discrimination_stimuli/001571_2014-06-20_17-21-32_260595134347_rgbf000089-resize_1/001571_2014-06-20_17-21-32_260595134347_rgbf000089-resize-original.jpg,888,629992,716120,30
223452,DepthScenes,duration_discrimination,discrim_jsons/d0_rotated_dr.json,http://54.173.234.186/DepthDuration/depth_discrimination_MTurk/DepthDiscrim_HTML.html#2,2,1102,751,1118,894,6-19-2021,15-52-14,178,,,,,,,963,504,261,485,257,502,feet,3,1,depth_discrimination_stimuli/000692_2014-06-08_13-09-42_260595134347_rgbf000199-resize_2/000692_2014-06-08_13-09-42_260595134347_rgbf000199-resize-original.jpg,936,629992,716120,30
223452,DepthScenes,duration_discrimination,discrim_jsons/d0_rotated_dr.json,http://54.173.234.186/DepthDuration/depth_discrimination_MTurk/DepthDiscrim_HTML.html#2,2,1102,751,1118,894,6-19-2021,15-52-14,179,,,,,,,963,504,261,485,257,502,feet,3,4,depth_discrimination_stimuli/001244_2014-06-17_16-47-45_260595134347_rgbf000030-resize_4/001244_2014-06-17_16-47-45_260595134347_rgbf000030-resize-original.jpg,1088,629992,716120,30
223452,DepthScenes,duration_discrimination,discrim_jsons/d0_rotated_dr.json,http://54.173.234.186/DepthDuration/depth_discrimination_MTurk/DepthDiscrim_HTML.html#2,2,1102,751,1118,894,6-19-2021,15-52-14,180,,,,,,,963,504,261,485,257,502,feet,4,3,depth_discrimination_stimuli/000682_2014-06-08_23-14-58_260595134347_rgbf000041-resize_5/000682_2014-06-08_23-14-58_260595134347_rgbf000041-resize-original.jpg,2295,629992,716120,30
223452,DepthScenes,duration_discrimination,discrim_jsons/d0_rotated_dr.json,http://54.173.234.186/DepthDuration/depth_discrimination_MTurk/DepthDiscrim_HTML.html#2,2,1102,751,1118,894,6-19-2021,15-52-14,181,,,,,,,963,504,261,485,257,502,feet,3,2,depth_discrimination_stimuli/001447_2014-06-19_17-00-32_260595134347_rgbf000082-resize_5/001447_2014-06-19_17-00-32_260595134347_rgbf000082-resize-original.jpg,775,629992,716120,30
223452,DepthScenes,duration_discrimination,discrim_jsons/d0_rotated_dr.json,http://54.173.234.186/DepthDuration/depth_discrimination_MTurk/DepthDiscrim_HTML.html#2,2,1102,751,1118,894,6-19-2021,15-52-14,182,,,,,,,963,504,261,485,257,502,feet,1,3,depth_discrimination_stimuli/002678_2014-06-13_16-15-32_094959634447_rgbf000151-resize_6/002678_2014-06-13_16-15-32_094959634447_rgbf000151-resize-original.jpg,823,629992,716120,30
223452,DepthScenes,duration_discrimination,discrim_jsons/d0_rotated_dr.json,http://54.173.234.186/DepthDuration/depth_discrimination_MTurk/DepthDiscrim_HTML.html#2,2,1102,751,1118,894,6-19-2021,15-52-14,183,,,,,,,963,504,261,485,257,502,feet,4,4,depth_discrimination_stimuli/000542_2014-06-08_18-27-08_260595134347_rgbf000118-resize_1/000542_2014-06-08_18-27-08_260595134347_rgbf000118-resize-original.jpg,1112,629992,716120,30
223452,DepthScenes,duration_discrimination,discrim_jsons/d0_rotated_dr.json,http://54.173.234.186/DepthDuration/depth_discrimination_MTurk/DepthDiscrim_HTML.html#2,2,1102,751,1118,894,6-19-2021,15-52-14,184,,,,,,,963,504,261,485,257,502,feet,3,2,depth_discrimination_stimuli/002989_2014-06-15_12-25-03_094959634447_rgbf000150-resize_3/002989_2014-06-15_12-25-03_094959634447_rgbf000150-resize-original.jpg,728,629992,716120,30
223452,DepthScenes,duration_discrimination,discrim_jsons/d0_rotated_dr.json,http://54.173.234.186/DepthDuration/depth_discrimination_MTurk/DepthDiscrim_HTML.html#2,2,1102,751,1118,894,6-19-2021,15-52-14,185,,,,,,,963,504,261,485,257,502,feet,5,3,depth_discrimination_stimuli/002444_2014-06-28_20-32-08_260595134347_rgbf000027-resize_0/002444_2014-06-28_20-32-08_260595134347_rgbf000027-resize-original.jpg,936,629992,716120,30
223452,DepthScenes,duration_discrimination,discrim_jsons/d0_rotated_dr.json,http://54.173.234.186/DepthDuration/depth_discrimination_MTurk/DepthDiscrim_HTML.html#2,2,1102,751,1118,894,6-19-2021,15-52-14,186,,,,,,,963,504,261,485,257,502,feet,2,1,depth_discrimination_stimuli/000009_2014-05-26_14-32-05_260595134347_rgbf000034-resize_3/000009_2014-05-26_14-32-05_260595134347_rgbf000034-resize-original.jpg,752,629992,716120,30
223452,DepthScenes,duration_discrimination,discrim_jsons/d0_rotated_dr.json,http://54.173.234.186/DepthDuration/depth_discrimination_MTurk/DepthDiscrim_HTML.html#2,2,1102,751,1118,894,6-19-2021,15-52-14,187,,,,,,,963,504,261,485,257,502,feet,3,4,depth_discrimination_stimuli/002700_2014-06-22_11-27-02_094959634447_rgbf000124-resize_3/002700_2014-06-22_11-27-02_094959634447_rgbf000124-resize-original.jpg,800,629992,716120,30
223452,DepthScenes,duration_discrimination,discrim_jsons/d0_rotated_dr.json,http://54.173.234.186/DepthDuration/depth_discrimination_MTurk/DepthDiscrim_HTML.html#2,2,1102,751,1118,894,6-19-2021,15-52-14,188,,,,,,,963,504,261,485,257,502,feet,3,2,depth_discrimination_stimuli/001570_2014-06-20_17-21-09_260595134347_rgbf000135-resize_4/001570_2014-06-20_17-21-09_260595134347_rgbf000135-resize-original.jpg,690,629992,716120,30
223452,DepthScenes,duration_discrimination,discrim_jsons/d0_rotated_dr.json,http://54.173.234.186/DepthDuration/depth_discrimination_MTurk/DepthDiscrim_HTML.html#2,2,1102,751,1118,894,6-19-2021,15-52-14,189,,,,,,,963,504,261,485,257,502,feet,1,2,depth_discrimination_stimuli/003292_2014-05-14_21-53-49_094959634447_rgbf000100-resize_2/003292_2014-05-14_21-53-49_094959634447_rgbf000100-resize-original.jpg,886,629992,716120,30
223452,DepthScenes,duration_discrimination,discrim_jsons/d0_rotated_dr.json,http://54.173.234.186/DepthDuration/depth_discrimination_MTurk/DepthDiscrim_HTML.html#2,2,1102,751,1118,894,6-19-2021,15-52-14,190,,,,,,,963,504,261,485,257,502,feet,3,4,depth_discrimination_stimuli/002131_2014-06-25_21-12-01_260595134347_rgbf000083-resize_0/002131_2014-06-25_21-12-01_260595134347_rgbf000083-resize-original.jpg,680,629992,716120,30
223452,DepthScenes,duration_discrimination,discrim_jsons/d0_rotated_dr.json,http://54.173.234.186/DepthDuration/depth_discrimination_MTurk/DepthDiscrim_HTML.html#2,2,1102,751,1118,894,6-19-2021,15-52-14,191,,,,,,,963,504,261,485,257,502,feet,5,3,depth_discrimination_stimuli/002425_2014-06-28_20-27-29_260595134347_rgbf000031-resize_8/002425_2014-06-28_20-27-29_260595134347_rgbf000031-resize-original.jpg,800,629992,716120,30
223452,DepthScenes,duration_discrimination,discrim_jsons/d0_rotated_dr.json,http://54.173.234.186/DepthDuration/depth_discrimination_MTurk/DepthDiscrim_HTML.html#2,2,1102,751,1118,894,6-19-2021,15-52-14,192,,,,,,,963,504,261,485,257,502,feet,2,3,depth_discrimination_stimuli/001617_2014-06-20_11-35-32_260595134347_rgbf000066-resize_1/001617_2014-06-20_11-35-32_260595134347_rgbf000066-resize-original.jpg,944,629992,716120,30
223452,DepthScenes,duration_discrimination,discrim_jsons/d0_rotated_dr.json,http://54.173.234.186/DepthDuration/depth_discrimination_MTurk/DepthDiscrim_HTML.html#2,2,1102,751,1118,894,6-19-2021,15-52-14,193,,,,,,,963,504,261,485,257,502,feet,1,2,depth_discrimination_stimuli/002725_2014-06-22_11-47-51_094959634447_rgbf000070-resize_1/002725_2014-06-22_11-47-51_094959634447_rgbf000070-resize-original.jpg,1000,629992,716120,30
223452,DepthScenes,duration_discrimination,discrim_jsons/d0_rotated_dr.json,http://54.173.234.186/DepthDuration/depth_discrimination_MTurk/DepthDiscrim_HTML.html#2,2,1102,751,1118,894,6-19-2021,15-52-14,194,,,,,,,963,504,261,485,257,502,feet,3,2,depth_discrimination_stimuli/000691_2014-06-08_13-08-50_260595134347_rgbf000132-resize_3/000691_2014-06-08_13-08-50_260595134347_rgbf000132-resize-original.jpg,704,629992,716120,30
223452,DepthScenes,duration_discrimination,discrim_jsons/d0_rotated_dr.json,http://54.173.234.186/DepthDuration/depth_discrimination_MTurk/DepthDiscrim_HTML.html#2,2,1102,751,1118,894,6-19-2021,15-52-14,195,,,,,,,963,504,261,485,257,502,feet,2,4,depth_discrimination_stimuli/001029_2014-06-08_13-17-57_260595134347_rgbf000065-resize_1/001029_2014-06-08_13-17-57_260595134347_rgbf000065-resize-original.jpg,823,629992,716120,30
