subjID,experimentName,versionName,sequenceName,url,selected_row,windowWidth,windowHeight,screenWidth,screenHeight,startDate,startTime,trial,stimulus_0,stimulus_1,duration,actual_depth_0,actual_depth_1,discrim_choice,trial_RT,log_fixation,log_sceneDuration1,log_mask1,log_sceneDuration2,log_mask2,unitSelection,meanDepth_rating,navigability_rating,rated_stimulus,rating_RT,experimentTime,totalTime,age
247847,DepthScenes,duration_discrimination,discrim_jsons/d0.json,http://54.173.234.186/DepthDuration/depth_discrimination_MTurk/DepthDiscrim_HTML.html#4,4,1876,886,1920,1080,6-19-2021,14-49-50,1,depth_discrimination_stimuli/002444_2014-06-28_20-32-08_260595134347_rgbf000027-resize_0/002444_2014-06-28_20-32-08_260595134347_rgbf000027-resize_0-target.png,depth_discrimination_stimuli/003048_2014-06-15_13-49-43_094959634447_rgbf000150-resize_1/003048_2014-06-15_13-49-43_094959634447_rgbf000150-resize_1-target.png,1000,4.389,4.0035,0,6380,501,1000,510,996,494,feet,,,,,2445307,2581184,46
247847,DepthScenes,duration_discrimination,discrim_jsons/d0.json,http://54.173.234.186/DepthDuration/depth_discrimination_MTurk/DepthDiscrim_HTML.html#4,4,1876,886,1920,1080,6-19-2021,14-49-50,2,depth_discrimination_stimuli/000469_2014-06-09_19-42-10_260595134347_rgbf000081-resize_1/000469_2014-06-09_19-42-10_260595134347_rgbf000081-resize_1-target.png,depth_discrimination_stimuli/002136_2014-06-25_21-18-03_260595134347_rgbf000109-resize_3/002136_2014-06-25_21-18-03_260595134347_rgbf000109-resize_3-target.png,250,1.652,1.957,1,1064,503,248,512,238,509,feet,,,,,2445307,2581184,46
247847,DepthScenes,duration_discrimination,discrim_jsons/d0.json,http://54.173.234.186/DepthDuration/depth_discrimination_MTurk/DepthDiscrim_HTML.html#4,4,1876,886,1920,1080,6-19-2021,14-49-50,3,depth_discrimination_stimuli/000692_2014-06-08_13-09-42_260595134347_rgbf000199-resize_2/000692_2014-06-08_13-09-42_260595134347_rgbf000199-resize_2-target.png,depth_discrimination_stimuli/002103_2014-06-25_20-00-40_260595134347_rgbf000049-resize_0/002103_2014-06-25_20-00-40_260595134347_rgbf000049-resize_0-target.png,250,3.661,4.105,1,1432,511,247,498,251,501,feet,,,,,2445307,2581184,46
247847,DepthScenes,duration_discrimination,discrim_jsons/d0.json,http://54.173.234.186/DepthDuration/depth_discrimination_MTurk/DepthDiscrim_HTML.html#4,4,1876,886,1920,1080,6-19-2021,14-49-50,4,depth_discrimination_stimuli/001450_2014-06-19_17-02-03_260595134347_rgbf000203-resize_4/001450_2014-06-19_17-02-03_260595134347_rgbf000203-resize_4-target.png,depth_discrimination_stimuli/002039_2014-06-24_20-22-38_260595134347_rgbf000084-resize_1/002039_2014-06-24_20-22-38_260595134347_rgbf000084-resize_1-target.png,250,4.0106666666667,4.408,1,1389,505,246,513,237,510,feet,,,,,2445307,2581184,46
247847,DepthScenes,duration_discrimination,discrim_jsons/d0.json,http://54.173.234.186/DepthDuration/depth_discrimination_MTurk/DepthDiscrim_HTML.html#4,4,1876,886,1920,1080,6-19-2021,14-49-50,5,depth_discrimination_stimuli/000691_2014-06-08_13-08-50_260595134347_rgbf000132-resize_3/000691_2014-06-08_13-08-50_260595134347_rgbf000132-resize_3-target.png,depth_discrimination_stimuli/000137_2014-05-20_17-04-49_260595134347_rgbf000120-resize_1/000137_2014-05-20_17-04-49_260595134347_rgbf000120-resize_1-target.png,250,4.153,3.786,0,1902,509,242,501,249,512,feet,,,,,2445307,2581184,46
247847,DepthScenes,duration_discrimination,discrim_jsons/d0.json,http://54.173.234.186/DepthDuration/depth_discrimination_MTurk/DepthDiscrim_HTML.html#4,4,1876,886,1920,1080,6-19-2021,14-49-50,6,depth_discrimination_stimuli/002445_2014-06-28_20-32-16_260595134347_rgbf000029-resize_4/002445_2014-06-28_20-32-16_260595134347_rgbf000029-resize_4-target.png,depth_discrimination_stimuli/002043_2014-06-24_20-29-38_260595134347_rgbf000039-resize_4/002043_2014-06-24_20-29-38_260595134347_rgbf000039-resize_4-target.png,250,2.5315,2.8435,0,1290,504,247,513,250,488,feet,,,,,2445307,2581184,46
247847,DepthScenes,duration_discrimination,discrim_jsons/d0.json,http://54.173.234.186/DepthDuration/depth_discrimination_MTurk/DepthDiscrim_HTML.html#4,4,1876,886,1920,1080,6-19-2021,14-49-50,7,depth_discrimination_stimuli/001808_2014-06-26_20-50-58_260595134347_rgbf000029-resize_1/001808_2014-06-26_20-50-58_260595134347_rgbf000029-resize_1-target.png,depth_discrimination_stimuli/003621_2014-05-23_18-06-08_094959634447_rgbf000101-resize_1/003621_2014-05-23_18-06-08_094959634447_rgbf000101-resize_1-target.png,250,4.249,3.9835,1,970,508,247,495,250,504,feet,,,,,2445307,2581184,46
247847,DepthScenes,duration_discrimination,discrim_jsons/d0.json,http://54.173.234.186/DepthDuration/depth_discrimination_MTurk/DepthDiscrim_HTML.html#4,4,1876,886,1920,1080,6-19-2021,14-49-50,8,depth_discrimination_stimuli/002639_2014-06-24_14-51-37_094959634447_rgbf000074-resize_4/002639_2014-06-24_14-51-37_094959634447_rgbf000074-resize_4-target.png,depth_discrimination_stimuli/001132_2014-06-17_14-48-54_260595134347_rgbf000100-resize_2/001132_2014-06-17_14-48-54_260595134347_rgbf000100-resize_2-target.png,1000,4.0375,3.753,0,1912,502,1013,487,1008,497,feet,,,,,2445307,2581184,46
247847,DepthScenes,duration_discrimination,discrim_jsons/d0.json,http://54.173.234.186/DepthDuration/depth_discrimination_MTurk/DepthDiscrim_HTML.html#4,4,1876,886,1920,1080,6-19-2021,14-49-50,9,depth_discrimination_stimuli/003587_2014-05-23_16-48-02_094959634447_rgbf002384-resize_2/003587_2014-05-23_16-48-02_094959634447_rgbf002384-resize_2-target.png,depth_discrimination_stimuli/000709_2014-06-08_13-51-55_260595134347_rgbf000068-resize_3/000709_2014-06-08_13-51-55_260595134347_rgbf000068-resize_3-target.png,250,1.357,1.803,0,1333,508,250,498,249,503,feet,,,,,2445307,2581184,46
247847,DepthScenes,duration_discrimination,discrim_jsons/d0.json,http://54.173.234.186/DepthDuration/depth_discrimination_MTurk/DepthDiscrim_HTML.html#4,4,1876,886,1920,1080,6-19-2021,14-49-50,10,depth_discrimination_stimuli/000635_2014-06-08_16-38-42_260595134347_rgbf000106-resize_1/000635_2014-06-08_16-38-42_260595134347_rgbf000106-resize_1-target.png,depth_discrimination_stimuli/001516_2014-06-20_16-25-09_260595134347_rgbf000076-resize_2/001516_2014-06-20_16-25-09_260595134347_rgbf000076-resize_2-target.png,1000,2.074,1.7445,1,2291,507,997,497,1015,485,feet,,,,,2445307,2581184,46
247847,DepthScenes,duration_discrimination,discrim_jsons/d0.json,http://54.173.234.186/DepthDuration/depth_discrimination_MTurk/DepthDiscrim_HTML.html#4,4,1876,886,1920,1080,6-19-2021,14-49-50,11,depth_discrimination_stimuli/002579_2014-06-24_14-08-03_094959634447_rgbf000061-resize_2/002579_2014-06-24_14-08-03_094959634447_rgbf000061-resize_2-target.png,depth_discrimination_stimuli/002468_2014-06-28_20-38-39_260595134347_rgbf000045-resize_1/002468_2014-06-28_20-38-39_260595134347_rgbf000045-resize_1-target.png,250,2.223125,1.956,1,2171,501,263,487,250,514,feet,,,,,2445307,2581184,46
247847,DepthScenes,duration_discrimination,discrim_jsons/d0.json,http://54.173.234.186/DepthDuration/depth_discrimination_MTurk/DepthDiscrim_HTML.html#4,4,1876,886,1920,1080,6-19-2021,14-49-50,12,depth_discrimination_stimuli/002784_2014-06-22_19-26-30_094959634447_rgbf000083-resize_3/002784_2014-06-22_19-26-30_094959634447_rgbf000083-resize_3-target.png,depth_discrimination_stimuli/001532_2014-06-20_16-50-41_260595134347_rgbf000081-resize_4/001532_2014-06-20_16-50-41_260595134347_rgbf000081-resize_4-target.png,1000,1.8046666666667,1.5758333333333,0,1516,512,994,495,1014,499,feet,,,,,2445307,2581184,46
247847,DepthScenes,duration_discrimination,discrim_jsons/d0.json,http://54.173.234.186/DepthDuration/depth_discrimination_MTurk/DepthDiscrim_HTML.html#4,4,1876,886,1920,1080,6-19-2021,14-49-50,13,depth_discrimination_stimuli/002279_2014-06-28_18-55-32_260595134347_rgbf000040-resize_5/002279_2014-06-28_18-55-32_260595134347_rgbf000040-resize_5-target.png,depth_discrimination_stimuli/002949_2014-06-26_15-57-42_094959634447_rgbf000079-resize_1/002949_2014-06-26_15-57-42_094959634447_rgbf000079-resize_1-target.png,1000,1.5043333333333,1.8915,0,1931,507,995,512,994,500,feet,,,,,2445307,2581184,46
247847,DepthScenes,duration_discrimination,discrim_jsons/d0.json,http://54.173.234.186/DepthDuration/depth_discrimination_MTurk/DepthDiscrim_HTML.html#4,4,1876,886,1920,1080,6-19-2021,14-49-50,14,depth_discrimination_stimuli/001449_2014-06-19_17-01-27_260595134347_rgbf000116-resize_2/001449_2014-06-19_17-01-27_260595134347_rgbf000116-resize_2-target.png,depth_discrimination_stimuli/002630_2014-06-24_14-47-50_094959634447_rgbf000055-resize_1/002630_2014-06-24_14-47-50_094959634447_rgbf000055-resize_1-target.png,250,3.452,3.0095,0,1520,511,240,509,241,506,feet,,,,,2445307,2581184,46
247847,DepthScenes,duration_discrimination,discrim_jsons/d0.json,http://54.173.234.186/DepthDuration/depth_discrimination_MTurk/DepthDiscrim_HTML.html#4,4,1876,886,1920,1080,6-19-2021,14-49-50,15,depth_discrimination_stimuli/002460_2014-06-28_20-35-43_260595134347_rgbf000028-resize_4/002460_2014-06-28_20-35-43_260595134347_rgbf000028-resize_4-target.png,depth_discrimination_stimuli/001806_2014-06-26_20-50-20_260595134347_rgbf000091-resize_1/001806_2014-06-26_20-50-20_260595134347_rgbf000091-resize_1-target.png,1000,2.269,2.7305,0,3039,504,1010,497,997,501,feet,,,,,2445307,2581184,46
247847,DepthScenes,duration_discrimination,discrim_jsons/d0.json,http://54.173.234.186/DepthDuration/depth_discrimination_MTurk/DepthDiscrim_HTML.html#4,4,1876,886,1920,1080,6-19-2021,14-49-50,16,depth_discrimination_stimuli/000409_2014-06-04_19-23-33_260595134347_rgbf000067-resize_0/000409_2014-06-04_19-23-33_260595134347_rgbf000067-resize_0-target.png,depth_discrimination_stimuli/002464_2014-06-28_20-36-57_260595134347_rgbf000029-resize_0/002464_2014-06-28_20-36-57_260595134347_rgbf000029-resize_0-target.png,1000,3.7335,3.9525,1,2818,501,1003,496,1003,510,feet,,,,,2445307,2581184,46
247847,DepthScenes,duration_discrimination,discrim_jsons/d0.json,http://54.173.234.186/DepthDuration/depth_discrimination_MTurk/DepthDiscrim_HTML.html#4,4,1876,886,1920,1080,6-19-2021,14-49-50,17,depth_discrimination_stimuli/001555_2014-06-20_17-12-10_260595134347_rgbf000065-resize_4/001555_2014-06-20_17-12-10_260595134347_rgbf000065-resize_4-target.png,depth_discrimination_stimuli/000943_2014-06-09_19-31-07_260595134347_rgbf000128-resize_1/000943_2014-06-09_19-31-07_260595134347_rgbf000128-resize_1-target.png,1000,1.633,1.9765,1,1861,503,1008,499,999,495,feet,,,,,2445307,2581184,46
247847,DepthScenes,duration_discrimination,discrim_jsons/d0.json,http://54.173.234.186/DepthDuration/depth_discrimination_MTurk/DepthDiscrim_HTML.html#4,4,1876,886,1920,1080,6-19-2021,14-49-50,18,depth_discrimination_stimuli/002509_2014-06-24_13-19-22_094959634447_rgbf000077-resize_0/002509_2014-06-24_13-19-22_094959634447_rgbf000077-resize_0-target.png,depth_discrimination_stimuli/002344_2014-06-28_20-06-29_260595134347_rgbf000030-resize_1/002344_2014-06-28_20-06-29_260595134347_rgbf000030-resize_1-target.png,250,1.3065,1.5795,0,1263,513,251,486,255,499,feet,,,,,2445307,2581184,46
247847,DepthScenes,duration_discrimination,discrim_jsons/d0.json,http://54.173.234.186/DepthDuration/depth_discrimination_MTurk/DepthDiscrim_HTML.html#4,4,1876,886,1920,1080,6-19-2021,14-49-50,19,depth_discrimination_stimuli/002467_2014-06-28_20-38-07_260595134347_rgbf000026-resize_2/002467_2014-06-28_20-38-07_260595134347_rgbf000026-resize_2-target.png,depth_discrimination_stimuli/001175_2014-06-17_15-45-55_260595134347_rgbf000129-resize_4/001175_2014-06-17_15-45-55_260595134347_rgbf000129-resize_4-target.png,1000,4.742,4.255,0,1750,505,1009,491,1009,497,feet,,,,,2445307,2581184,46
247847,DepthScenes,duration_discrimination,discrim_jsons/d0.json,http://54.173.234.186/DepthDuration/depth_discrimination_MTurk/DepthDiscrim_HTML.html#4,4,1876,886,1920,1080,6-19-2021,14-49-50,20,depth_discrimination_stimuli/001100_2014-06-15_17-46-26_260595134347_rgbf000225-resize_2/001100_2014-06-15_17-46-26_260595134347_rgbf000225-resize_2-target.png,depth_discrimination_stimuli/002131_2014-06-25_21-12-01_260595134347_rgbf000083-resize_0/002131_2014-06-25_21-12-01_260595134347_rgbf000083-resize_0-target.png,1000,2.24,1.7685,0,2088,502,1012,500,994,499,feet,,,,,2445307,2581184,46
247847,DepthScenes,duration_discrimination,discrim_jsons/d0.json,http://54.173.234.186/DepthDuration/depth_discrimination_MTurk/DepthDiscrim_HTML.html#4,4,1876,886,1920,1080,6-19-2021,14-49-50,21,depth_discrimination_stimuli/003395_2014-05-20_15-39-18_094959634447_rgbf000101-resize_0/003395_2014-05-20_15-39-18_094959634447_rgbf000101-resize_0-target.png,depth_discrimination_stimuli/001540_2014-06-20_17-01-05_260595134347_rgbf000086-resize_2/001540_2014-06-20_17-01-05_260595134347_rgbf000086-resize_2-target.png,250,4.835,1.459,1,1076,509,242,504,251,499,feet,,,,,2445307,2581184,46
247847,DepthScenes,duration_discrimination,discrim_jsons/d0.json,http://54.173.234.186/DepthDuration/depth_discrimination_MTurk/DepthDiscrim_HTML.html#4,4,1876,886,1920,1080,6-19-2021,14-49-50,22,depth_discrimination_stimuli/000454_2014-06-08_16-37-28_260595134347_rgbf000048-resize_2/000454_2014-06-08_16-37-28_260595134347_rgbf000048-resize_2-target.png,depth_discrimination_stimuli/000375_2014-06-08_11-17-29_260595134347_rgbf000133-resize_2/000375_2014-06-08_11-17-29_260595134347_rgbf000133-resize_2-target.png,1000,1.213,4.718,0,1807,501,1008,495,1008,492,feet,,,,,2445307,2581184,46
247847,DepthScenes,duration_discrimination,discrim_jsons/d0.json,http://54.173.234.186/DepthDuration/depth_discrimination_MTurk/DepthDiscrim_HTML.html#4,4,1876,886,1920,1080,6-19-2021,14-49-50,23,depth_discrimination_stimuli/000734_2014-06-08_17-39-11_260595134347_rgbf000128-resize_2/000734_2014-06-08_17-39-11_260595134347_rgbf000128-resize_2-target.png,depth_discrimination_stimuli/001148_2014-06-17_15-26-42_260595134347_rgbf000129-resize_0/001148_2014-06-17_15-26-42_260595134347_rgbf000129-resize_0-target.png,250,4.098,4.368,0,2077,502,249,500,264,486,feet,,,,,2445307,2581184,46
247847,DepthScenes,duration_discrimination,discrim_jsons/d0.json,http://54.173.234.186/DepthDuration/depth_discrimination_MTurk/DepthDiscrim_HTML.html#4,4,1876,886,1920,1080,6-19-2021,14-49-50,24,depth_discrimination_stimuli/002549_2014-06-24_13-41-39_094959634447_rgbf000022-resize_3/002549_2014-06-24_13-41-39_094959634447_rgbf000022-resize_3-target.png,depth_discrimination_stimuli/002545_2014-06-24_13-38-53_094959634447_rgbf000080-resize_4/002545_2014-06-24_13-38-53_094959634447_rgbf000080-resize_4-target.png,250,1.476,1.9205,1,1089,505,247,513,236,508,feet,,,,,2445307,2581184,46
247847,DepthScenes,duration_discrimination,discrim_jsons/d0.json,http://54.173.234.186/DepthDuration/depth_discrimination_MTurk/DepthDiscrim_HTML.html#4,4,1876,886,1920,1080,6-19-2021,14-49-50,25,depth_discrimination_stimuli/002657_2014-06-13_15-29-54_094959634447_rgbf000150-resize_1/002657_2014-06-13_15-29-54_094959634447_rgbf000150-resize_1-target.png,depth_discrimination_stimuli/002748_2014-06-22_19-07-22_094959634447_rgbf000078-resize_1/002748_2014-06-22_19-07-22_094959634447_rgbf000078-resize_1-target.png,250,4.919,4.6705,0,1528,513,248,496,247,510,feet,,,,,2445307,2581184,46
247847,DepthScenes,duration_discrimination,discrim_jsons/d0.json,http://54.173.234.186/DepthDuration/depth_discrimination_MTurk/DepthDiscrim_HTML.html#4,4,1876,886,1920,1080,6-19-2021,14-49-50,26,depth_discrimination_stimuli/002323_2014-06-28_20-01-54_260595134347_rgbf000051-resize_4/002323_2014-06-28_20-01-54_260595134347_rgbf000051-resize_4-target.png,depth_discrimination_stimuli/000736_2014-06-08_18-24-15_260595134347_rgbf000206-resize_3/000736_2014-06-08_18-24-15_260595134347_rgbf000206-resize_3-target.png,250,3.731,3.515,1,1493,501,250,514,235,510,feet,,,,,2445307,2581184,46
247847,DepthScenes,duration_discrimination,discrim_jsons/d0.json,http://54.173.234.186/DepthDuration/depth_discrimination_MTurk/DepthDiscrim_HTML.html#4,4,1876,886,1920,1080,6-19-2021,14-49-50,27,depth_discrimination_stimuli/000749_2014-06-08_21-55-06_260595134347_rgbf000070-resize_2/000749_2014-06-08_21-55-06_260595134347_rgbf000070-resize_2-target.png,depth_discrimination_stimuli/002875_2014-06-01_15-19-00_094959634447_rgbf000151-resize_1/002875_2014-06-01_15-19-00_094959634447_rgbf000151-resize_1-target.png,250,2.331,1.9675,0,1641,516,235,513,247,490,feet,,,,,2445307,2581184,46
247847,DepthScenes,duration_discrimination,discrim_jsons/d0.json,http://54.173.234.186/DepthDuration/depth_discrimination_MTurk/DepthDiscrim_HTML.html#4,4,1876,886,1920,1080,6-19-2021,14-49-50,28,depth_discrimination_stimuli/000735_2014-06-08_18-23-50_260595134347_rgbf000163-resize_2/000735_2014-06-08_18-23-50_260595134347_rgbf000163-resize_2-target.png,depth_discrimination_stimuli/003288_2014-05-14_21-50-30_094959634447_rgbf000028-resize_3/003288_2014-05-14_21-50-30_094959634447_rgbf000028-resize_3-target.png,250,4.1695,3.877,0,1553,504,247,505,247,498,feet,,,,,2445307,2581184,46
247847,DepthScenes,duration_discrimination,discrim_jsons/d0.json,http://54.173.234.186/DepthDuration/depth_discrimination_MTurk/DepthDiscrim_HTML.html#4,4,1876,886,1920,1080,6-19-2021,14-49-50,29,depth_discrimination_stimuli/002375_2014-06-28_20-13-44_260595134347_rgbf000032-resize_1/002375_2014-06-28_20-13-44_260595134347_rgbf000032-resize_1-target.png,depth_discrimination_stimuli/001570_2014-06-20_17-21-09_260595134347_rgbf000135-resize_4/001570_2014-06-20_17-21-09_260595134347_rgbf000135-resize_4-target.png,250,4.0175,4.467,0,1651,503,249,511,253,499,feet,,,,,2445307,2581184,46
247847,DepthScenes,duration_discrimination,discrim_jsons/d0.json,http://54.173.234.186/DepthDuration/depth_discrimination_MTurk/DepthDiscrim_HTML.html#4,4,1876,886,1920,1080,6-19-2021,14-49-50,30,depth_discrimination_stimuli/000457_2014-06-08_16-52-43_260595134347_rgbf000199-resize_1/000457_2014-06-08_16-52-43_260595134347_rgbf000199-resize_1-target.png,depth_discrimination_stimuli/002365_2014-06-28_20-11-21_260595134347_rgbf000102-resize_1/002365_2014-06-28_20-11-21_260595134347_rgbf000102-resize_1-target.png,1000,3.649,4.013,0,2257,513,1000,498,1001,488,feet,,,,,2445307,2581184,46
247847,DepthScenes,duration_discrimination,discrim_jsons/d0.json,http://54.173.234.186/DepthDuration/depth_discrimination_MTurk/DepthDiscrim_HTML.html#4,4,1876,886,1920,1080,6-19-2021,14-49-50,31,depth_discrimination_stimuli/002700_2014-06-22_11-27-02_094959634447_rgbf000124-resize_3/002700_2014-06-22_11-27-02_094959634447_rgbf000124-resize_3-target.png,depth_discrimination_stimuli/000800_2014-06-08_22-42-09_260595134347_rgbf000095-resize_3/000800_2014-06-08_22-42-09_260595134347_rgbf000095-resize_3-target.png,1000,3.301,2.8,0,2058,510,996,495,1002,500,feet,,,,,2445307,2581184,46
247847,DepthScenes,duration_discrimination,discrim_jsons/d0.json,http://54.173.234.186/DepthDuration/depth_discrimination_MTurk/DepthDiscrim_HTML.html#4,4,1876,886,1920,1080,6-19-2021,14-49-50,32,depth_discrimination_stimuli/001170_2014-06-17_15-43-44_260595134347_rgbf000096-resize_6/001170_2014-06-17_15-43-44_260595134347_rgbf000096-resize_6-target.png,depth_discrimination_stimuli/002364_2014-06-28_20-11-05_260595134347_rgbf000042-resize_0/002364_2014-06-28_20-11-05_260595134347_rgbf000042-resize_0-target.png,1000,1.191,4.682,0,1596,500,1010,497,999,496,feet,,,,,2445307,2581184,46
247847,DepthScenes,duration_discrimination,discrim_jsons/d0.json,http://54.173.234.186/DepthDuration/depth_discrimination_MTurk/DepthDiscrim_HTML.html#4,4,1876,886,1920,1080,6-19-2021,14-49-50,33,depth_discrimination_stimuli/001016_2014-06-09_16-16-10_260595134347_rgbf000112-resize_5/001016_2014-06-09_16-16-10_260595134347_rgbf000112-resize_5-target.png,depth_discrimination_stimuli/001618_2014-06-20_11-37-31_260595134347_rgbf000027-resize_3/001618_2014-06-20_11-37-31_260595134347_rgbf000027-resize_3-target.png,250,1.6565,1.8725,1,2227,503,251,497,251,510,feet,,,,,2445307,2581184,46
247847,DepthScenes,duration_discrimination,discrim_jsons/d0.json,http://54.173.234.186/DepthDuration/depth_discrimination_MTurk/DepthDiscrim_HTML.html#4,4,1876,886,1920,1080,6-19-2021,14-49-50,34,depth_discrimination_stimuli/003081_2014-06-15_15-19-16_094959634447_rgbf000150-resize_1/003081_2014-06-15_15-19-16_094959634447_rgbf000150-resize_1-target.png,depth_discrimination_stimuli/000917_2014-06-09_22-45-29_260595134347_rgbf000149-resize_3/000917_2014-06-09_22-45-29_260595134347_rgbf000149-resize_3-target.png,250,3.9125,4.1865,0,2981,510,251,500,248,492,feet,,,,,2445307,2581184,46
247847,DepthScenes,duration_discrimination,discrim_jsons/d0.json,http://54.173.234.186/DepthDuration/depth_discrimination_MTurk/DepthDiscrim_HTML.html#4,4,1876,886,1920,1080,6-19-2021,14-49-50,35,depth_discrimination_stimuli/001059_2014-06-08_21-53-27_260595134347_rgbf000061-resize_4/001059_2014-06-08_21-53-27_260595134347_rgbf000061-resize_4-target.png,depth_discrimination_stimuli/000906_2014-06-08_13-35-43_260595134347_rgbf000155-resize_1/000906_2014-06-08_13-35-43_260595134347_rgbf000155-resize_1-target.png,250,2.4185,2.849,0,1780,512,238,510,241,499,feet,,,,,2445307,2581184,46
247847,DepthScenes,duration_discrimination,discrim_jsons/d0.json,http://54.173.234.186/DepthDuration/depth_discrimination_MTurk/DepthDiscrim_HTML.html#4,4,1876,886,1920,1080,6-19-2021,14-49-50,36,depth_discrimination_stimuli/002988_2014-06-15_12-24-20_094959634447_rgbf000150-resize_1/002988_2014-06-15_12-24-20_094959634447_rgbf000150-resize_1-target.png,depth_discrimination_stimuli/000447_2014-06-08_16-15-46_260595134347_rgbf000130-resize_1/000447_2014-06-08_16-15-46_260595134347_rgbf000130-resize_1-target.png,1000,4.767,4.479,1,1752,501,1012,498,996,499,feet,,,,,2445307,2581184,46
247847,DepthScenes,duration_discrimination,discrim_jsons/d0.json,http://54.173.234.186/DepthDuration/depth_discrimination_MTurk/DepthDiscrim_HTML.html#4,4,1876,886,1920,1080,6-19-2021,14-49-50,37,depth_discrimination_stimuli/001164_2014-06-17_15-35-46_260595134347_rgbf000085-resize_3/001164_2014-06-17_15-35-46_260595134347_rgbf000085-resize_3-target.png,depth_discrimination_stimuli/003228_2014-05-14_13-42-35_094959634447_rgbf000101-resize_1/003228_2014-05-14_13-42-35_094959634447_rgbf000101-resize_1-target.png,250,2.354,1.968,0,2136,508,244,499,255,495,feet,,,,,2445307,2581184,46
247847,DepthScenes,duration_discrimination,discrim_jsons/d0.json,http://54.173.234.186/DepthDuration/depth_discrimination_MTurk/DepthDiscrim_HTML.html#4,4,1876,886,1920,1080,6-19-2021,14-49-50,38,depth_discrimination_stimuli/000739_2014-06-08_18-45-58_260595134347_rgbf000068-resize_1/000739_2014-06-08_18-45-58_260595134347_rgbf000068-resize_1-target.png,depth_discrimination_stimuli/002995_2014-06-15_12-31-26_094959634447_rgbf000150-resize_1/002995_2014-06-15_12-31-26_094959634447_rgbf000150-resize_1-target.png,1000,3.534,3.836,0,1519,515,998,497,992,499,feet,,,,,2445307,2581184,46
247847,DepthScenes,duration_discrimination,discrim_jsons/d0.json,http://54.173.234.186/DepthDuration/depth_discrimination_MTurk/DepthDiscrim_HTML.html#4,4,1876,886,1920,1080,6-19-2021,14-49-50,39,depth_discrimination_stimuli/001092_2014-06-15_17-34-58_260595134347_rgbf000171-resize_3/001092_2014-06-15_17-34-58_260595134347_rgbf000171-resize_3-target.png,depth_discrimination_stimuli/000522_2014-06-08_13-35-06_260595134347_rgbf000244-resize_1/000522_2014-06-08_13-35-06_260595134347_rgbf000244-resize_1-target.png,250,2.6935,2.3715,1,1687,515,250,486,262,488,feet,,,,,2445307,2581184,46
247847,DepthScenes,duration_discrimination,discrim_jsons/d0.json,http://54.173.234.186/DepthDuration/depth_discrimination_MTurk/DepthDiscrim_HTML.html#4,4,1876,886,1920,1080,6-19-2021,14-49-50,40,depth_discrimination_stimuli/003534_2014-05-22_15-06-10_094959634447_rgbf000102-resize_4/003534_2014-05-22_15-06-10_094959634447_rgbf000102-resize_4-target.png,depth_discrimination_stimuli/002272_2014-06-28_18-53-56_260595134347_rgbf000067-resize_2/002272_2014-06-28_18-53-56_260595134347_rgbf000067-resize_2-target.png,1000,1.426,1.138,1,2133,515,999,499,997,497,feet,,,,,2445307,2581184,46
247847,DepthScenes,duration_discrimination,discrim_jsons/d0.json,http://54.173.234.186/DepthDuration/depth_discrimination_MTurk/DepthDiscrim_HTML.html#4,4,1876,886,1920,1080,6-19-2021,14-49-50,41,depth_discrimination_stimuli/003546_2014-05-22_15-48-53_094959634447_rgbf004816-resize_3/003546_2014-05-22_15-48-53_094959634447_rgbf004816-resize_3-target.png,depth_discrimination_stimuli/003010_2014-06-15_12-54-35_094959634447_rgbf000112-resize_0/003010_2014-06-15_12-54-35_094959634447_rgbf000112-resize_0-target.png,1000,2.62625,3.1185,1,1728,513,997,491,1003,510,feet,,,,,2445307,2581184,46
247847,DepthScenes,duration_discrimination,discrim_jsons/d0.json,http://54.173.234.186/DepthDuration/depth_discrimination_MTurk/DepthDiscrim_HTML.html#4,4,1876,886,1920,1080,6-19-2021,14-49-50,42,depth_discrimination_stimuli/002953_2014-06-08_17-32-18_094959634447_rgbf000059-resize_5/002953_2014-06-08_17-32-18_094959634447_rgbf000059-resize_5-target.png,depth_discrimination_stimuli/001571_2014-06-20_17-21-32_260595134347_rgbf000089-resize_1/001571_2014-06-20_17-21-32_260595134347_rgbf000089-resize_1-target.png,1000,1.551,1.86,0,2065,504,998,499,1010,496,feet,,,,,2445307,2581184,46
247847,DepthScenes,duration_discrimination,discrim_jsons/d0.json,http://54.173.234.186/DepthDuration/depth_discrimination_MTurk/DepthDiscrim_HTML.html#4,4,1876,886,1920,1080,6-19-2021,14-49-50,43,depth_discrimination_stimuli/000682_2014-06-08_23-14-58_260595134347_rgbf000041-resize_5/000682_2014-06-08_23-14-58_260595134347_rgbf000041-resize_5-target.png,depth_discrimination_stimuli/000866_2014-06-09_20-45-42_260595134347_rgbf000139-resize_1/000866_2014-06-09_20-45-42_260595134347_rgbf000139-resize_1-target.png,250,2.724,3.2155,0,5027,516,249,500,236,513,feet,,,,,2445307,2581184,46
247847,DepthScenes,duration_discrimination,discrim_jsons/d0.json,http://54.173.234.186/DepthDuration/depth_discrimination_MTurk/DepthDiscrim_HTML.html#4,4,1876,886,1920,1080,6-19-2021,14-49-50,44,depth_discrimination_stimuli/002989_2014-06-15_12-25-03_094959634447_rgbf000150-resize_3/002989_2014-06-15_12-25-03_094959634447_rgbf000150-resize_3-target.png,depth_discrimination_stimuli/001724_2014-06-26_19-28-50_260595134347_rgbf000037-resize_7/001724_2014-06-26_19-28-50_260595134347_rgbf000037-resize_7-target.png,1000,4.1975,3.827,0,2260,516,990,495,1012,499,feet,,,,,2445307,2581184,46
247847,DepthScenes,duration_discrimination,discrim_jsons/d0.json,http://54.173.234.186/DepthDuration/depth_discrimination_MTurk/DepthDiscrim_HTML.html#4,4,1876,886,1920,1080,6-19-2021,14-49-50,45,depth_discrimination_stimuli/001264_2014-06-16_16-10-23_260595134347_rgbf000109-resize_1/001264_2014-06-16_16-10-23_260595134347_rgbf000109-resize_1-target.png,depth_discrimination_stimuli/002340_2014-06-28_20-05-46_260595134347_rgbf000113-resize_0/002340_2014-06-28_20-05-46_260595134347_rgbf000113-resize_0-target.png,1000,2.9665,2.4735,1,2282,501,1012,496,998,498,feet,,,,,2445307,2581184,46
247847,DepthScenes,duration_discrimination,discrim_jsons/d0.json,http://54.173.234.186/DepthDuration/depth_discrimination_MTurk/DepthDiscrim_HTML.html#4,4,1876,886,1920,1080,6-19-2021,14-49-50,46,depth_discrimination_stimuli/002118_2014-06-25_20-32-08_260595134347_rgbf000078-resize_1/002118_2014-06-25_20-32-08_260595134347_rgbf000078-resize_1-target.png,depth_discrimination_stimuli/000542_2014-06-08_18-27-08_260595134347_rgbf000118-resize_1/000542_2014-06-08_18-27-08_260595134347_rgbf000118-resize_1-target.png,1000,2.646,3,0,2026,512,997,501,1001,497,feet,,,,,2445307,2581184,46
247847,DepthScenes,duration_discrimination,discrim_jsons/d0.json,http://54.173.234.186/DepthDuration/depth_discrimination_MTurk/DepthDiscrim_HTML.html#4,4,1876,886,1920,1080,6-19-2021,14-49-50,47,depth_discrimination_stimuli/000569_2014-06-09_22-51-47_260595134347_rgbf000141-resize_3/000569_2014-06-09_22-51-47_260595134347_rgbf000141-resize_3-target.png,depth_discrimination_stimuli/000868_2014-06-09_20-49-52_260595134347_rgbf000064-resize_4/000868_2014-06-09_20-49-52_260595134347_rgbf000064-resize_4-target.png,250,4.512,1.2815,1,1284,503,263,486,257,498,feet,,,,,2445307,2581184,46
247847,DepthScenes,duration_discrimination,discrim_jsons/d0.json,http://54.173.234.186/DepthDuration/depth_discrimination_MTurk/DepthDiscrim_HTML.html#4,4,1876,886,1920,1080,6-19-2021,14-49-50,48,depth_discrimination_stimuli/000665_2014-06-09_20-42-35_260595134347_rgbf000110-resize_1/000665_2014-06-09_20-42-35_260595134347_rgbf000110-resize_1-target.png,depth_discrimination_stimuli/001214_2014-06-17_16-13-55_260595134347_rgbf000111-resize_0/001214_2014-06-17_16-13-55_260595134347_rgbf000111-resize_0-target.png,250,3.057,2.6505,0,1627,511,239,512,238,502,feet,,,,,2445307,2581184,46
247847,DepthScenes,duration_discrimination,discrim_jsons/d0.json,http://54.173.234.186/DepthDuration/depth_discrimination_MTurk/DepthDiscrim_HTML.html#4,4,1876,886,1920,1080,6-19-2021,14-49-50,49,depth_discrimination_stimuli/000753_2014-06-08_21-57-44_260595134347_rgbf000123-resize_3/000753_2014-06-08_21-57-44_260595134347_rgbf000123-resize_3-target.png,depth_discrimination_stimuli/003092_2014-06-24_21-01-49_094959634447_rgbf000049-resize_2/003092_2014-06-24_21-01-49_094959634447_rgbf000049-resize_2-target.png,1000,1.916,1.666,1,1526,508,997,495,1004,509,feet,,,,,2445307,2581184,46
247847,DepthScenes,duration_discrimination,discrim_jsons/d0.json,http://54.173.234.186/DepthDuration/depth_discrimination_MTurk/DepthDiscrim_HTML.html#4,4,1876,886,1920,1080,6-19-2021,14-49-50,50,depth_discrimination_stimuli/000780_2014-06-08_22-28-29_260595134347_rgbf000126-resize_1/000780_2014-06-08_22-28-29_260595134347_rgbf000126-resize_1-target.png,depth_discrimination_stimuli/000191_2014-05-12_17-07-38_260595134347_rgbf000199-resize_0/000191_2014-05-12_17-07-38_260595134347_rgbf000199-resize_0-target.png,1000,3.3825,3.7995,0,1925,502,1012,494,995,499,feet,,,,,2445307,2581184,46
247847,DepthScenes,duration_discrimination,discrim_jsons/d0.json,http://54.173.234.186/DepthDuration/depth_discrimination_MTurk/DepthDiscrim_HTML.html#4,4,1876,886,1920,1080,6-19-2021,14-49-50,51,depth_discrimination_stimuli/000720_2014-06-08_18-37-27_260595134347_rgbf000203-resize_4/000720_2014-06-08_18-37-27_260595134347_rgbf000203-resize_4-target.png,depth_discrimination_stimuli/002637_2014-06-24_14-51-13_094959634447_rgbf000066-resize_4/002637_2014-06-24_14-51-13_094959634447_rgbf000066-resize_4-target.png,1000,1.558,1.9955,0,1913,516,995,499,997,498,feet,,,,,2445307,2581184,46
247847,DepthScenes,duration_discrimination,discrim_jsons/d0.json,http://54.173.234.186/DepthDuration/depth_discrimination_MTurk/DepthDiscrim_HTML.html#4,4,1876,886,1920,1080,6-19-2021,14-49-50,52,depth_discrimination_stimuli/000929_2014-06-09_16-33-19_260595134347_rgbf000139-resize_0/000929_2014-06-09_16-33-19_260595134347_rgbf000139-resize_0-target.png,depth_discrimination_stimuli/000830_2014-06-04_19-49-31_260595134347_rgbf000096-resize_2/000830_2014-06-04_19-49-31_260595134347_rgbf000096-resize_2-target.png,250,2.868,2.6353333333333,1,1507,501,263,499,250,499,feet,,,,,2445307,2581184,46
247847,DepthScenes,duration_discrimination,discrim_jsons/d0.json,http://54.173.234.186/DepthDuration/depth_discrimination_MTurk/DepthDiscrim_HTML.html#4,4,1876,886,1920,1080,6-19-2021,14-49-50,53,depth_discrimination_stimuli/000549_2014-06-08_22-10-24_260595134347_rgbf000247-resize_3/000549_2014-06-08_22-10-24_260595134347_rgbf000247-resize_3-target.png,depth_discrimination_stimuli/002139_2014-06-25_21-19-37_260595134347_rgbf000124-resize_2/002139_2014-06-25_21-19-37_260595134347_rgbf000124-resize_2-target.png,250,1.841,2.107,0,2037,503,248,504,247,515,feet,,,,,2445307,2581184,46
247847,DepthScenes,duration_discrimination,discrim_jsons/d0.json,http://54.173.234.186/DepthDuration/depth_discrimination_MTurk/DepthDiscrim_HTML.html#4,4,1876,886,1920,1080,6-19-2021,14-49-50,54,depth_discrimination_stimuli/001617_2014-06-20_11-35-32_260595134347_rgbf000066-resize_1/001617_2014-06-20_11-35-32_260595134347_rgbf000066-resize_1-target.png,depth_discrimination_stimuli/001133_2014-06-17_14-49-16_260595134347_rgbf000100-resize_0/001133_2014-06-17_14-49-16_260595134347_rgbf000100-resize_0-target.png,1000,3.791,4.2115,0,1499,513,1001,496,994,497,feet,,,,,2445307,2581184,46
247847,DepthScenes,duration_discrimination,discrim_jsons/d0.json,http://54.173.234.186/DepthDuration/depth_discrimination_MTurk/DepthDiscrim_HTML.html#4,4,1876,886,1920,1080,6-19-2021,14-49-50,55,depth_discrimination_stimuli/003292_2014-05-14_21-53-49_094959634447_rgbf000100-resize_2/003292_2014-05-14_21-53-49_094959634447_rgbf000100-resize_2-target.png,depth_discrimination_stimuli/002805_2014-06-22_19-54-03_094959634447_rgbf000079-resize_1/002805_2014-06-22_19-54-03_094959634447_rgbf000079-resize_1-target.png,1000,3.4815,3.144,0,1964,504,1009,488,1008,497,feet,,,,,2445307,2581184,46
247847,DepthScenes,duration_discrimination,discrim_jsons/d0.json,http://54.173.234.186/DepthDuration/depth_discrimination_MTurk/DepthDiscrim_HTML.html#4,4,1876,886,1920,1080,6-19-2021,14-49-50,56,depth_discrimination_stimuli/001417_2014-06-19_16-25-36_260595134347_rgbf000115-resize_5/001417_2014-06-19_16-25-36_260595134347_rgbf000115-resize_5-target.png,depth_discrimination_stimuli/003083_2014-06-15_15-21-03_094959634447_rgbf000063-resize_1/003083_2014-06-15_15-21-03_094959634447_rgbf000063-resize_1-target.png,250,4.6255,4.1405,0,1529,507,244,505,250,495,feet,,,,,2445307,2581184,46
247847,DepthScenes,duration_discrimination,discrim_jsons/d0.json,http://54.173.234.186/DepthDuration/depth_discrimination_MTurk/DepthDiscrim_HTML.html#4,4,1876,886,1920,1080,6-19-2021,14-49-50,57,depth_discrimination_stimuli/003070_2014-06-15_14-58-27_094959634447_rgbf000150-resize_3/003070_2014-06-15_14-58-27_094959634447_rgbf000150-resize_3-target.png,depth_discrimination_stimuli/000758_2014-06-08_22-05-08_260595134347_rgbf000085-resize_0/000758_2014-06-08_22-05-08_260595134347_rgbf000085-resize_0-target.png,1000,2.9415,3.381,1,1573,513,1000,499,992,500,feet,,,,,2445307,2581184,46
247847,DepthScenes,duration_discrimination,discrim_jsons/d0.json,http://54.173.234.186/DepthDuration/depth_discrimination_MTurk/DepthDiscrim_HTML.html#4,4,1876,886,1920,1080,6-19-2021,14-49-50,58,depth_discrimination_stimuli/001235_2014-06-17_16-37-36_260595134347_rgbf000084-resize_4/001235_2014-06-17_16-37-36_260595134347_rgbf000084-resize_4-target.png,depth_discrimination_stimuli/003423_2014-05-21_10-23-26_094959634447_rgbf002665-resize_2/003423_2014-05-21_10-23-26_094959634447_rgbf002665-resize_2-target.png,1000,3.6605,3.2575,0,1886,503,1005,498,1008,488,feet,,,,,2445307,2581184,46
247847,DepthScenes,duration_discrimination,discrim_jsons/d0.json,http://54.173.234.186/DepthDuration/depth_discrimination_MTurk/DepthDiscrim_HTML.html#4,4,1876,886,1920,1080,6-19-2021,14-49-50,59,depth_discrimination_stimuli/002660_2014-06-13_15-44-18_094959634447_rgbf001878-resize_2/002660_2014-06-13_15-44-18_094959634447_rgbf001878-resize_2-target.png,depth_discrimination_stimuli/000009_2014-05-26_14-32-05_260595134347_rgbf000034-resize_3/000009_2014-05-26_14-32-05_260595134347_rgbf000034-resize_3-target.png,1000,3.576,3.8715,0,2787,508,996,502,1002,496,feet,,,,,2445307,2581184,46
247847,DepthScenes,duration_discrimination,discrim_jsons/d0.json,http://54.173.234.186/DepthDuration/depth_discrimination_MTurk/DepthDiscrim_HTML.html#4,4,1876,886,1920,1080,6-19-2021,14-49-50,60,depth_discrimination_stimuli/000642_2014-06-08_16-59-25_260595134347_rgbf000098-resize_2/000642_2014-06-08_16-59-25_260595134347_rgbf000098-resize_2-target.png,depth_discrimination_stimuli/001815_2014-06-26_20-52-55_260595134347_rgbf000020-resize_0/001815_2014-06-26_20-52-55_260595134347_rgbf000020-resize_0-target.png,1000,2.8815,3.3865,0,3783,505,1010,499,994,498,feet,,,,,2445307,2581184,46
247847,DepthScenes,duration_discrimination,discrim_jsons/d0.json,http://54.173.234.186/DepthDuration/depth_discrimination_MTurk/DepthDiscrim_HTML.html#4,4,1876,886,1920,1080,6-19-2021,14-49-50,61,depth_discrimination_stimuli/001289_2014-06-16_16-25-52_260595134347_rgbf000067-resize_1/001289_2014-06-16_16-25-52_260595134347_rgbf000067-resize_1-target.png,depth_discrimination_stimuli/002788_2014-06-22_19-36-03_094959634447_rgbf000088-resize_2/002788_2014-06-22_19-36-03_094959634447_rgbf000088-resize_2-target.png,1000,1.8835,1.6465,0,2128,513,1000,496,994,500,feet,,,,,2445307,2581184,46
247847,DepthScenes,duration_discrimination,discrim_jsons/d0.json,http://54.173.234.186/DepthDuration/depth_discrimination_MTurk/DepthDiscrim_HTML.html#4,4,1876,886,1920,1080,6-19-2021,14-49-50,62,depth_discrimination_stimuli/000953_2014-06-08_11-42-19_260595134347_rgbf000083-resize_0/000953_2014-06-08_11-42-19_260595134347_rgbf000083-resize_0-target.png,depth_discrimination_stimuli/000787_2014-06-08_22-33-53_260595134347_rgbf000175-resize_1/000787_2014-06-08_22-33-53_260595134347_rgbf000175-resize_1-target.png,1000,1.369,4.784,0,1895,514,996,499,999,493,feet,,,,,2445307,2581184,46
247847,DepthScenes,duration_discrimination,discrim_jsons/d0.json,http://54.173.234.186/DepthDuration/depth_discrimination_MTurk/DepthDiscrim_HTML.html#4,4,1876,886,1920,1080,6-19-2021,14-49-50,63,depth_discrimination_stimuli/002199_2014-06-28_18-33-56_260595134347_rgbf000074-resize_0/002199_2014-06-28_18-33-56_260595134347_rgbf000074-resize_0-target.png,depth_discrimination_stimuli/000368_2014-06-09_15-53-01_260595134347_rgbf000155-resize_2/000368_2014-06-09_15-53-01_260595134347_rgbf000155-resize_2-target.png,250,1.996,2.486,0,1577,502,249,509,250,497,feet,,,,,2445307,2581184,46
247847,DepthScenes,duration_discrimination,discrim_jsons/d0.json,http://54.173.234.186/DepthDuration/depth_discrimination_MTurk/DepthDiscrim_HTML.html#4,4,1876,886,1920,1080,6-19-2021,14-49-50,64,depth_discrimination_stimuli/001810_2014-06-26_20-51-35_260595134347_rgbf000040-resize_3/001810_2014-06-26_20-51-35_260595134347_rgbf000040-resize_3-target.png,depth_discrimination_stimuli/000927_2014-06-09_16-32-30_260595134347_rgbf000123-resize_3/000927_2014-06-09_16-32-30_260595134347_rgbf000123-resize_3-target.png,250,2.2525,2.6785,0,1601,506,245,507,248,495,feet,,,,,2445307,2581184,46
247847,DepthScenes,duration_discrimination,discrim_jsons/d0.json,http://54.173.234.186/DepthDuration/depth_discrimination_MTurk/DepthDiscrim_HTML.html#4,4,1876,886,1920,1080,6-19-2021,14-49-50,65,depth_discrimination_stimuli/001199_2014-06-17_16-03-48_260595134347_rgbf000077-resize_0/001199_2014-06-17_16-03-48_260595134347_rgbf000077-resize_0-target.png,depth_discrimination_stimuli/001029_2014-06-08_13-17-57_260595134347_rgbf000065-resize_1/001029_2014-06-08_13-17-57_260595134347_rgbf000065-resize_1-target.png,250,3.4375,3.0835,1,829,502,250,511,250,497,feet,,,,,2445307,2581184,46
247847,DepthScenes,duration_discrimination,discrim_jsons/d0.json,http://54.173.234.186/DepthDuration/depth_discrimination_MTurk/DepthDiscrim_HTML.html#4,4,1876,886,1920,1080,6-19-2021,14-49-50,66,depth_discrimination_stimuli/002425_2014-06-28_20-27-29_260595134347_rgbf000031-resize_8/002425_2014-06-28_20-27-29_260595134347_rgbf000031-resize_8-target.png,depth_discrimination_stimuli/001181_2014-06-17_15-50-57_260595134347_rgbf000106-resize_4/001181_2014-06-17_15-50-57_260595134347_rgbf000106-resize_4-target.png,250,3.896,4.149,0,1456,511,240,499,250,507,feet,,,,,2445307,2581184,46
247847,DepthScenes,duration_discrimination,discrim_jsons/d0.json,http://54.173.234.186/DepthDuration/depth_discrimination_MTurk/DepthDiscrim_HTML.html#4,4,1876,886,1920,1080,6-19-2021,14-49-50,67,depth_discrimination_stimuli/000521_2014-06-08_13-34-35_260595134347_rgbf000191-resize_2/000521_2014-06-08_13-34-35_260595134347_rgbf000191-resize_2-target.png,depth_discrimination_stimuli/000788_2014-06-08_22-34-36_260595134347_rgbf000131-resize_1/000788_2014-06-08_22-34-36_260595134347_rgbf000131-resize_1-target.png,250,3.0385,3.359,0,2423,504,259,497,249,495,feet,,,,,2445307,2581184,46
247847,DepthScenes,duration_discrimination,discrim_jsons/d0.json,http://54.173.234.186/DepthDuration/depth_discrimination_MTurk/DepthDiscrim_HTML.html#4,4,1876,886,1920,1080,6-19-2021,14-49-50,68,depth_discrimination_stimuli/002568_2014-06-24_13-59-21_094959634447_rgbf000062-resize_4/002568_2014-06-24_13-59-21_094959634447_rgbf000062-resize_4-target.png,depth_discrimination_stimuli/000636_2014-06-08_16-39-02_260595134347_rgbf000108-resize_4/000636_2014-06-08_16-39-02_260595134347_rgbf000108-resize_4-target.png,250,3.015,2.682,1,931,503,249,507,241,500,feet,,,,,2445307,2581184,46
247847,DepthScenes,duration_discrimination,discrim_jsons/d0.json,http://54.173.234.186/DepthDuration/depth_discrimination_MTurk/DepthDiscrim_HTML.html#4,4,1876,886,1920,1080,6-19-2021,14-49-50,69,depth_discrimination_stimuli/001498_2014-06-19_17-45-14_260595134347_rgbf000129-resize_4/001498_2014-06-19_17-45-14_260595134347_rgbf000129-resize_4-target.png,depth_discrimination_stimuli/003125_2014-05-12_10-39-22_094959634447_rgbf000100-resize_0/003125_2014-05-12_10-39-22_094959634447_rgbf000100-resize_0-target.png,250,1.4075,4.8655,0,1295,505,246,504,248,512,feet,,,,,2445307,2581184,46
247847,DepthScenes,duration_discrimination,discrim_jsons/d0.json,http://54.173.234.186/DepthDuration/depth_discrimination_MTurk/DepthDiscrim_HTML.html#4,4,1876,886,1920,1080,6-19-2021,14-49-50,70,depth_discrimination_stimuli/001167_2014-06-17_15-38-07_260595134347_rgbf000108-resize_0/001167_2014-06-17_15-38-07_260595134347_rgbf000108-resize_0-target.png,depth_discrimination_stimuli/003495_2014-05-21_16-01-51_094959634447_rgbf000100-resize_3/003495_2014-05-21_16-01-51_094959634447_rgbf000100-resize_3-target.png,250,1.8505,1.6255,0,2333,504,251,496,250,511,feet,,,,,2445307,2581184,46
247847,DepthScenes,duration_discrimination,discrim_jsons/d0.json,http://54.173.234.186/DepthDuration/depth_discrimination_MTurk/DepthDiscrim_HTML.html#4,4,1876,886,1920,1080,6-19-2021,14-49-50,71,depth_discrimination_stimuli/000869_2014-06-09_20-50-18_260595134347_rgbf000060-resize_3/000869_2014-06-09_20-50-18_260595134347_rgbf000060-resize_3-target.png,depth_discrimination_stimuli/001136_2014-06-17_15-19-41_260595134347_rgbf000076-resize_3/001136_2014-06-17_15-19-41_260595134347_rgbf000076-resize_3-target.png,250,2.266,1.8655,1,1721,506,246,513,235,511,feet,,,,,2445307,2581184,46
247847,DepthScenes,duration_discrimination,discrim_jsons/d0.json,http://54.173.234.186/DepthDuration/depth_discrimination_MTurk/DepthDiscrim_HTML.html#4,4,1876,886,1920,1080,6-19-2021,14-49-50,72,depth_discrimination_stimuli/000878_2014-06-08_22-52-45_260595134347_rgbf000045-resize_2/000878_2014-06-08_22-52-45_260595134347_rgbf000045-resize_2-target.png,depth_discrimination_stimuli/003338_2014-05-20_11-01-23_094959634447_rgbf000051-resize_6/003338_2014-05-20_11-01-23_094959634447_rgbf000051-resize_6-target.png,1000,2.092,1.693,0,2435,508,995,497,1007,499,feet,,,,,2445307,2581184,46
247847,DepthScenes,duration_discrimination,discrim_jsons/d0.json,http://54.173.234.186/DepthDuration/depth_discrimination_MTurk/DepthDiscrim_HTML.html#4,4,1876,886,1920,1080,6-19-2021,14-49-50,73,depth_discrimination_stimuli/002750_2014-06-22_19-08-03_094959634447_rgbf000094-resize_4/002750_2014-06-22_19-08-03_094959634447_rgbf000094-resize_4-target.png,depth_discrimination_stimuli/001188_2014-06-17_15-54-10_260595134347_rgbf000090-resize_2/001188_2014-06-17_15-54-10_260595134347_rgbf000090-resize_2-target.png,250,2.354,2.744,1,1479,500,253,498,261,498,feet,,,,,2445307,2581184,46
247847,DepthScenes,duration_discrimination,discrim_jsons/d0.json,http://54.173.234.186/DepthDuration/depth_discrimination_MTurk/DepthDiscrim_HTML.html#4,4,1876,886,1920,1080,6-19-2021,14-49-50,74,depth_discrimination_stimuli/000740_2014-06-08_18-46-23_260595134347_rgbf000049-resize_6/000740_2014-06-08_18-46-23_260595134347_rgbf000049-resize_6-target.png,depth_discrimination_stimuli/002905_2014-06-03_18-04-43_094959634447_rgbf000151-resize_2/002905_2014-06-03_18-04-43_094959634447_rgbf000151-resize_2-target.png,1000,1.687,2.0295,1,1994,513,996,500,1003,499,feet,,,,,2445307,2581184,46
247847,DepthScenes,duration_discrimination,discrim_jsons/d0.json,http://54.173.234.186/DepthDuration/depth_discrimination_MTurk/DepthDiscrim_HTML.html#4,4,1876,886,1920,1080,6-19-2021,14-49-50,75,depth_discrimination_stimuli/000483_2014-06-09_20-41-45_260595134347_rgbf000116-resize_4/000483_2014-06-09_20-41-45_260595134347_rgbf000116-resize_4-target.png,depth_discrimination_stimuli/002964_2014-06-08_17-46-11_094959634447_rgbf000091-resize_4/002964_2014-06-08_17-46-11_094959634447_rgbf000091-resize_4-target.png,250,1.337,1.691,0,1084,503,253,499,249,501,feet,,,,,2445307,2581184,46
247847,DepthScenes,duration_discrimination,discrim_jsons/d0.json,http://54.173.234.186/DepthDuration/depth_discrimination_MTurk/DepthDiscrim_HTML.html#4,4,1876,886,1920,1080,6-19-2021,14-49-50,76,depth_discrimination_stimuli/000103_2014-05-14_22-01-17_260595134347_rgbf000152-resize_5/000103_2014-05-14_22-01-17_260595134347_rgbf000152-resize_5-target.png,depth_discrimination_stimuli/000810_2014-06-08_17-20-01_260595134347_rgbf000105-resize_0/000810_2014-06-08_17-20-01_260595134347_rgbf000105-resize_0-target.png,1000,1.993,1.4865,1,1680,507,994,513,998,501,feet,,,,,2445307,2581184,46
247847,DepthScenes,duration_discrimination,discrim_jsons/d0.json,http://54.173.234.186/DepthDuration/depth_discrimination_MTurk/DepthDiscrim_HTML.html#4,4,1876,886,1920,1080,6-19-2021,14-49-50,77,depth_discrimination_stimuli/001056_2014-06-08_18-46-44_260595134347_rgbf000068-resize_0/001056_2014-06-08_18-46-44_260595134347_rgbf000068-resize_0-target.png,depth_discrimination_stimuli/003079_2014-06-15_15-18-20_094959634447_rgbf000152-resize_8/003079_2014-06-15_15-18-20_094959634447_rgbf000152-resize_8-target.png,250,2.6625,2.8775,1,1175,503,248,510,240,504,feet,,,,,2445307,2581184,46
247847,DepthScenes,duration_discrimination,discrim_jsons/d0.json,http://54.173.234.186/DepthDuration/depth_discrimination_MTurk/DepthDiscrim_HTML.html#4,4,1876,886,1920,1080,6-19-2021,14-49-50,78,depth_discrimination_stimuli/001110_2014-06-15_17-25-28_260595134347_rgbf000150-resize_1/001110_2014-06-15_17-25-28_260595134347_rgbf000150-resize_1-target.png,depth_discrimination_stimuli/000555_2014-06-09_22-42-23_260595134347_rgbf000037-resize_4/000555_2014-06-09_22-42-23_260595134347_rgbf000037-resize_4-target.png,250,1.7115,1.9765,0,2137,506,250,505,247,493,feet,,,,,2445307,2581184,46
247847,DepthScenes,duration_discrimination,discrim_jsons/d0.json,http://54.173.234.186/DepthDuration/depth_discrimination_MTurk/DepthDiscrim_HTML.html#4,4,1876,886,1920,1080,6-19-2021,14-49-50,79,depth_discrimination_stimuli/000677_2014-06-08_23-10-32_260595134347_rgbf000158-resize_6/000677_2014-06-08_23-10-32_260595134347_rgbf000158-resize_6-target.png,depth_discrimination_stimuli/001150_2014-06-17_15-27-34_260595134347_rgbf000108-resize_2/001150_2014-06-17_15-27-34_260595134347_rgbf000108-resize_2-target.png,250,3.556,4.0325,0,1841,501,250,513,237,514,feet,,,,,2445307,2581184,46
247847,DepthScenes,duration_discrimination,discrim_jsons/d0.json,http://54.173.234.186/DepthDuration/depth_discrimination_MTurk/DepthDiscrim_HTML.html#4,4,1876,886,1920,1080,6-19-2021,14-49-50,80,depth_discrimination_stimuli/002414_2014-06-28_20-24-58_260595134347_rgbf000067-resize_4/002414_2014-06-28_20-24-58_260595134347_rgbf000067-resize_4-target.png,depth_discrimination_stimuli/001828_2014-06-26_21-40-03_260595134347_rgbf000024-resize_0/001828_2014-06-26_21-40-03_260595134347_rgbf000024-resize_0-target.png,1000,4.363,4.826,1,2087,508,994,512,990,499,feet,,,,,2445307,2581184,46
247847,DepthScenes,duration_discrimination,discrim_jsons/d0.json,http://54.173.234.186/DepthDuration/depth_discrimination_MTurk/DepthDiscrim_HTML.html#4,4,1876,886,1920,1080,6-19-2021,14-49-50,81,depth_discrimination_stimuli/001244_2014-06-17_16-47-45_260595134347_rgbf000030-resize_4/001244_2014-06-17_16-47-45_260595134347_rgbf000030-resize_4-target.png,depth_discrimination_stimuli/002763_2014-06-22_19-13-10_094959634447_rgbf000075-resize_4/002763_2014-06-22_19-13-10_094959634447_rgbf000075-resize_4-target.png,1000,2.0425,1.68375,1,1767,508,997,500,998,497,feet,,,,,2445307,2581184,46
247847,DepthScenes,duration_discrimination,discrim_jsons/d0.json,http://54.173.234.186/DepthDuration/depth_discrimination_MTurk/DepthDiscrim_HTML.html#4,4,1876,886,1920,1080,6-19-2021,14-49-50,82,depth_discrimination_stimuli/000505_2014-06-08_23-03-23_260595134347_rgbf000091-resize_0/000505_2014-06-08_23-03-23_260595134347_rgbf000091-resize_0-target.png,depth_discrimination_stimuli/002057_2014-06-24_21-00-13_260595134347_rgbf000120-resize_1/002057_2014-06-24_21-00-13_260595134347_rgbf000120-resize_1-target.png,1000,3.3105,2.967,0,2814,506,1000,495,1015,486,feet,,,,,2445307,2581184,46
247847,DepthScenes,duration_discrimination,discrim_jsons/d0.json,http://54.173.234.186/DepthDuration/depth_discrimination_MTurk/DepthDiscrim_HTML.html#4,4,1876,886,1920,1080,6-19-2021,14-49-50,83,depth_discrimination_stimuli/001392_2014-06-19_16-07-59_260595134347_rgbf000046-resize_1/001392_2014-06-19_16-07-59_260595134347_rgbf000046-resize_1-target.png,depth_discrimination_stimuli/003490_2014-05-21_15-50-11_094959634447_rgbf000101-resize_3/003490_2014-05-21_15-50-11_094959634447_rgbf000101-resize_3-target.png,1000,4.135,3.6445,0,1880,502,1014,500,998,499,feet,,,,,2445307,2581184,46
247847,DepthScenes,duration_discrimination,discrim_jsons/d0.json,http://54.173.234.186/DepthDuration/depth_discrimination_MTurk/DepthDiscrim_HTML.html#4,4,1876,886,1920,1080,6-19-2021,14-49-50,84,depth_discrimination_stimuli/000502_2014-06-08_23-02-32_260595134347_rgbf000063-resize_4/000502_2014-06-08_23-02-32_260595134347_rgbf000063-resize_4-target.png,depth_discrimination_stimuli/002987_2014-06-08_18-48-20_094959634447_rgbf000022-resize_0/002987_2014-06-08_18-48-20_094959634447_rgbf000022-resize_0-target.png,1000,2.431,2.6775,0,3526,502,1013,485,1008,499,feet,,,,,2445307,2581184,46
247847,DepthScenes,duration_discrimination,discrim_jsons/d0.json,http://54.173.234.186/DepthDuration/depth_discrimination_MTurk/DepthDiscrim_HTML.html#4,4,1876,886,1920,1080,6-19-2021,14-49-50,85,depth_discrimination_stimuli/002675_2014-06-13_16-08-49_094959634447_rgbf000151-resize_2/002675_2014-06-13_16-08-49_094959634447_rgbf000151-resize_2-target.png,depth_discrimination_stimuli/001222_2014-06-17_16-24-06_260595134347_rgbf000073-resize_0/001222_2014-06-17_16-24-06_260595134347_rgbf000073-resize_0-target.png,1000,4.5065,1.4385,1,1588,515,988,499,1005,494,feet,,,,,2445307,2581184,46
247847,DepthScenes,duration_discrimination,discrim_jsons/d0.json,http://54.173.234.186/DepthDuration/depth_discrimination_MTurk/DepthDiscrim_HTML.html#4,4,1876,886,1920,1080,6-19-2021,14-49-50,86,depth_discrimination_stimuli/001158_2014-06-17_15-32-16_260595134347_rgbf000138-resize_2/001158_2014-06-17_15-32-16_260595134347_rgbf000138-resize_2-target.png,depth_discrimination_stimuli/003492_2014-05-21_15-50-55_094959634447_rgbf000828-resize_1/003492_2014-05-21_15-50-55_094959634447_rgbf000828-resize_1-target.png,250,4.5315,4.06875,0,2124,505,249,502,252,493,feet,,,,,2445307,2581184,46
247847,DepthScenes,duration_discrimination,discrim_jsons/d0.json,http://54.173.234.186/DepthDuration/depth_discrimination_MTurk/DepthDiscrim_HTML.html#4,4,1876,886,1920,1080,6-19-2021,14-49-50,87,depth_discrimination_stimuli/000773_2014-06-08_22-24-54_260595134347_rgbf000093-resize_1/000773_2014-06-08_22-24-54_260595134347_rgbf000093-resize_1-target.png,depth_discrimination_stimuli/000742_2014-06-08_18-48-09_260595134347_rgbf000164-resize_4/000742_2014-06-08_18-48-09_260595134347_rgbf000164-resize_4-target.png,250,4.973,4.632,0,1585,506,245,502,248,499,feet,,,,,2445307,2581184,46
247847,DepthScenes,duration_discrimination,discrim_jsons/d0.json,http://54.173.234.186/DepthDuration/depth_discrimination_MTurk/DepthDiscrim_HTML.html#4,4,1876,886,1920,1080,6-19-2021,14-49-50,88,depth_discrimination_stimuli/000854_2014-06-09_19-43-13_260595134347_rgbf000066-resize_0/000854_2014-06-09_19-43-13_260595134347_rgbf000066-resize_0-target.png,depth_discrimination_stimuli/002758_2014-06-22_19-11-20_094959634447_rgbf000128-resize_1/002758_2014-06-22_19-11-20_094959634447_rgbf000128-resize_1-target.png,1000,3.068,2.555,1,2106,500,1003,497,1014,498,feet,,,,,2445307,2581184,46
247847,DepthScenes,duration_discrimination,discrim_jsons/d0.json,http://54.173.234.186/DepthDuration/depth_discrimination_MTurk/DepthDiscrim_HTML.html#4,4,1876,886,1920,1080,6-19-2021,14-49-50,89,depth_discrimination_stimuli/001055_2014-06-08_18-45-35_260595134347_rgbf000111-resize_4/001055_2014-06-08_18-45-35_260595134347_rgbf000111-resize_4-target.png,depth_discrimination_stimuli/002209_2014-06-28_18-36-10_260595134347_rgbf000051-resize_1/002209_2014-06-28_18-36-10_260595134347_rgbf000051-resize_1-target.png,250,2.429,2.057,0,1779,506,250,497,248,503,feet,,,,,2445307,2581184,46
247847,DepthScenes,duration_discrimination,discrim_jsons/d0.json,http://54.173.234.186/DepthDuration/depth_discrimination_MTurk/DepthDiscrim_HTML.html#4,4,1876,886,1920,1080,6-19-2021,14-49-50,90,depth_discrimination_stimuli/000414_2014-06-04_19-49-13_260595134347_rgbf000044-resize_0/000414_2014-06-04_19-49-13_260595134347_rgbf000044-resize_0-target.png,depth_discrimination_stimuli/002663_2014-06-13_15-50-26_094959634447_rgbf000075-resize_1/002663_2014-06-13_15-50-26_094959634447_rgbf000075-resize_1-target.png,1000,4.329,4.7495,1,2100,509,993,498,1008,498,feet,,,,,2445307,2581184,46
247847,DepthScenes,duration_discrimination,discrim_jsons/d0.json,http://54.173.234.186/DepthDuration/depth_discrimination_MTurk/DepthDiscrim_HTML.html#4,4,1876,886,1920,1080,6-19-2021,14-49-50,91,depth_discrimination_stimuli/002725_2014-06-22_11-47-51_094959634447_rgbf000070-resize_1/002725_2014-06-22_11-47-51_094959634447_rgbf000070-resize_1-target.png,depth_discrimination_stimuli/002153_2014-06-25_21-27-18_260595134347_rgbf000038-resize_5/002153_2014-06-25_21-27-18_260595134347_rgbf000038-resize_5-target.png,1000,2.195,2.505,1,1531,513,998,491,1006,498,feet,,,,,2445307,2581184,46
247847,DepthScenes,duration_discrimination,discrim_jsons/d0.json,http://54.173.234.186/DepthDuration/depth_discrimination_MTurk/DepthDiscrim_HTML.html#4,4,1876,886,1920,1080,6-19-2021,14-49-50,92,depth_discrimination_stimuli/002570_2014-06-24_13-59-54_094959634447_rgbf000059-resize_0/002570_2014-06-24_13-59-54_094959634447_rgbf000059-resize_0-target.png,depth_discrimination_stimuli/001584_2014-06-20_11-07-43_260595134347_rgbf000002-resize_1/001584_2014-06-20_11-07-43_260595134347_rgbf000002-resize_1-target.png,250,4.037,3.53,1,1398,515,235,501,259,500,feet,,,,,2445307,2581184,46
247847,DepthScenes,duration_discrimination,discrim_jsons/d0.json,http://54.173.234.186/DepthDuration/depth_discrimination_MTurk/DepthDiscrim_HTML.html#4,4,1876,886,1920,1080,6-19-2021,14-49-50,93,depth_discrimination_stimuli/002072_2014-06-24_21-48-06_260595134347_rgbf000115-resize_0/002072_2014-06-24_21-48-06_260595134347_rgbf000115-resize_0-target.png,depth_discrimination_stimuli/001012_2014-06-08_23-19-38_260595134347_rgbf000057-resize_0/001012_2014-06-08_23-19-38_260595134347_rgbf000057-resize_0-target.png,250,4.702,1.38325,1,2007,514,237,512,250,497,feet,,,,,2445307,2581184,46
247847,DepthScenes,duration_discrimination,discrim_jsons/d0.json,http://54.173.234.186/DepthDuration/depth_discrimination_MTurk/DepthDiscrim_HTML.html#4,4,1876,886,1920,1080,6-19-2021,14-49-50,94,depth_discrimination_stimuli/000470_2014-06-09_19-42-40_260595134347_rgbf000094-resize_1/000470_2014-06-09_19-42-40_260595134347_rgbf000094-resize_1-target.png,depth_discrimination_stimuli/000109_2014-05-14_23-41-52_260595134347_rgbf000035-resize_9/000109_2014-05-14_23-41-52_260595134347_rgbf000035-resize_9-target.png,1000,1.831,1.3545,0,1781,501,1015,497,999,489,feet,,,,,2445307,2581184,46
247847,DepthScenes,duration_discrimination,discrim_jsons/d0.json,http://54.173.234.186/DepthDuration/depth_discrimination_MTurk/DepthDiscrim_HTML.html#4,4,1876,886,1920,1080,6-19-2021,14-49-50,95,depth_discrimination_stimuli/001011_2014-06-08_23-18-54_260595134347_rgbf000044-resize_4/001011_2014-06-08_23-18-54_260595134347_rgbf000044-resize_4-target.png,depth_discrimination_stimuli/002678_2014-06-13_16-15-32_094959634447_rgbf000151-resize_6/002678_2014-06-13_16-15-32_094959634447_rgbf000151-resize_6-target.png,1000,2.473,2.183,1,1685,510,996,496,1012,496,feet,,,,,2445307,2581184,46
247847,DepthScenes,duration_discrimination,discrim_jsons/d0.json,http://54.173.234.186/DepthDuration/depth_discrimination_MTurk/DepthDiscrim_HTML.html#4,4,1876,886,1920,1080,6-19-2021,14-49-50,96,depth_discrimination_stimuli/001032_2014-06-08_13-23-17_260595134347_rgbf000021-resize_3/001032_2014-06-08_13-23-17_260595134347_rgbf000021-resize_3-target.png,depth_discrimination_stimuli/002790_2014-06-22_19-36-35_094959634447_rgbf000074-resize_4/002790_2014-06-22_19-36-35_094959634447_rgbf000074-resize_4-target.png,1000,3.2725,3.512,0,1919,510,994,497,1000,500,feet,,,,,2445307,2581184,46
247847,DepthScenes,duration_discrimination,discrim_jsons/d0.json,http://54.173.234.186/DepthDuration/depth_discrimination_MTurk/DepthDiscrim_HTML.html#4,4,1876,886,1920,1080,6-19-2021,14-49-50,96,,,,,,,1919,510,994,497,1000,500,feet,,,,,2445307,2581184,46
247847,DepthScenes,duration_discrimination,discrim_jsons/d0.json,http://54.173.234.186/DepthDuration/depth_discrimination_MTurk/DepthDiscrim_HTML.html#4,4,1859,886,1920,1080,6-19-2021,14-49-50,98,,,,,,,1919,510,994,497,1000,500,feet,3,4,depth_discrimination_stimuli/002784_2014-06-22_19-26-30_094959634447_rgbf000083-resize_3/002784_2014-06-22_19-26-30_094959634447_rgbf000083-resize-original.jpg,18176,2445307,2581184,46
247847,DepthScenes,duration_discrimination,discrim_jsons/d0.json,http://54.173.234.186/DepthDuration/depth_discrimination_MTurk/DepthDiscrim_HTML.html#4,4,1859,886,1920,1080,6-19-2021,14-49-50,99,,,,,,,1919,510,994,497,1000,500,feet,3,5,depth_discrimination_stimuli/000927_2014-06-09_16-32-30_260595134347_rgbf000123-resize_3/000927_2014-06-09_16-32-30_260595134347_rgbf000123-resize-original.jpg,4700,2445307,2581184,46
247847,DepthScenes,duration_discrimination,discrim_jsons/d0.json,http://54.173.234.186/DepthDuration/depth_discrimination_MTurk/DepthDiscrim_HTML.html#4,4,1859,886,1920,1080,6-19-2021,14-49-50,100,,,,,,,1919,510,994,497,1000,500,feet,2,3,depth_discrimination_stimuli/000009_2014-05-26_14-32-05_260595134347_rgbf000034-resize_3/000009_2014-05-26_14-32-05_260595134347_rgbf000034-resize-original.jpg,6616,2445307,2581184,46
247847,DepthScenes,duration_discrimination,discrim_jsons/d0.json,http://54.173.234.186/DepthDuration/depth_discrimination_MTurk/DepthDiscrim_HTML.html#4,4,1859,886,1920,1080,6-19-2021,14-49-50,101,,,,,,,1919,510,994,497,1000,500,feet,3,2,depth_discrimination_stimuli/002375_2014-06-28_20-13-44_260595134347_rgbf000032-resize_1/002375_2014-06-28_20-13-44_260595134347_rgbf000032-resize-original.jpg,15290,2445307,2581184,46
247847,DepthScenes,duration_discrimination,discrim_jsons/d0.json,http://54.173.234.186/DepthDuration/depth_discrimination_MTurk/DepthDiscrim_HTML.html#4,4,1859,886,1920,1080,6-19-2021,14-49-50,102,,,,,,,1919,510,994,497,1000,500,feet,3,2,depth_discrimination_stimuli/001199_2014-06-17_16-03-48_260595134347_rgbf000077-resize_0/001199_2014-06-17_16-03-48_260595134347_rgbf000077-resize-original.jpg,2429,2445307,2581184,46
247847,DepthScenes,duration_discrimination,discrim_jsons/d0.json,http://54.173.234.186/DepthDuration/depth_discrimination_MTurk/DepthDiscrim_HTML.html#4,4,1859,886,1920,1080,6-19-2021,14-49-50,103,,,,,,,1919,510,994,497,1000,500,feet,3,4,depth_discrimination_stimuli/001555_2014-06-20_17-12-10_260595134347_rgbf000065-resize_4/001555_2014-06-20_17-12-10_260595134347_rgbf000065-resize-original.jpg,6079,2445307,2581184,46
247847,DepthScenes,duration_discrimination,discrim_jsons/d0.json,http://54.173.234.186/DepthDuration/depth_discrimination_MTurk/DepthDiscrim_HTML.html#4,4,1859,886,1920,1080,6-19-2021,14-49-50,104,,,,,,,1919,510,994,497,1000,500,feet,4,2,depth_discrimination_stimuli/000735_2014-06-08_18-23-50_260595134347_rgbf000163-resize_2/000735_2014-06-08_18-23-50_260595134347_rgbf000163-resize-original.jpg,31232,2445307,2581184,46
247847,DepthScenes,duration_discrimination,discrim_jsons/d0.json,http://54.173.234.186/DepthDuration/depth_discrimination_MTurk/DepthDiscrim_HTML.html#4,4,1859,886,1920,1080,6-19-2021,14-49-50,105,,,,,,,1919,510,994,497,1000,500,feet,2,2,depth_discrimination_stimuli/003621_2014-05-23_18-06-08_094959634447_rgbf000101-resize_1/003621_2014-05-23_18-06-08_094959634447_rgbf000101-resize-original.jpg,344312,2445307,2581184,46
247847,DepthScenes,duration_discrimination,discrim_jsons/d0.json,http://54.173.234.186/DepthDuration/depth_discrimination_MTurk/DepthDiscrim_HTML.html#4,4,1859,886,1920,1080,6-19-2021,14-49-50,106,,,,,,,1919,510,994,497,1000,500,feet,3,3,depth_discrimination_stimuli/003292_2014-05-14_21-53-49_094959634447_rgbf000100-resize_2/003292_2014-05-14_21-53-49_094959634447_rgbf000100-resize-original.jpg,4222,2445307,2581184,46
247847,DepthScenes,duration_discrimination,discrim_jsons/d0.json,http://54.173.234.186/DepthDuration/depth_discrimination_MTurk/DepthDiscrim_HTML.html#4,4,1859,886,1920,1080,6-19-2021,14-49-50,107,,,,,,,1919,510,994,497,1000,500,feet,3,4,depth_discrimination_stimuli/000493_2014-06-09_21-01-18_260595134347_rgbf000196-resize_3/000493_2014-06-09_21-01-18_260595134347_rgbf000196-resize-original.jpg,3093,2445307,2581184,46
247847,DepthScenes,duration_discrimination,discrim_jsons/d0.json,http://54.173.234.186/DepthDuration/depth_discrimination_MTurk/DepthDiscrim_HTML.html#4,4,1859,886,1920,1080,6-19-2021,14-49-50,108,,,,,,,1919,510,994,497,1000,500,feet,2,2,depth_discrimination_stimuli/002213_2014-06-28_18-37-58_260595134347_rgbf000055-resize_1/002213_2014-06-28_18-37-58_260595134347_rgbf000055-resize-original.jpg,5037,2445307,2581184,46
247847,DepthScenes,duration_discrimination,discrim_jsons/d0.json,http://54.173.234.186/DepthDuration/depth_discrimination_MTurk/DepthDiscrim_HTML.html#4,4,1859,886,1920,1080,6-19-2021,14-49-50,109,,,,,,,1919,510,994,497,1000,500,feet,1,4,depth_discrimination_stimuli/000103_2014-05-14_22-01-17_260595134347_rgbf000152-resize_5/000103_2014-05-14_22-01-17_260595134347_rgbf000152-resize-original.jpg,7154,2445307,2581184,46
247847,DepthScenes,duration_discrimination,discrim_jsons/d0.json,http://54.173.234.186/DepthDuration/depth_discrimination_MTurk/DepthDiscrim_HTML.html#4,4,1859,886,1920,1080,6-19-2021,14-49-50,110,,,,,,,1919,510,994,497,1000,500,feet,3,3,depth_discrimination_stimuli/000742_2014-06-08_18-48-09_260595134347_rgbf000164-resize_4/000742_2014-06-08_18-48-09_260595134347_rgbf000164-resize-original.jpg,12805,2445307,2581184,46
247847,DepthScenes,duration_discrimination,discrim_jsons/d0.json,http://54.173.234.186/DepthDuration/depth_discrimination_MTurk/DepthDiscrim_HTML.html#4,4,1859,886,1920,1080,6-19-2021,14-49-50,111,,,,,,,1919,510,994,497,1000,500,feet,2,4,depth_discrimination_stimuli/001815_2014-06-26_20-52-55_260595134347_rgbf000020-resize_0/001815_2014-06-26_20-52-55_260595134347_rgbf000020-resize-original.jpg,9800,2445307,2581184,46
247847,DepthScenes,duration_discrimination,discrim_jsons/d0.json,http://54.173.234.186/DepthDuration/depth_discrimination_MTurk/DepthDiscrim_HTML.html#4,4,1859,886,1920,1080,6-19-2021,14-49-50,112,,,,,,,1919,510,994,497,1000,500,feet,5,1,depth_discrimination_stimuli/002988_2014-06-15_12-24-20_094959634447_rgbf000150-resize_1/002988_2014-06-15_12-24-20_094959634447_rgbf000150-resize-original.jpg,6169,2445307,2581184,46
247847,DepthScenes,duration_discrimination,discrim_jsons/d0.json,http://54.173.234.186/DepthDuration/depth_discrimination_MTurk/DepthDiscrim_HTML.html#4,4,1859,886,1920,1080,6-19-2021,14-49-50,113,,,,,,,1919,510,994,497,1000,500,feet,3,4,depth_discrimination_stimuli/000906_2014-06-08_13-35-43_260595134347_rgbf000155-resize_1/000906_2014-06-08_13-35-43_260595134347_rgbf000155-resize-original.jpg,13232,2445307,2581184,46
247847,DepthScenes,duration_discrimination,discrim_jsons/d0.json,http://54.173.234.186/DepthDuration/depth_discrimination_MTurk/DepthDiscrim_HTML.html#4,4,1859,886,1920,1080,6-19-2021,14-49-50,114,,,,,,,1919,510,994,497,1000,500,feet,3,2,depth_discrimination_stimuli/002700_2014-06-22_11-27-02_094959634447_rgbf000124-resize_3/002700_2014-06-22_11-27-02_094959634447_rgbf000124-resize-original.jpg,4356,2445307,2581184,46
247847,DepthScenes,duration_discrimination,discrim_jsons/d0.json,http://54.173.234.186/DepthDuration/depth_discrimination_MTurk/DepthDiscrim_HTML.html#4,4,1859,886,1920,1080,6-19-2021,14-49-50,115,,,,,,,1919,510,994,497,1000,500,feet,3,2,depth_discrimination_stimuli/000740_2014-06-08_18-46-23_260595134347_rgbf000049-resize_6/000740_2014-06-08_18-46-23_260595134347_rgbf000049-resize-original.jpg,3203,2445307,2581184,46
247847,DepthScenes,duration_discrimination,discrim_jsons/d0.json,http://54.173.234.186/DepthDuration/depth_discrimination_MTurk/DepthDiscrim_HTML.html#4,4,1859,886,1920,1080,6-19-2021,14-49-50,116,,,,,,,1919,510,994,497,1000,500,feet,4,2,depth_discrimination_stimuli/000749_2014-06-08_21-55-06_260595134347_rgbf000070-resize_2/000749_2014-06-08_21-55-06_260595134347_rgbf000070-resize-original.jpg,6842,2445307,2581184,46
247847,DepthScenes,duration_discrimination,discrim_jsons/d0.json,http://54.173.234.186/DepthDuration/depth_discrimination_MTurk/DepthDiscrim_HTML.html#4,4,1859,886,1920,1080,6-19-2021,14-49-50,117,,,,,,,1919,510,994,497,1000,500,feet,3,3,depth_discrimination_stimuli/001806_2014-06-26_20-50-20_260595134347_rgbf000091-resize_1/001806_2014-06-26_20-50-20_260595134347_rgbf000091-resize-original.jpg,3769,2445307,2581184,46
247847,DepthScenes,duration_discrimination,discrim_jsons/d0.json,http://54.173.234.186/DepthDuration/depth_discrimination_MTurk/DepthDiscrim_HTML.html#4,4,1859,886,1920,1080,6-19-2021,14-49-50,118,,,,,,,1919,510,994,497,1000,500,feet,3,2,depth_discrimination_stimuli/000137_2014-05-20_17-04-49_260595134347_rgbf000120-resize_1/000137_2014-05-20_17-04-49_260595134347_rgbf000120-resize-original.jpg,11392,2445307,2581184,46
247847,DepthScenes,duration_discrimination,discrim_jsons/d0.json,http://54.173.234.186/DepthDuration/depth_discrimination_MTurk/DepthDiscrim_HTML.html#4,4,1859,886,1920,1080,6-19-2021,14-49-50,119,,,,,,,1919,510,994,497,1000,500,feet,4,3,depth_discrimination_stimuli/000800_2014-06-08_22-42-09_260595134347_rgbf000095-resize_3/000800_2014-06-08_22-42-09_260595134347_rgbf000095-resize-original.jpg,16240,2445307,2581184,46
247847,DepthScenes,duration_discrimination,discrim_jsons/d0.json,http://54.173.234.186/DepthDuration/depth_discrimination_MTurk/DepthDiscrim_HTML.html#4,4,1859,886,1920,1080,6-19-2021,14-49-50,120,,,,,,,1919,510,994,497,1000,500,feet,4,2,depth_discrimination_stimuli/000692_2014-06-08_13-09-42_260595134347_rgbf000199-resize_2/000692_2014-06-08_13-09-42_260595134347_rgbf000199-resize-original.jpg,6484,2445307,2581184,46
247847,DepthScenes,duration_discrimination,discrim_jsons/d0.json,http://54.173.234.186/DepthDuration/depth_discrimination_MTurk/DepthDiscrim_HTML.html#4,4,1859,886,1920,1080,6-19-2021,14-49-50,121,,,,,,,1919,510,994,497,1000,500,feet,5,1,depth_discrimination_stimuli/002875_2014-06-01_15-19-00_094959634447_rgbf000151-resize_1/002875_2014-06-01_15-19-00_094959634447_rgbf000151-resize-original.jpg,3453,2445307,2581184,46
247847,DepthScenes,duration_discrimination,discrim_jsons/d0.json,http://54.173.234.186/DepthDuration/depth_discrimination_MTurk/DepthDiscrim_HTML.html#4,4,1859,886,1920,1080,6-19-2021,14-49-50,122,,,,,,,1919,510,994,497,1000,500,feet,3,2,depth_discrimination_stimuli/000929_2014-06-09_16-33-19_260595134347_rgbf000139-resize_0/000929_2014-06-09_16-33-19_260595134347_rgbf000139-resize-original.jpg,46025,2445307,2581184,46
247847,DepthScenes,duration_discrimination,discrim_jsons/d0.json,http://54.173.234.186/DepthDuration/depth_discrimination_MTurk/DepthDiscrim_HTML.html#4,4,1859,886,1920,1080,6-19-2021,14-49-50,123,,,,,,,1919,510,994,497,1000,500,feet,2,2,depth_discrimination_stimuli/002758_2014-06-22_19-11-20_094959634447_rgbf000128-resize_1/002758_2014-06-22_19-11-20_094959634447_rgbf000128-resize-original.jpg,5259,2445307,2581184,46
247847,DepthScenes,duration_discrimination,discrim_jsons/d0.json,http://54.173.234.186/DepthDuration/depth_discrimination_MTurk/DepthDiscrim_HTML.html#4,4,1859,886,1920,1080,6-19-2021,14-49-50,124,,,,,,,1919,510,994,497,1000,500,feet,4,5,depth_discrimination_stimuli/001244_2014-06-17_16-47-45_260595134347_rgbf000030-resize_4/001244_2014-06-17_16-47-45_260595134347_rgbf000030-resize-original.jpg,3722,2445307,2581184,46
247847,DepthScenes,duration_discrimination,discrim_jsons/d0.json,http://54.173.234.186/DepthDuration/depth_discrimination_MTurk/DepthDiscrim_HTML.html#4,4,1859,886,1920,1080,6-19-2021,14-49-50,125,,,,,,,1919,510,994,497,1000,500,feet,3,4,depth_discrimination_stimuli/002678_2014-06-13_16-15-32_094959634447_rgbf000151-resize_6/002678_2014-06-13_16-15-32_094959634447_rgbf000151-resize-original.jpg,4012,2445307,2581184,46
247847,DepthScenes,duration_discrimination,discrim_jsons/d0.json,http://54.173.234.186/DepthDuration/depth_discrimination_MTurk/DepthDiscrim_HTML.html#4,4,1859,886,1920,1080,6-19-2021,14-49-50,126,,,,,,,1919,510,994,497,1000,500,feet,2,5,depth_discrimination_stimuli/002570_2014-06-24_13-59-54_094959634447_rgbf000059-resize_0/002570_2014-06-24_13-59-54_094959634447_rgbf000059-resize-original.jpg,9998,2445307,2581184,46
247847,DepthScenes,duration_discrimination,discrim_jsons/d0.json,http://54.173.234.186/DepthDuration/depth_discrimination_MTurk/DepthDiscrim_HTML.html#4,4,1859,886,1920,1080,6-19-2021,14-49-50,127,,,,,,,1919,510,994,497,1000,500,feet,3,2,depth_discrimination_stimuli/001094_2014-06-15_17-36-00_260595134347_rgbf000205-resize_0/001094_2014-06-15_17-36-00_260595134347_rgbf000205-resize-original.jpg,5650,2445307,2581184,46
247847,DepthScenes,duration_discrimination,discrim_jsons/d0.json,http://54.173.234.186/DepthDuration/depth_discrimination_MTurk/DepthDiscrim_HTML.html#4,4,1859,886,1920,1080,6-19-2021,14-49-50,128,,,,,,,1919,510,994,497,1000,500,feet,3,4,depth_discrimination_stimuli/000810_2014-06-08_17-20-01_260595134347_rgbf000105-resize_0/000810_2014-06-08_17-20-01_260595134347_rgbf000105-resize-original.jpg,4710,2445307,2581184,46
247847,DepthScenes,duration_discrimination,discrim_jsons/d0.json,http://54.173.234.186/DepthDuration/depth_discrimination_MTurk/DepthDiscrim_HTML.html#4,4,1859,886,1920,1080,6-19-2021,14-49-50,129,,,,,,,1919,510,994,497,1000,500,feet,3,3,depth_discrimination_stimuli/000780_2014-06-08_22-28-29_260595134347_rgbf000126-resize_1/000780_2014-06-08_22-28-29_260595134347_rgbf000126-resize-original.jpg,2725,2445307,2581184,46
247847,DepthScenes,duration_discrimination,discrim_jsons/d0.json,http://54.173.234.186/DepthDuration/depth_discrimination_MTurk/DepthDiscrim_HTML.html#4,4,1859,886,1920,1080,6-19-2021,14-49-50,130,,,,,,,1919,510,994,497,1000,500,feet,3,2,depth_discrimination_stimuli/000878_2014-06-08_22-52-45_260595134347_rgbf000045-resize_2/000878_2014-06-08_22-52-45_260595134347_rgbf000045-resize-original.jpg,40315,2445307,2581184,46
247847,DepthScenes,duration_discrimination,discrim_jsons/d0.json,http://54.173.234.186/DepthDuration/depth_discrimination_MTurk/DepthDiscrim_HTML.html#4,4,1859,886,1920,1080,6-19-2021,14-49-50,131,,,,,,,1919,510,994,497,1000,500,feet,4,4,depth_discrimination_stimuli/000191_2014-05-12_17-07-38_260595134347_rgbf000199-resize_0/000191_2014-05-12_17-07-38_260595134347_rgbf000199-resize-original.jpg,9136,2445307,2581184,46
247847,DepthScenes,duration_discrimination,discrim_jsons/d0.json,http://54.173.234.186/DepthDuration/depth_discrimination_MTurk/DepthDiscrim_HTML.html#4,4,1859,886,1920,1080,6-19-2021,14-49-50,132,,,,,,,1919,510,994,497,1000,500,feet,3,3,depth_discrimination_stimuli/000414_2014-06-04_19-49-13_260595134347_rgbf000044-resize_0/000414_2014-06-04_19-49-13_260595134347_rgbf000044-resize-original.jpg,6095,2445307,2581184,46
247847,DepthScenes,duration_discrimination,discrim_jsons/d0.json,http://54.173.234.186/DepthDuration/depth_discrimination_MTurk/DepthDiscrim_HTML.html#4,4,1859,886,1920,1080,6-19-2021,14-49-50,133,,,,,,,1919,510,994,497,1000,500,feet,1,5,depth_discrimination_stimuli/003083_2014-06-15_15-21-03_094959634447_rgbf000063-resize_1/003083_2014-06-15_15-21-03_094959634447_rgbf000063-resize-original.jpg,8943,2445307,2581184,46
247847,DepthScenes,duration_discrimination,discrim_jsons/d0.json,http://54.173.234.186/DepthDuration/depth_discrimination_MTurk/DepthDiscrim_HTML.html#4,4,1859,886,1920,1080,6-19-2021,14-49-50,134,,,,,,,1919,510,994,497,1000,500,feet,3,2,depth_discrimination_stimuli/003228_2014-05-14_13-42-35_094959634447_rgbf000101-resize_1/003228_2014-05-14_13-42-35_094959634447_rgbf000101-resize-original.jpg,4144,2445307,2581184,46
247847,DepthScenes,duration_discrimination,discrim_jsons/d0.json,http://54.173.234.186/DepthDuration/depth_discrimination_MTurk/DepthDiscrim_HTML.html#4,4,1859,886,1920,1080,6-19-2021,14-49-50,135,,,,,,,1919,510,994,497,1000,500,feet,3,2,depth_discrimination_stimuli/002660_2014-06-13_15-44-18_094959634447_rgbf001878-resize_2/002660_2014-06-13_15-44-18_094959634447_rgbf001878-resize-original.jpg,5501,2445307,2581184,46
247847,DepthScenes,duration_discrimination,discrim_jsons/d0.json,http://54.173.234.186/DepthDuration/depth_discrimination_MTurk/DepthDiscrim_HTML.html#4,4,1859,886,1920,1080,6-19-2021,14-49-50,136,,,,,,,1919,510,994,497,1000,500,feet,3,2,depth_discrimination_stimuli/001167_2014-06-17_15-38-07_260595134347_rgbf000108-resize_0/001167_2014-06-17_15-38-07_260595134347_rgbf000108-resize-original.jpg,8171,2445307,2581184,46
247847,DepthScenes,duration_discrimination,discrim_jsons/d0.json,http://54.173.234.186/DepthDuration/depth_discrimination_MTurk/DepthDiscrim_HTML.html#4,4,1859,886,1920,1080,6-19-2021,14-49-50,137,,,,,,,1919,510,994,497,1000,500,feet,4,2,depth_discrimination_stimuli/002995_2014-06-15_12-31-26_094959634447_rgbf000150-resize_1/002995_2014-06-15_12-31-26_094959634447_rgbf000150-resize-original.jpg,5213,2445307,2581184,46
247847,DepthScenes,duration_discrimination,discrim_jsons/d0.json,http://54.173.234.186/DepthDuration/depth_discrimination_MTurk/DepthDiscrim_HTML.html#4,4,1859,886,1920,1080,6-19-2021,14-49-50,138,,,,,,,1919,510,994,497,1000,500,feet,3,3,depth_discrimination_stimuli/002209_2014-06-28_18-36-10_260595134347_rgbf000051-resize_1/002209_2014-06-28_18-36-10_260595134347_rgbf000051-resize-original.jpg,10371,2445307,2581184,46
247847,DepthScenes,duration_discrimination,discrim_jsons/d0.json,http://54.173.234.186/DepthDuration/depth_discrimination_MTurk/DepthDiscrim_HTML.html#4,4,1859,886,1920,1080,6-19-2021,14-49-50,139,,,,,,,1919,510,994,497,1000,500,feet,5,1,depth_discrimination_stimuli/003070_2014-06-15_14-58-27_094959634447_rgbf000150-resize_3/003070_2014-06-15_14-58-27_094959634447_rgbf000150-resize-original.jpg,152362,2445307,2581184,46
247847,DepthScenes,duration_discrimination,discrim_jsons/d0.json,http://54.173.234.186/DepthDuration/depth_discrimination_MTurk/DepthDiscrim_HTML.html#4,4,1859,886,1920,1080,6-19-2021,14-49-50,140,,,,,,,1919,510,994,497,1000,500,feet,4,2,depth_discrimination_stimuli/002630_2014-06-24_14-47-50_094959634447_rgbf000055-resize_1/002630_2014-06-24_14-47-50_094959634447_rgbf000055-resize-original.jpg,4998,2445307,2581184,46
247847,DepthScenes,duration_discrimination,discrim_jsons/d0.json,http://54.173.234.186/DepthDuration/depth_discrimination_MTurk/DepthDiscrim_HTML.html#4,4,1859,886,1920,1080,6-19-2021,14-49-50,141,,,,,,,1919,510,994,497,1000,500,feet,4,2,depth_discrimination_stimuli/003495_2014-05-21_16-01-51_094959634447_rgbf000100-resize_3/003495_2014-05-21_16-01-51_094959634447_rgbf000100-resize-original.jpg,2972,2445307,2581184,46
247847,DepthScenes,duration_discrimination,discrim_jsons/d0.json,http://54.173.234.186/DepthDuration/depth_discrimination_MTurk/DepthDiscrim_HTML.html#4,4,1859,886,1920,1080,6-19-2021,14-49-50,142,,,,,,,1919,510,994,497,1000,500,feet,3,4,depth_discrimination_stimuli/002750_2014-06-22_19-08-03_094959634447_rgbf000094-resize_4/002750_2014-06-22_19-08-03_094959634447_rgbf000094-resize-original.jpg,5432,2445307,2581184,46
247847,DepthScenes,duration_discrimination,discrim_jsons/d0.json,http://54.173.234.186/DepthDuration/depth_discrimination_MTurk/DepthDiscrim_HTML.html#4,4,1859,886,1920,1080,6-19-2021,14-49-50,143,,,,,,,1919,510,994,497,1000,500,feet,3,1,depth_discrimination_stimuli/001055_2014-06-08_18-45-35_260595134347_rgbf000111-resize_4/001055_2014-06-08_18-45-35_260595134347_rgbf000111-resize-original.jpg,7770,2445307,2581184,46
247847,DepthScenes,duration_discrimination,discrim_jsons/d0.json,http://54.173.234.186/DepthDuration/depth_discrimination_MTurk/DepthDiscrim_HTML.html#4,4,1859,886,1920,1080,6-19-2021,14-49-50,144,,,,,,,1919,510,994,497,1000,500,feet,2,3,depth_discrimination_stimuli/001724_2014-06-26_19-28-50_260595134347_rgbf000037-resize_7/001724_2014-06-26_19-28-50_260595134347_rgbf000037-resize-original.jpg,11341,2445307,2581184,46
247847,DepthScenes,duration_discrimination,discrim_jsons/d0.json,http://54.173.234.186/DepthDuration/depth_discrimination_MTurk/DepthDiscrim_HTML.html#4,4,1859,886,1920,1080,6-19-2021,14-49-50,145,,,,,,,1919,510,994,497,1000,500,feet,2,4,depth_discrimination_stimuli/001136_2014-06-17_15-19-41_260595134347_rgbf000076-resize_3/001136_2014-06-17_15-19-41_260595134347_rgbf000076-resize-original.jpg,19406,2445307,2581184,46
247847,DepthScenes,duration_discrimination,discrim_jsons/d0.json,http://54.173.234.186/DepthDuration/depth_discrimination_MTurk/DepthDiscrim_HTML.html#4,4,1859,886,1920,1080,6-19-2021,14-49-50,146,,,,,,,1919,510,994,497,1000,500,feet,3,4,depth_discrimination_stimuli/002545_2014-06-24_13-38-53_094959634447_rgbf000080-resize_4/002545_2014-06-24_13-38-53_094959634447_rgbf000080-resize-original.jpg,10486,2445307,2581184,46
247847,DepthScenes,duration_discrimination,discrim_jsons/d0.json,http://54.173.234.186/DepthDuration/depth_discrimination_MTurk/DepthDiscrim_HTML.html#4,4,1859,886,1920,1080,6-19-2021,14-49-50,147,,,,,,,1919,510,994,497,1000,500,feet,3,1,depth_discrimination_stimuli/001417_2014-06-19_16-25-36_260595134347_rgbf000115-resize_5/001417_2014-06-19_16-25-36_260595134347_rgbf000115-resize-original.jpg,5367,2445307,2581184,46
247847,DepthScenes,duration_discrimination,discrim_jsons/d0.json,http://54.173.234.186/DepthDuration/depth_discrimination_MTurk/DepthDiscrim_HTML.html#4,4,1859,886,1920,1080,6-19-2021,14-49-50,148,,,,,,,1919,510,994,497,1000,500,feet,2,3,depth_discrimination_stimuli/001571_2014-06-20_17-21-32_260595134347_rgbf000089-resize_1/001571_2014-06-20_17-21-32_260595134347_rgbf000089-resize-original.jpg,6281,2445307,2581184,46
247847,DepthScenes,duration_discrimination,discrim_jsons/d0.json,http://54.173.234.186/DepthDuration/depth_discrimination_MTurk/DepthDiscrim_HTML.html#4,4,1859,886,1920,1080,6-19-2021,14-49-50,149,,,,,,,1919,510,994,497,1000,500,feet,2,3,depth_discrimination_stimuli/000436_2014-06-09_22-25-11_260595134347_rgbf000137-resize_1/000436_2014-06-09_22-25-11_260595134347_rgbf000137-resize-original.jpg,9649,2445307,2581184,46
247847,DepthScenes,duration_discrimination,discrim_jsons/d0.json,http://54.173.234.186/DepthDuration/depth_discrimination_MTurk/DepthDiscrim_HTML.html#4,4,1859,886,1920,1080,6-19-2021,14-49-50,150,,,,,,,1919,510,994,497,1000,500,feet,2,4,depth_discrimination_stimuli/002103_2014-06-25_20-00-40_260595134347_rgbf000049-resize_0/002103_2014-06-25_20-00-40_260595134347_rgbf000049-resize-original.jpg,6822,2445307,2581184,46
247847,DepthScenes,duration_discrimination,discrim_jsons/d0.json,http://54.173.234.186/DepthDuration/depth_discrimination_MTurk/DepthDiscrim_HTML.html#4,4,1859,886,1920,1080,6-19-2021,14-49-50,151,,,,,,,1919,510,994,497,1000,500,feet,3,3,depth_discrimination_stimuli/001450_2014-06-19_17-02-03_260595134347_rgbf000203-resize_4/001450_2014-06-19_17-02-03_260595134347_rgbf000203-resize-original.jpg,3761,2445307,2581184,46
247847,DepthScenes,duration_discrimination,discrim_jsons/d0.json,http://54.173.234.186/DepthDuration/depth_discrimination_MTurk/DepthDiscrim_HTML.html#4,4,1859,886,1920,1080,6-19-2021,14-49-50,152,,,,,,,1919,510,994,497,1000,500,feet,3,2,depth_discrimination_stimuli/000521_2014-06-08_13-34-35_260595134347_rgbf000191-resize_2/000521_2014-06-08_13-34-35_260595134347_rgbf000191-resize-original.jpg,4781,2445307,2581184,46
247847,DepthScenes,duration_discrimination,discrim_jsons/d0.json,http://54.173.234.186/DepthDuration/depth_discrimination_MTurk/DepthDiscrim_HTML.html#4,4,1859,886,1920,1080,6-19-2021,14-49-50,153,,,,,,,1919,510,994,497,1000,500,feet,2,1,depth_discrimination_stimuli/000682_2014-06-08_23-14-58_260595134347_rgbf000041-resize_5/000682_2014-06-08_23-14-58_260595134347_rgbf000041-resize-original.jpg,4538,2445307,2581184,46
247847,DepthScenes,duration_discrimination,discrim_jsons/d0.json,http://54.173.234.186/DepthDuration/depth_discrimination_MTurk/DepthDiscrim_HTML.html#4,4,1859,886,1920,1080,6-19-2021,14-49-50,154,,,,,,,1919,510,994,497,1000,500,feet,3,3,depth_discrimination_stimuli/001100_2014-06-15_17-46-26_260595134347_rgbf000225-resize_2/001100_2014-06-15_17-46-26_260595134347_rgbf000225-resize-original.jpg,48893,2445307,2581184,46
247847,DepthScenes,duration_discrimination,discrim_jsons/d0.json,http://54.173.234.186/DepthDuration/depth_discrimination_MTurk/DepthDiscrim_HTML.html#4,4,1859,886,1920,1080,6-19-2021,14-49-50,155,,,,,,,1919,510,994,497,1000,500,feet,4,2,depth_discrimination_stimuli/000642_2014-06-08_16-59-25_260595134347_rgbf000098-resize_2/000642_2014-06-08_16-59-25_260595134347_rgbf000098-resize-original.jpg,5246,2445307,2581184,46
247847,DepthScenes,duration_discrimination,discrim_jsons/d0.json,http://54.173.234.186/DepthDuration/depth_discrimination_MTurk/DepthDiscrim_HTML.html#4,4,1859,886,1920,1080,6-19-2021,14-49-50,156,,,,,,,1919,510,994,497,1000,500,feet,3,3,depth_discrimination_stimuli/002964_2014-06-08_17-46-11_094959634447_rgbf000091-resize_4/002964_2014-06-08_17-46-11_094959634447_rgbf000091-resize-original.jpg,5260,2445307,2581184,46
247847,DepthScenes,duration_discrimination,discrim_jsons/d0.json,http://54.173.234.186/DepthDuration/depth_discrimination_MTurk/DepthDiscrim_HTML.html#4,4,1859,886,1920,1080,6-19-2021,14-49-50,157,,,,,,,1919,510,994,497,1000,500,feet,2,3,depth_discrimination_stimuli/001164_2014-06-17_15-35-46_260595134347_rgbf000085-resize_3/001164_2014-06-17_15-35-46_260595134347_rgbf000085-resize-original.jpg,5015,2445307,2581184,46
247847,DepthScenes,duration_discrimination,discrim_jsons/d0.json,http://54.173.234.186/DepthDuration/depth_discrimination_MTurk/DepthDiscrim_HTML.html#4,4,1859,886,1920,1080,6-19-2021,14-49-50,158,,,,,,,1919,510,994,497,1000,500,feet,4,4,depth_discrimination_stimuli/001570_2014-06-20_17-21-09_260595134347_rgbf000135-resize_4/001570_2014-06-20_17-21-09_260595134347_rgbf000135-resize-original.jpg,6980,2445307,2581184,46
247847,DepthScenes,duration_discrimination,discrim_jsons/d0.json,http://54.173.234.186/DepthDuration/depth_discrimination_MTurk/DepthDiscrim_HTML.html#4,4,1859,886,1920,1080,6-19-2021,14-49-50,159,,,,,,,1919,510,994,497,1000,500,feet,3,2,depth_discrimination_stimuli/002425_2014-06-28_20-27-29_260595134347_rgbf000031-resize_8/002425_2014-06-28_20-27-29_260595134347_rgbf000031-resize-original.jpg,129958,2445307,2581184,46
247847,DepthScenes,duration_discrimination,discrim_jsons/d0.json,http://54.173.234.186/DepthDuration/depth_discrimination_MTurk/DepthDiscrim_HTML.html#4,4,1859,886,1920,1080,6-19-2021,14-49-50,160,,,,,,,1919,510,994,497,1000,500,feet,2,2,depth_discrimination_stimuli/000943_2014-06-09_19-31-07_260595134347_rgbf000128-resize_1/000943_2014-06-09_19-31-07_260595134347_rgbf000128-resize-original.jpg,3428,2445307,2581184,46
247847,DepthScenes,duration_discrimination,discrim_jsons/d0.json,http://54.173.234.186/DepthDuration/depth_discrimination_MTurk/DepthDiscrim_HTML.html#4,4,1859,886,1920,1080,6-19-2021,14-49-50,161,,,,,,,1919,510,994,497,1000,500,feet,4,4,depth_discrimination_stimuli/001175_2014-06-17_15-45-55_260595134347_rgbf000129-resize_4/001175_2014-06-17_15-45-55_260595134347_rgbf000129-resize-original.jpg,4910,2445307,2581184,46
247847,DepthScenes,duration_discrimination,discrim_jsons/d0.json,http://54.173.234.186/DepthDuration/depth_discrimination_MTurk/DepthDiscrim_HTML.html#4,4,1859,886,1920,1080,6-19-2021,14-49-50,162,,,,,,,1919,510,994,497,1000,500,feet,3,2,depth_discrimination_stimuli/000677_2014-06-08_23-10-32_260595134347_rgbf000158-resize_6/000677_2014-06-08_23-10-32_260595134347_rgbf000158-resize-original.jpg,3492,2445307,2581184,46
247847,DepthScenes,duration_discrimination,discrim_jsons/d0.json,http://54.173.234.186/DepthDuration/depth_discrimination_MTurk/DepthDiscrim_HTML.html#4,4,1859,886,1920,1080,6-19-2021,14-49-50,163,,,,,,,1919,510,994,497,1000,500,feet,4,3,depth_discrimination_stimuli/000470_2014-06-09_19-42-40_260595134347_rgbf000094-resize_1/000470_2014-06-09_19-42-40_260595134347_rgbf000094-resize-original.jpg,4652,2445307,2581184,46
247847,DepthScenes,duration_discrimination,discrim_jsons/d0.json,http://54.173.234.186/DepthDuration/depth_discrimination_MTurk/DepthDiscrim_HTML.html#4,4,1859,886,1920,1080,6-19-2021,14-49-50,164,,,,,,,1919,510,994,497,1000,500,feet,4,5,depth_discrimination_stimuli/002600_2014-06-24_14-27-04_094959634447_rgbf000074-resize_2/002600_2014-06-24_14-27-04_094959634447_rgbf000074-resize-original.jpg,3538,2445307,2581184,46
247847,DepthScenes,duration_discrimination,discrim_jsons/d0.json,http://54.173.234.186/DepthDuration/depth_discrimination_MTurk/DepthDiscrim_HTML.html#4,4,1859,886,1920,1080,6-19-2021,14-49-50,165,,,,,,,1919,510,994,497,1000,500,feet,3,3,depth_discrimination_stimuli/002905_2014-06-03_18-04-43_094959634447_rgbf000151-resize_2/002905_2014-06-03_18-04-43_094959634447_rgbf000151-resize-original.jpg,4366,2445307,2581184,46
247847,DepthScenes,duration_discrimination,discrim_jsons/d0.json,http://54.173.234.186/DepthDuration/depth_discrimination_MTurk/DepthDiscrim_HTML.html#4,4,1859,886,1920,1080,6-19-2021,14-49-50,166,,,,,,,1919,510,994,497,1000,500,feet,5,3,depth_discrimination_stimuli/001447_2014-06-19_17-00-32_260595134347_rgbf000082-resize_5/001447_2014-06-19_17-00-32_260595134347_rgbf000082-resize-original.jpg,4762,2445307,2581184,46
247847,DepthScenes,duration_discrimination,discrim_jsons/d0.json,http://54.173.234.186/DepthDuration/depth_discrimination_MTurk/DepthDiscrim_HTML.html#4,4,1859,886,1920,1080,6-19-2021,14-49-50,167,,,,,,,1919,510,994,497,1000,500,feet,4,2,depth_discrimination_stimuli/002788_2014-06-22_19-36-03_094959634447_rgbf000088-resize_2/002788_2014-06-22_19-36-03_094959634447_rgbf000088-resize-original.jpg,4027,2445307,2581184,46
247847,DepthScenes,duration_discrimination,discrim_jsons/d0.json,http://54.173.234.186/DepthDuration/depth_discrimination_MTurk/DepthDiscrim_HTML.html#4,4,1859,886,1920,1080,6-19-2021,14-49-50,168,,,,,,,1919,510,994,497,1000,500,feet,3,3,depth_discrimination_stimuli/003010_2014-06-15_12-54-35_094959634447_rgbf000112-resize_0/003010_2014-06-15_12-54-35_094959634447_rgbf000112-resize-original.jpg,7825,2445307,2581184,46
247847,DepthScenes,duration_discrimination,discrim_jsons/d0.json,http://54.173.234.186/DepthDuration/depth_discrimination_MTurk/DepthDiscrim_HTML.html#4,4,1859,886,1920,1080,6-19-2021,14-49-50,169,,,,,,,1919,510,994,497,1000,500,feet,4,3,depth_discrimination_stimuli/003338_2014-05-20_11-01-23_094959634447_rgbf000051-resize_6/003338_2014-05-20_11-01-23_094959634447_rgbf000051-resize-original.jpg,2724,2445307,2581184,46
247847,DepthScenes,duration_discrimination,discrim_jsons/d0.json,http://54.173.234.186/DepthDuration/depth_discrimination_MTurk/DepthDiscrim_HTML.html#4,4,1859,886,1920,1080,6-19-2021,14-49-50,170,,,,,,,1919,510,994,497,1000,500,feet,4,2,depth_discrimination_stimuli/003587_2014-05-23_16-48-02_094959634447_rgbf002384-resize_2/003587_2014-05-23_16-48-02_094959634447_rgbf002384-resize-original.jpg,4566,2445307,2581184,46
247847,DepthScenes,duration_discrimination,discrim_jsons/d0.json,http://54.173.234.186/DepthDuration/depth_discrimination_MTurk/DepthDiscrim_HTML.html#4,4,1859,886,1920,1080,6-19-2021,14-49-50,171,,,,,,,1919,510,994,497,1000,500,feet,3,3,depth_discrimination_stimuli/003534_2014-05-22_15-06-10_094959634447_rgbf000102-resize_4/003534_2014-05-22_15-06-10_094959634447_rgbf000102-resize-original.jpg,3156,2445307,2581184,46
247847,DepthScenes,duration_discrimination,discrim_jsons/d0.json,http://54.173.234.186/DepthDuration/depth_discrimination_MTurk/DepthDiscrim_HTML.html#4,4,1859,886,1920,1080,6-19-2021,14-49-50,172,,,,,,,1919,510,994,497,1000,500,feet,4,2,depth_discrimination_stimuli/000635_2014-06-08_16-38-42_260595134347_rgbf000106-resize_1/000635_2014-06-08_16-38-42_260595134347_rgbf000106-resize-original.jpg,4380,2445307,2581184,46
247847,DepthScenes,duration_discrimination,discrim_jsons/d0.json,http://54.173.234.186/DepthDuration/depth_discrimination_MTurk/DepthDiscrim_HTML.html#4,4,1859,886,1920,1080,6-19-2021,14-49-50,173,,,,,,,1919,510,994,497,1000,500,feet,3,3,depth_discrimination_stimuli/000457_2014-06-08_16-52-43_260595134347_rgbf000199-resize_1/000457_2014-06-08_16-52-43_260595134347_rgbf000199-resize-original.jpg,4518,2445307,2581184,46
247847,DepthScenes,duration_discrimination,discrim_jsons/d0.json,http://54.173.234.186/DepthDuration/depth_discrimination_MTurk/DepthDiscrim_HTML.html#4,4,1859,886,1920,1080,6-19-2021,14-49-50,174,,,,,,,1919,510,994,497,1000,500,feet,3,2,depth_discrimination_stimuli/000665_2014-06-09_20-42-35_260595134347_rgbf000110-resize_1/000665_2014-06-09_20-42-35_260595134347_rgbf000110-resize-original.jpg,3474,2445307,2581184,46
247847,DepthScenes,duration_discrimination,discrim_jsons/d0.json,http://54.173.234.186/DepthDuration/depth_discrimination_MTurk/DepthDiscrim_HTML.html#4,4,1859,886,1920,1080,6-19-2021,14-49-50,175,,,,,,,1919,510,994,497,1000,500,feet,4,3,depth_discrimination_stimuli/001016_2014-06-09_16-16-10_260595134347_rgbf000112-resize_5/001016_2014-06-09_16-16-10_260595134347_rgbf000112-resize-original.jpg,3675,2445307,2581184,46
247847,DepthScenes,duration_discrimination,discrim_jsons/d0.json,http://54.173.234.186/DepthDuration/depth_discrimination_MTurk/DepthDiscrim_HTML.html#4,4,1859,886,1920,1080,6-19-2021,14-49-50,176,,,,,,,1919,510,994,497,1000,500,feet,5,1,depth_discrimination_stimuli/002272_2014-06-28_18-53-56_260595134347_rgbf000067-resize_2/002272_2014-06-28_18-53-56_260595134347_rgbf000067-resize-original.jpg,4839,2445307,2581184,46
247847,DepthScenes,duration_discrimination,discrim_jsons/d0.json,http://54.173.234.186/DepthDuration/depth_discrimination_MTurk/DepthDiscrim_HTML.html#4,4,1859,886,1920,1080,6-19-2021,14-49-50,177,,,,,,,1919,510,994,497,1000,500,feet,3,2,depth_discrimination_stimuli/003490_2014-05-21_15-50-11_094959634447_rgbf000101-resize_3/003490_2014-05-21_15-50-11_094959634447_rgbf000101-resize-original.jpg,4614,2445307,2581184,46
247847,DepthScenes,duration_discrimination,discrim_jsons/d0.json,http://54.173.234.186/DepthDuration/depth_discrimination_MTurk/DepthDiscrim_HTML.html#4,4,1859,886,1920,1080,6-19-2021,14-49-50,178,,,,,,,1919,510,994,497,1000,500,feet,3,2,depth_discrimination_stimuli/000486_2014-06-09_20-47-20_260595134347_rgbf000143-resize_2/000486_2014-06-09_20-47-20_260595134347_rgbf000143-resize-original.jpg,5400,2445307,2581184,46
247847,DepthScenes,duration_discrimination,discrim_jsons/d0.json,http://54.173.234.186/DepthDuration/depth_discrimination_MTurk/DepthDiscrim_HTML.html#4,4,1859,886,1920,1080,6-19-2021,14-49-50,179,,,,,,,1919,510,994,497,1000,500,feet,3,5,depth_discrimination_stimuli/000788_2014-06-08_22-34-36_260595134347_rgbf000131-resize_1/000788_2014-06-08_22-34-36_260595134347_rgbf000131-resize-original.jpg,4192,2445307,2581184,46
247847,DepthScenes,duration_discrimination,discrim_jsons/d0.json,http://54.173.234.186/DepthDuration/depth_discrimination_MTurk/DepthDiscrim_HTML.html#4,4,1859,886,1920,1080,6-19-2021,14-49-50,180,,,,,,,1919,510,994,497,1000,500,feet,3,5,depth_discrimination_stimuli/002725_2014-06-22_11-47-51_094959634447_rgbf000070-resize_1/002725_2014-06-22_11-47-51_094959634447_rgbf000070-resize-original.jpg,2643,2445307,2581184,46
247847,DepthScenes,duration_discrimination,discrim_jsons/d0.json,http://54.173.234.186/DepthDuration/depth_discrimination_MTurk/DepthDiscrim_HTML.html#4,4,1859,886,1920,1080,6-19-2021,14-49-50,181,,,,,,,1919,510,994,497,1000,500,feet,1,3,scene_property_catch_stimuli/sun_aatxlublfjchvvzu.jpg,6935,2445307,2581184,46
247847,DepthScenes,duration_discrimination,discrim_jsons/d0.json,http://54.173.234.186/DepthDuration/depth_discrimination_MTurk/DepthDiscrim_HTML.html#4,4,1859,886,1920,1080,6-19-2021,14-49-50,182,,,,,,,1919,510,994,497,1000,500,feet,3,3,depth_discrimination_stimuli/000469_2014-06-09_19-42-10_260595134347_rgbf000081-resize_1/000469_2014-06-09_19-42-10_260595134347_rgbf000081-resize-original.jpg,112326,2445307,2581184,46
247847,DepthScenes,duration_discrimination,discrim_jsons/d0.json,http://54.173.234.186/DepthDuration/depth_discrimination_MTurk/DepthDiscrim_HTML.html#4,4,1859,886,1920,1080,6-19-2021,14-49-50,183,,,,,,,1919,510,994,497,1000,500,feet,2,3,depth_discrimination_stimuli/001133_2014-06-17_14-49-16_260595134347_rgbf000100-resize_0/001133_2014-06-17_14-49-16_260595134347_rgbf000100-resize-original.jpg,4958,2445307,2581184,46
247847,DepthScenes,duration_discrimination,discrim_jsons/d0.json,http://54.173.234.186/DepthDuration/depth_discrimination_MTurk/DepthDiscrim_HTML.html#4,4,1859,886,1920,1080,6-19-2021,14-49-50,184,,,,,,,1919,510,994,497,1000,500,feet,5,2,depth_discrimination_stimuli/002748_2014-06-22_19-07-22_094959634447_rgbf000078-resize_1/002748_2014-06-22_19-07-22_094959634447_rgbf000078-resize-original.jpg,3736,2445307,2581184,46
247847,DepthScenes,duration_discrimination,discrim_jsons/d0.json,http://54.173.234.186/DepthDuration/depth_discrimination_MTurk/DepthDiscrim_HTML.html#4,4,1859,886,1920,1080,6-19-2021,14-49-50,185,,,,,,,1919,510,994,497,1000,500,feet,3,4,depth_discrimination_stimuli/002365_2014-06-28_20-11-21_260595134347_rgbf000102-resize_1/002365_2014-06-28_20-11-21_260595134347_rgbf000102-resize-original.jpg,3730,2445307,2581184,46
247847,DepthScenes,duration_discrimination,discrim_jsons/d0.json,http://54.173.234.186/DepthDuration/depth_discrimination_MTurk/DepthDiscrim_HTML.html#4,4,1859,886,1920,1080,6-19-2021,14-49-50,186,,,,,,,1919,510,994,497,1000,500,feet,3,4,depth_discrimination_stimuli/000758_2014-06-08_22-05-08_260595134347_rgbf000085-resize_0/000758_2014-06-08_22-05-08_260595134347_rgbf000085-resize-original.jpg,9366,2445307,2581184,46
247847,DepthScenes,duration_discrimination,discrim_jsons/d0.json,http://54.173.234.186/DepthDuration/depth_discrimination_MTurk/DepthDiscrim_HTML.html#4,4,1859,886,1920,1080,6-19-2021,14-49-50,187,,,,,,,1919,510,994,497,1000,500,feet,3,3,depth_discrimination_stimuli/002549_2014-06-24_13-41-39_094959634447_rgbf000022-resize_3/002549_2014-06-24_13-41-39_094959634447_rgbf000022-resize-original.jpg,2441,2445307,2581184,46
247847,DepthScenes,duration_discrimination,discrim_jsons/d0.json,http://54.173.234.186/DepthDuration/depth_discrimination_MTurk/DepthDiscrim_HTML.html#4,4,1859,886,1920,1080,6-19-2021,14-49-50,188,,,,,,,1919,510,994,497,1000,500,feet,5,3,depth_discrimination_stimuli/002340_2014-06-28_20-05-46_260595134347_rgbf000113-resize_0/002340_2014-06-28_20-05-46_260595134347_rgbf000113-resize-original.jpg,4871,2445307,2581184,46
247847,DepthScenes,duration_discrimination,discrim_jsons/d0.json,http://54.173.234.186/DepthDuration/depth_discrimination_MTurk/DepthDiscrim_HTML.html#4,4,1859,886,1920,1080,6-19-2021,14-49-50,189,,,,,,,1919,510,994,497,1000,500,feet,3,3,depth_discrimination_stimuli/000854_2014-06-09_19-43-13_260595134347_rgbf000066-resize_0/000854_2014-06-09_19-43-13_260595134347_rgbf000066-resize-original.jpg,15880,2445307,2581184,46
247847,DepthScenes,duration_discrimination,discrim_jsons/d0.json,http://54.173.234.186/DepthDuration/depth_discrimination_MTurk/DepthDiscrim_HTML.html#4,4,1859,886,1920,1080,6-19-2021,14-49-50,190,,,,,,,1919,510,994,497,1000,500,feet,4,2,depth_discrimination_stimuli/000109_2014-05-14_23-41-52_260595134347_rgbf000035-resize_9/000109_2014-05-14_23-41-52_260595134347_rgbf000035-resize-original.jpg,4292,2445307,2581184,46
247847,DepthScenes,duration_discrimination,discrim_jsons/d0.json,http://54.173.234.186/DepthDuration/depth_discrimination_MTurk/DepthDiscrim_HTML.html#4,4,1859,886,1920,1080,6-19-2021,14-49-50,191,,,,,,,1919,510,994,497,1000,500,feet,3,5,depth_discrimination_stimuli/000502_2014-06-08_23-02-32_260595134347_rgbf000063-resize_4/000502_2014-06-08_23-02-32_260595134347_rgbf000063-resize-original.jpg,3516,2445307,2581184,46
247847,DepthScenes,duration_discrimination,discrim_jsons/d0.json,http://54.173.234.186/DepthDuration/depth_discrimination_MTurk/DepthDiscrim_HTML.html#4,4,1859,886,1920,1080,6-19-2021,14-49-50,192,,,,,,,1919,510,994,497,1000,500,feet,3,4,depth_discrimination_stimuli/003288_2014-05-14_21-50-30_094959634447_rgbf000028-resize_3/003288_2014-05-14_21-50-30_094959634447_rgbf000028-resize-original.jpg,2996,2445307,2581184,46
247847,DepthScenes,duration_discrimination,discrim_jsons/d0.json,http://54.173.234.186/DepthDuration/depth_discrimination_MTurk/DepthDiscrim_HTML.html#4,4,1859,886,1920,1080,6-19-2021,14-49-50,193,,,,,,,1919,510,994,497,1000,500,feet,3,3,depth_discrimination_stimuli/000720_2014-06-08_18-37-27_260595134347_rgbf000203-resize_4/000720_2014-06-08_18-37-27_260595134347_rgbf000203-resize-original.jpg,4910,2445307,2581184,46
247847,DepthScenes,duration_discrimination,discrim_jsons/d0.json,http://54.173.234.186/DepthDuration/depth_discrimination_MTurk/DepthDiscrim_HTML.html#4,4,1859,886,1920,1080,6-19-2021,14-49-50,194,,,,,,,1919,510,994,497,1000,500,feet,1,5,scene_property_catch_stimuli/sun_aoquhiddlfqapdlz.jpg,3650,2445307,2581184,46
247847,DepthScenes,duration_discrimination,discrim_jsons/d0.json,http://54.173.234.186/DepthDuration/depth_discrimination_MTurk/DepthDiscrim_HTML.html#4,4,1859,886,1920,1080,6-19-2021,14-49-50,195,,,,,,,1919,510,994,497,1000,500,feet,2,5,depth_discrimination_stimuli/002568_2014-06-24_13-59-21_094959634447_rgbf000062-resize_4/002568_2014-06-24_13-59-21_094959634447_rgbf000062-resize-original.jpg,4746,2445307,2581184,46
247847,DepthScenes,duration_discrimination,discrim_jsons/d0.json,http://54.173.234.186/DepthDuration/depth_discrimination_MTurk/DepthDiscrim_HTML.html#4,4,1859,886,1920,1080,6-19-2021,14-49-50,196,,,,,,,1919,510,994,497,1000,500,feet,3,3,depth_discrimination_stimuli/002305_2014-06-28_19-56-50_260595134347_rgbf000102-resize_7/002305_2014-06-28_19-56-50_260595134347_rgbf000102-resize-original.jpg,3926,2445307,2581184,46
247847,DepthScenes,duration_discrimination,discrim_jsons/d0.json,http://54.173.234.186/DepthDuration/depth_discrimination_MTurk/DepthDiscrim_HTML.html#4,4,1859,886,1920,1080,6-19-2021,14-49-50,197,,,,,,,1919,510,994,497,1000,500,feet,2,5,depth_discrimination_stimuli/000691_2014-06-08_13-08-50_260595134347_rgbf000132-resize_3/000691_2014-06-08_13-08-50_260595134347_rgbf000132-resize-original.jpg,4414,2445307,2581184,46
247847,DepthScenes,duration_discrimination,discrim_jsons/d0.json,http://54.173.234.186/DepthDuration/depth_discrimination_MTurk/DepthDiscrim_HTML.html#4,4,1859,886,1920,1080,6-19-2021,14-49-50,198,,,,,,,1919,510,994,497,1000,500,feet,3,4,depth_discrimination_stimuli/001828_2014-06-26_21-40-03_260595134347_rgbf000024-resize_0/001828_2014-06-26_21-40-03_260595134347_rgbf000024-resize-original.jpg,7554,2445307,2581184,46
