subjID,experimentName,versionName,sequenceName,url,selected_row,windowWidth,windowHeight,screenWidth,screenHeight,startDate,startTime,trial,stimulus_0,stimulus_1,duration,actual_depth_0,actual_depth_1,discrim_choice,trial_RT,log_fixation,log_sceneDuration1,log_mask1,log_sceneDuration2,log_mask2,unitSelection,meanDepth_rating,navigability_rating,rated_stimulus,rating_RT,experimentTime,totalTime,age
312710,DepthScenes,duration_discrimination,discrim_jsons/d0_rotated.json,http://54.173.234.186/DepthDuration/depth_discrimination_MTurk/DepthDiscrim_HTML.html#3,3,2270,1177,2560,1440,6-19-2021,16-43-21,1,depth_discrimination_stimuli/001175_2014-06-17_15-45-55_260595134347_rgbf000129-resize_4/001175_2014-06-17_15-45-55_260595134347_rgbf000129-resize_4-target.png,depth_discrimination_stimuli/002467_2014-06-28_20-38-07_260595134347_rgbf000026-resize_2/002467_2014-06-28_20-38-07_260595134347_rgbf000026-resize_2-target.png,1000,4.255,4.742,1,2223,502,999,499,1005,496,feet,,,,,1363652,1476791,56
312710,DepthScenes,duration_discrimination,discrim_jsons/d0_rotated.json,http://54.173.234.186/DepthDuration/depth_discrimination_MTurk/DepthDiscrim_HTML.html#3,3,2270,1177,2560,1440,6-19-2021,16-43-21,2,depth_discrimination_stimuli/000709_2014-06-08_13-51-55_260595134347_rgbf000068-resize_3/000709_2014-06-08_13-51-55_260595134347_rgbf000068-resize_3-target.png,depth_discrimination_stimuli/003587_2014-05-23_16-48-02_094959634447_rgbf002384-resize_2/003587_2014-05-23_16-48-02_094959634447_rgbf002384-resize_2-target.png,250,1.803,1.357,1,1579,500,249,503,247,501,feet,,,,,1363652,1476791,56
312710,DepthScenes,duration_discrimination,discrim_jsons/d0_rotated.json,http://54.173.234.186/DepthDuration/depth_discrimination_MTurk/DepthDiscrim_HTML.html#3,3,2270,1177,2560,1440,6-19-2021,16-43-21,3,depth_discrimination_stimuli/000943_2014-06-09_19-31-07_260595134347_rgbf000128-resize_1/000943_2014-06-09_19-31-07_260595134347_rgbf000128-resize_1-target.png,depth_discrimination_stimuli/001555_2014-06-20_17-12-10_260595134347_rgbf000065-resize_4/001555_2014-06-20_17-12-10_260595134347_rgbf000065-resize_4-target.png,1000,1.9765,1.633,1,4743,501,1000,500,1000,500,feet,,,,,1363652,1476791,56
312710,DepthScenes,duration_discrimination,discrim_jsons/d0_rotated.json,http://54.173.234.186/DepthDuration/depth_discrimination_MTurk/DepthDiscrim_HTML.html#3,3,2270,1177,2560,1440,6-19-2021,16-43-21,4,depth_discrimination_stimuli/002344_2014-06-28_20-06-29_260595134347_rgbf000030-resize_1/002344_2014-06-28_20-06-29_260595134347_rgbf000030-resize_1-target.png,depth_discrimination_stimuli/002509_2014-06-24_13-19-22_094959634447_rgbf000077-resize_0/002509_2014-06-24_13-19-22_094959634447_rgbf000077-resize_0-target.png,250,1.5795,1.3065,1,1515,501,250,502,248,503,feet,,,,,1363652,1476791,56
312710,DepthScenes,duration_discrimination,discrim_jsons/d0_rotated.json,http://54.173.234.186/DepthDuration/depth_discrimination_MTurk/DepthDiscrim_HTML.html#3,3,2270,1177,2560,1440,6-19-2021,16-43-21,5,depth_discrimination_stimuli/002949_2014-06-26_15-57-42_094959634447_rgbf000079-resize_1/002949_2014-06-26_15-57-42_094959634447_rgbf000079-resize_1-target.png,depth_discrimination_stimuli/002279_2014-06-28_18-55-32_260595134347_rgbf000040-resize_5/002279_2014-06-28_18-55-32_260595134347_rgbf000040-resize_5-target.png,1000,1.8915,1.5043333333333,1,2276,501,1000,500,1000,500,feet,,,,,1363652,1476791,56
312710,DepthScenes,duration_discrimination,discrim_jsons/d0_rotated.json,http://54.173.234.186/DepthDuration/depth_discrimination_MTurk/DepthDiscrim_HTML.html#3,3,2270,1177,2560,1440,6-19-2021,16-43-21,6,depth_discrimination_stimuli/002630_2014-06-24_14-47-50_094959634447_rgbf000055-resize_1/002630_2014-06-24_14-47-50_094959634447_rgbf000055-resize_1-target.png,depth_discrimination_stimuli/001449_2014-06-19_17-01-27_260595134347_rgbf000116-resize_2/001449_2014-06-19_17-01-27_260595134347_rgbf000116-resize_2-target.png,250,3.0095,3.452,1,1304,503,248,501,251,498,feet,,,,,1363652,1476791,56
312710,DepthScenes,duration_discrimination,discrim_jsons/d0_rotated.json,http://54.173.234.186/DepthDuration/depth_discrimination_MTurk/DepthDiscrim_HTML.html#3,3,2270,1177,2560,1440,6-19-2021,16-43-21,7,depth_discrimination_stimuli/002039_2014-06-24_20-22-38_260595134347_rgbf000084-resize_1/002039_2014-06-24_20-22-38_260595134347_rgbf000084-resize_1-target.png,depth_discrimination_stimuli/001450_2014-06-19_17-02-03_260595134347_rgbf000203-resize_4/001450_2014-06-19_17-02-03_260595134347_rgbf000203-resize_4-target.png,250,4.408,4.0106666666667,0,1345,503,248,500,250,502,feet,,,,,1363652,1476791,56
312710,DepthScenes,duration_discrimination,discrim_jsons/d0_rotated.json,http://54.173.234.186/DepthDuration/depth_discrimination_MTurk/DepthDiscrim_HTML.html#3,3,2270,1177,2560,1440,6-19-2021,16-43-21,8,depth_discrimination_stimuli/002103_2014-06-25_20-00-40_260595134347_rgbf000049-resize_0/002103_2014-06-25_20-00-40_260595134347_rgbf000049-resize_0-target.png,depth_discrimination_stimuli/000692_2014-06-08_13-09-42_260595134347_rgbf000199-resize_2/000692_2014-06-08_13-09-42_260595134347_rgbf000199-resize_2-target.png,250,4.105,3.661,0,1347,500,251,500,251,500,feet,,,,,1363652,1476791,56
312710,DepthScenes,duration_discrimination,discrim_jsons/d0_rotated.json,http://54.173.234.186/DepthDuration/depth_discrimination_MTurk/DepthDiscrim_HTML.html#3,3,2270,1177,2560,1440,6-19-2021,16-43-21,9,depth_discrimination_stimuli/001148_2014-06-17_15-26-42_260595134347_rgbf000129-resize_0/001148_2014-06-17_15-26-42_260595134347_rgbf000129-resize_0-target.png,depth_discrimination_stimuli/000734_2014-06-08_17-39-11_260595134347_rgbf000128-resize_2/000734_2014-06-08_17-39-11_260595134347_rgbf000128-resize_2-target.png,250,4.368,4.098,1,1215,503,252,497,251,501,feet,,,,,1363652,1476791,56
312710,DepthScenes,duration_discrimination,discrim_jsons/d0_rotated.json,http://54.173.234.186/DepthDuration/depth_discrimination_MTurk/DepthDiscrim_HTML.html#3,3,2270,1177,2560,1440,6-19-2021,16-43-21,10,depth_discrimination_stimuli/002043_2014-06-24_20-29-38_260595134347_rgbf000039-resize_4/002043_2014-06-24_20-29-38_260595134347_rgbf000039-resize_4-target.png,depth_discrimination_stimuli/002445_2014-06-28_20-32-16_260595134347_rgbf000029-resize_4/002445_2014-06-28_20-32-16_260595134347_rgbf000029-resize_4-target.png,250,2.8435,2.5315,1,1225,500,253,502,246,504,feet,,,,,1363652,1476791,56
312710,DepthScenes,duration_discrimination,discrim_jsons/d0_rotated.json,http://54.173.234.186/DepthDuration/depth_discrimination_MTurk/DepthDiscrim_HTML.html#3,3,2270,1177,2560,1440,6-19-2021,16-43-21,11,depth_discrimination_stimuli/002545_2014-06-24_13-38-53_094959634447_rgbf000080-resize_4/002545_2014-06-24_13-38-53_094959634447_rgbf000080-resize_4-target.png,depth_discrimination_stimuli/002549_2014-06-24_13-41-39_094959634447_rgbf000022-resize_3/002549_2014-06-24_13-41-39_094959634447_rgbf000022-resize_3-target.png,250,1.9205,1.476,1,1265,500,251,500,251,502,feet,,,,,1363652,1476791,56
312710,DepthScenes,duration_discrimination,discrim_jsons/d0_rotated.json,http://54.173.234.186/DepthDuration/depth_discrimination_MTurk/DepthDiscrim_HTML.html#3,3,2270,1177,2560,1440,6-19-2021,16-43-21,12,depth_discrimination_stimuli/000137_2014-05-20_17-04-49_260595134347_rgbf000120-resize_1/000137_2014-05-20_17-04-49_260595134347_rgbf000120-resize_1-target.png,depth_discrimination_stimuli/000691_2014-06-08_13-08-50_260595134347_rgbf000132-resize_3/000691_2014-06-08_13-08-50_260595134347_rgbf000132-resize_3-target.png,250,3.786,4.153,0,1278,501,251,499,253,497,feet,,,,,1363652,1476791,56
312710,DepthScenes,duration_discrimination,discrim_jsons/d0_rotated.json,http://54.173.234.186/DepthDuration/depth_discrimination_MTurk/DepthDiscrim_HTML.html#3,3,2270,1177,2560,1440,6-19-2021,16-43-21,13,depth_discrimination_stimuli/003395_2014-05-20_15-39-18_094959634447_rgbf000101-resize_0/003395_2014-05-20_15-39-18_094959634447_rgbf000101-resize_0-target.png,depth_discrimination_stimuli/001540_2014-06-20_17-01-05_260595134347_rgbf000086-resize_2/001540_2014-06-20_17-01-05_260595134347_rgbf000086-resize_2-target.png,250,4.835,1.459,1,1177,502,249,503,247,502,feet,,,,,1363652,1476791,56
312710,DepthScenes,duration_discrimination,discrim_jsons/d0_rotated.json,http://54.173.234.186/DepthDuration/depth_discrimination_MTurk/DepthDiscrim_HTML.html#3,3,2270,1177,2560,1440,6-19-2021,16-43-21,14,depth_discrimination_stimuli/001806_2014-06-26_20-50-20_260595134347_rgbf000091-resize_1/001806_2014-06-26_20-50-20_260595134347_rgbf000091-resize_1-target.png,depth_discrimination_stimuli/002460_2014-06-28_20-35-43_260595134347_rgbf000028-resize_4/002460_2014-06-28_20-35-43_260595134347_rgbf000028-resize_4-target.png,1000,2.7305,2.269,0,2183,500,1004,500,998,502,feet,,,,,1363652,1476791,56
312710,DepthScenes,duration_discrimination,discrim_jsons/d0_rotated.json,http://54.173.234.186/DepthDuration/depth_discrimination_MTurk/DepthDiscrim_HTML.html#3,3,2270,1177,2560,1440,6-19-2021,16-43-21,15,depth_discrimination_stimuli/001132_2014-06-17_14-48-54_260595134347_rgbf000100-resize_2/001132_2014-06-17_14-48-54_260595134347_rgbf000100-resize_2-target.png,depth_discrimination_stimuli/002639_2014-06-24_14-51-37_094959634447_rgbf000074-resize_4/002639_2014-06-24_14-51-37_094959634447_rgbf000074-resize_4-target.png,1000,3.753,4.0375,0,1929,501,1004,496,1001,499,feet,,,,,1363652,1476791,56
312710,DepthScenes,duration_discrimination,discrim_jsons/d0_rotated.json,http://54.173.234.186/DepthDuration/depth_discrimination_MTurk/DepthDiscrim_HTML.html#3,3,2270,1177,2560,1440,6-19-2021,16-43-21,16,depth_discrimination_stimuli/003621_2014-05-23_18-06-08_094959634447_rgbf000101-resize_1/003621_2014-05-23_18-06-08_094959634447_rgbf000101-resize_1-target.png,depth_discrimination_stimuli/001808_2014-06-26_20-50-58_260595134347_rgbf000029-resize_1/001808_2014-06-26_20-50-58_260595134347_rgbf000029-resize_1-target.png,250,3.9835,4.249,0,1337,504,247,500,251,500,feet,,,,,1363652,1476791,56
312710,DepthScenes,duration_discrimination,discrim_jsons/d0_rotated.json,http://54.173.234.186/DepthDuration/depth_discrimination_MTurk/DepthDiscrim_HTML.html#3,3,2270,1177,2560,1440,6-19-2021,16-43-21,17,depth_discrimination_stimuli/001516_2014-06-20_16-25-09_260595134347_rgbf000076-resize_2/001516_2014-06-20_16-25-09_260595134347_rgbf000076-resize_2-target.png,depth_discrimination_stimuli/000635_2014-06-08_16-38-42_260595134347_rgbf000106-resize_1/000635_2014-06-08_16-38-42_260595134347_rgbf000106-resize_1-target.png,1000,1.7445,2.074,0,1984,503,1000,500,1002,498,feet,,,,,1363652,1476791,56
312710,DepthScenes,duration_discrimination,discrim_jsons/d0_rotated.json,http://54.173.234.186/DepthDuration/depth_discrimination_MTurk/DepthDiscrim_HTML.html#3,3,2270,1177,2560,1440,6-19-2021,16-43-21,18,depth_discrimination_stimuli/002464_2014-06-28_20-36-57_260595134347_rgbf000029-resize_0/002464_2014-06-28_20-36-57_260595134347_rgbf000029-resize_0-target.png,depth_discrimination_stimuli/000409_2014-06-04_19-23-33_260595134347_rgbf000067-resize_0/000409_2014-06-04_19-23-33_260595134347_rgbf000067-resize_0-target.png,1000,3.9525,3.7335,0,2642,504,999,501,1000,496,feet,,,,,1363652,1476791,56
312710,DepthScenes,duration_discrimination,discrim_jsons/d0_rotated.json,http://54.173.234.186/DepthDuration/depth_discrimination_MTurk/DepthDiscrim_HTML.html#3,3,2270,1177,2560,1440,6-19-2021,16-43-21,19,depth_discrimination_stimuli/003048_2014-06-15_13-49-43_094959634447_rgbf000150-resize_1/003048_2014-06-15_13-49-43_094959634447_rgbf000150-resize_1-target.png,depth_discrimination_stimuli/002444_2014-06-28_20-32-08_260595134347_rgbf000027-resize_0/002444_2014-06-28_20-32-08_260595134347_rgbf000027-resize_0-target.png,1000,4.0035,4.389,0,2078,501,1000,499,1001,499,feet,,,,,1363652,1476791,56
312710,DepthScenes,duration_discrimination,discrim_jsons/d0_rotated.json,http://54.173.234.186/DepthDuration/depth_discrimination_MTurk/DepthDiscrim_HTML.html#3,3,2270,1177,2560,1440,6-19-2021,16-43-21,20,depth_discrimination_stimuli/002136_2014-06-25_21-18-03_260595134347_rgbf000109-resize_3/002136_2014-06-25_21-18-03_260595134347_rgbf000109-resize_3-target.png,depth_discrimination_stimuli/000469_2014-06-09_19-42-10_260595134347_rgbf000081-resize_1/000469_2014-06-09_19-42-10_260595134347_rgbf000081-resize_1-target.png,250,1.957,1.652,1,1224,502,253,497,250,499,feet,,,,,1363652,1476791,56
312710,DepthScenes,duration_discrimination,discrim_jsons/d0_rotated.json,http://54.173.234.186/DepthDuration/depth_discrimination_MTurk/DepthDiscrim_HTML.html#3,3,2270,1177,2560,1440,6-19-2021,16-43-21,21,depth_discrimination_stimuli/002131_2014-06-25_21-12-01_260595134347_rgbf000083-resize_0/002131_2014-06-25_21-12-01_260595134347_rgbf000083-resize_0-target.png,depth_discrimination_stimuli/001100_2014-06-15_17-46-26_260595134347_rgbf000225-resize_2/001100_2014-06-15_17-46-26_260595134347_rgbf000225-resize_2-target.png,1000,1.7685,2.24,1,2457,502,999,501,1000,500,feet,,,,,1363652,1476791,56
312710,DepthScenes,duration_discrimination,discrim_jsons/d0_rotated.json,http://54.173.234.186/DepthDuration/depth_discrimination_MTurk/DepthDiscrim_HTML.html#3,3,2270,1177,2560,1440,6-19-2021,16-43-21,22,depth_discrimination_stimuli/002468_2014-06-28_20-38-39_260595134347_rgbf000045-resize_1/002468_2014-06-28_20-38-39_260595134347_rgbf000045-resize_1-target.png,depth_discrimination_stimuli/002579_2014-06-24_14-08-03_094959634447_rgbf000061-resize_2/002579_2014-06-24_14-08-03_094959634447_rgbf000061-resize_2-target.png,250,1.956,2.223125,1,1476,501,254,496,252,502,feet,,,,,1363652,1476791,56
312710,DepthScenes,duration_discrimination,discrim_jsons/d0_rotated.json,http://54.173.234.186/DepthDuration/depth_discrimination_MTurk/DepthDiscrim_HTML.html#3,3,2270,1177,2560,1440,6-19-2021,16-43-21,23,depth_discrimination_stimuli/000454_2014-06-08_16-37-28_260595134347_rgbf000048-resize_2/000454_2014-06-08_16-37-28_260595134347_rgbf000048-resize_2-target.png,depth_discrimination_stimuli/000375_2014-06-08_11-17-29_260595134347_rgbf000133-resize_2/000375_2014-06-08_11-17-29_260595134347_rgbf000133-resize_2-target.png,1000,1.213,4.718,0,1509,504,999,499,1002,500,feet,,,,,1363652,1476791,56
312710,DepthScenes,duration_discrimination,discrim_jsons/d0_rotated.json,http://54.173.234.186/DepthDuration/depth_discrimination_MTurk/DepthDiscrim_HTML.html#3,3,2270,1177,2560,1440,6-19-2021,16-43-21,24,depth_discrimination_stimuli/001532_2014-06-20_16-50-41_260595134347_rgbf000081-resize_4/001532_2014-06-20_16-50-41_260595134347_rgbf000081-resize_4-target.png,depth_discrimination_stimuli/002784_2014-06-22_19-26-30_094959634447_rgbf000083-resize_3/002784_2014-06-22_19-26-30_094959634447_rgbf000083-resize_3-target.png,1000,1.5758333333333,1.8046666666667,0,2145,501,1000,500,1000,500,feet,,,,,1363652,1476791,56
312710,DepthScenes,duration_discrimination,discrim_jsons/d0_rotated.json,http://54.173.234.186/DepthDuration/depth_discrimination_MTurk/DepthDiscrim_HTML.html#3,3,2270,1177,2560,1440,6-19-2021,16-43-21,25,depth_discrimination_stimuli/000542_2014-06-08_18-27-08_260595134347_rgbf000118-resize_1/000542_2014-06-08_18-27-08_260595134347_rgbf000118-resize_1-target.png,depth_discrimination_stimuli/002118_2014-06-25_20-32-08_260595134347_rgbf000078-resize_1/002118_2014-06-25_20-32-08_260595134347_rgbf000078-resize_1-target.png,1000,3,2.646,0,2081,505,996,502,1000,500,feet,,,,,1363652,1476791,56
312710,DepthScenes,duration_discrimination,discrim_jsons/d0_rotated.json,http://54.173.234.186/DepthDuration/depth_discrimination_MTurk/DepthDiscrim_HTML.html#3,3,2270,1177,2560,1440,6-19-2021,16-43-21,26,depth_discrimination_stimuli/002272_2014-06-28_18-53-56_260595134347_rgbf000067-resize_2/002272_2014-06-28_18-53-56_260595134347_rgbf000067-resize_2-target.png,depth_discrimination_stimuli/003534_2014-05-22_15-06-10_094959634447_rgbf000102-resize_4/003534_2014-05-22_15-06-10_094959634447_rgbf000102-resize_4-target.png,1000,1.138,1.426,1,1960,504,998,501,999,503,feet,,,,,1363652,1476791,56
312710,DepthScenes,duration_discrimination,discrim_jsons/d0_rotated.json,http://54.173.234.186/DepthDuration/depth_discrimination_MTurk/DepthDiscrim_HTML.html#3,3,2270,1177,2560,1440,6-19-2021,16-43-21,27,depth_discrimination_stimuli/002748_2014-06-22_19-07-22_094959634447_rgbf000078-resize_1/002748_2014-06-22_19-07-22_094959634447_rgbf000078-resize_1-target.png,depth_discrimination_stimuli/002657_2014-06-13_15-29-54_094959634447_rgbf000150-resize_1/002657_2014-06-13_15-29-54_094959634447_rgbf000150-resize_1-target.png,250,4.6705,4.919,1,1445,502,253,495,252,501,feet,,,,,1363652,1476791,56
312710,DepthScenes,duration_discrimination,discrim_jsons/d0_rotated.json,http://54.173.234.186/DepthDuration/depth_discrimination_MTurk/DepthDiscrim_HTML.html#3,3,2270,1177,2560,1440,6-19-2021,16-43-21,28,depth_discrimination_stimuli/002365_2014-06-28_20-11-21_260595134347_rgbf000102-resize_1/002365_2014-06-28_20-11-21_260595134347_rgbf000102-resize_1-target.png,depth_discrimination_stimuli/000457_2014-06-08_16-52-43_260595134347_rgbf000199-resize_1/000457_2014-06-08_16-52-43_260595134347_rgbf000199-resize_1-target.png,1000,4.013,3.649,0,2079,504,1000,499,998,500,feet,,,,,1363652,1476791,56
312710,DepthScenes,duration_discrimination,discrim_jsons/d0_rotated.json,http://54.173.234.186/DepthDuration/depth_discrimination_MTurk/DepthDiscrim_HTML.html#3,3,2270,1177,2560,1440,6-19-2021,16-43-21,29,depth_discrimination_stimuli/000736_2014-06-08_18-24-15_260595134347_rgbf000206-resize_3/000736_2014-06-08_18-24-15_260595134347_rgbf000206-resize_3-target.png,depth_discrimination_stimuli/002323_2014-06-28_20-01-54_260595134347_rgbf000051-resize_4/002323_2014-06-28_20-01-54_260595134347_rgbf000051-resize_4-target.png,250,3.515,3.731,1,1556,501,250,502,248,499,feet,,,,,1363652,1476791,56
312710,DepthScenes,duration_discrimination,discrim_jsons/d0_rotated.json,http://54.173.234.186/DepthDuration/depth_discrimination_MTurk/DepthDiscrim_HTML.html#3,3,2270,1177,2560,1440,6-19-2021,16-43-21,30,depth_discrimination_stimuli/000522_2014-06-08_13-35-06_260595134347_rgbf000244-resize_1/000522_2014-06-08_13-35-06_260595134347_rgbf000244-resize_1-target.png,depth_discrimination_stimuli/001092_2014-06-15_17-34-58_260595134347_rgbf000171-resize_3/001092_2014-06-15_17-34-58_260595134347_rgbf000171-resize_3-target.png,250,2.3715,2.6935,0,1289,504,247,501,252,499,feet,,,,,1363652,1476791,56
312710,DepthScenes,duration_discrimination,discrim_jsons/d0_rotated.json,http://54.173.234.186/DepthDuration/depth_discrimination_MTurk/DepthDiscrim_HTML.html#3,3,2270,1177,2560,1440,6-19-2021,16-43-21,31,depth_discrimination_stimuli/002995_2014-06-15_12-31-26_094959634447_rgbf000150-resize_1/002995_2014-06-15_12-31-26_094959634447_rgbf000150-resize_1-target.png,depth_discrimination_stimuli/000739_2014-06-08_18-45-58_260595134347_rgbf000068-resize_1/000739_2014-06-08_18-45-58_260595134347_rgbf000068-resize_1-target.png,1000,3.836,3.534,1,2013,500,1001,500,1001,500,feet,,,,,1363652,1476791,56
312710,DepthScenes,duration_discrimination,discrim_jsons/d0_rotated.json,http://54.173.234.186/DepthDuration/depth_discrimination_MTurk/DepthDiscrim_HTML.html#3,3,2270,1177,2560,1440,6-19-2021,16-43-21,32,depth_discrimination_stimuli/001571_2014-06-20_17-21-32_260595134347_rgbf000089-resize_1/001571_2014-06-20_17-21-32_260595134347_rgbf000089-resize_1-target.png,depth_discrimination_stimuli/002953_2014-06-08_17-32-18_094959634447_rgbf000059-resize_5/002953_2014-06-08_17-32-18_094959634447_rgbf000059-resize_5-target.png,1000,1.86,1.551,1,1591,504,1000,500,1000,500,feet,,,,,1363652,1476791,56
312710,DepthScenes,duration_discrimination,discrim_jsons/d0_rotated.json,http://54.173.234.186/DepthDuration/depth_discrimination_MTurk/DepthDiscrim_HTML.html#3,3,2270,1177,2560,1440,6-19-2021,16-43-21,33,depth_discrimination_stimuli/001724_2014-06-26_19-28-50_260595134347_rgbf000037-resize_7/001724_2014-06-26_19-28-50_260595134347_rgbf000037-resize_7-target.png,depth_discrimination_stimuli/002989_2014-06-15_12-25-03_094959634447_rgbf000150-resize_3/002989_2014-06-15_12-25-03_094959634447_rgbf000150-resize_3-target.png,1000,3.827,4.1975,1,2131,501,1000,504,1000,496,feet,,,,,1363652,1476791,56
312710,DepthScenes,duration_discrimination,discrim_jsons/d0_rotated.json,http://54.173.234.186/DepthDuration/depth_discrimination_MTurk/DepthDiscrim_HTML.html#3,3,2270,1177,2560,1440,6-19-2021,16-43-21,34,depth_discrimination_stimuli/001170_2014-06-17_15-43-44_260595134347_rgbf000096-resize_6/001170_2014-06-17_15-43-44_260595134347_rgbf000096-resize_6-target.png,depth_discrimination_stimuli/002364_2014-06-28_20-11-05_260595134347_rgbf000042-resize_0/002364_2014-06-28_20-11-05_260595134347_rgbf000042-resize_0-target.png,1000,1.191,4.682,0,1950,501,1004,496,1000,504,feet,,,,,1363652,1476791,56
312710,DepthScenes,duration_discrimination,discrim_jsons/d0_rotated.json,http://54.173.234.186/DepthDuration/depth_discrimination_MTurk/DepthDiscrim_HTML.html#3,3,2270,1177,2560,1440,6-19-2021,16-43-21,35,depth_discrimination_stimuli/003228_2014-05-14_13-42-35_094959634447_rgbf000101-resize_1/003228_2014-05-14_13-42-35_094959634447_rgbf000101-resize_1-target.png,depth_discrimination_stimuli/001164_2014-06-17_15-35-46_260595134347_rgbf000085-resize_3/001164_2014-06-17_15-35-46_260595134347_rgbf000085-resize_3-target.png,250,1.968,2.354,0,1419,503,249,502,248,500,feet,,,,,1363652,1476791,56
312710,DepthScenes,duration_discrimination,discrim_jsons/d0_rotated.json,http://54.173.234.186/DepthDuration/depth_discrimination_MTurk/DepthDiscrim_HTML.html#3,3,2270,1177,2560,1440,6-19-2021,16-43-21,36,depth_discrimination_stimuli/000906_2014-06-08_13-35-43_260595134347_rgbf000155-resize_1/000906_2014-06-08_13-35-43_260595134347_rgbf000155-resize_1-target.png,depth_discrimination_stimuli/001059_2014-06-08_21-53-27_260595134347_rgbf000061-resize_4/001059_2014-06-08_21-53-27_260595134347_rgbf000061-resize_4-target.png,250,2.849,2.4185,1,1219,502,252,499,248,500,feet,,,,,1363652,1476791,56
312710,DepthScenes,duration_discrimination,discrim_jsons/d0_rotated.json,http://54.173.234.186/DepthDuration/depth_discrimination_MTurk/DepthDiscrim_HTML.html#3,3,2270,1177,2560,1440,6-19-2021,16-43-21,37,depth_discrimination_stimuli/000866_2014-06-09_20-45-42_260595134347_rgbf000139-resize_1/000866_2014-06-09_20-45-42_260595134347_rgbf000139-resize_1-target.png,depth_discrimination_stimuli/000682_2014-06-08_23-14-58_260595134347_rgbf000041-resize_5/000682_2014-06-08_23-14-58_260595134347_rgbf000041-resize_5-target.png,250,3.2155,2.724,1,1388,501,252,500,248,500,feet,,,,,1363652,1476791,56
312710,DepthScenes,duration_discrimination,discrim_jsons/d0_rotated.json,http://54.173.234.186/DepthDuration/depth_discrimination_MTurk/DepthDiscrim_HTML.html#3,3,2270,1177,2560,1440,6-19-2021,16-43-21,38,depth_discrimination_stimuli/001214_2014-06-17_16-13-55_260595134347_rgbf000111-resize_0/001214_2014-06-17_16-13-55_260595134347_rgbf000111-resize_0-target.png,depth_discrimination_stimuli/000665_2014-06-09_20-42-35_260595134347_rgbf000110-resize_1/000665_2014-06-09_20-42-35_260595134347_rgbf000110-resize_1-target.png,250,2.6505,3.057,0,1378,500,252,500,252,501,feet,,,,,1363652,1476791,56
312710,DepthScenes,duration_discrimination,discrim_jsons/d0_rotated.json,http://54.173.234.186/DepthDuration/depth_discrimination_MTurk/DepthDiscrim_HTML.html#3,3,2270,1177,2560,1440,6-19-2021,16-43-21,39,depth_discrimination_stimuli/001570_2014-06-20_17-21-09_260595134347_rgbf000135-resize_4/001570_2014-06-20_17-21-09_260595134347_rgbf000135-resize_4-target.png,depth_discrimination_stimuli/002375_2014-06-28_20-13-44_260595134347_rgbf000032-resize_1/002375_2014-06-28_20-13-44_260595134347_rgbf000032-resize_1-target.png,250,4.467,4.0175,1,1315,502,250,504,247,500,feet,,,,,1363652,1476791,56
312710,DepthScenes,duration_discrimination,discrim_jsons/d0_rotated.json,http://54.173.234.186/DepthDuration/depth_discrimination_MTurk/DepthDiscrim_HTML.html#3,3,2270,1177,2560,1440,6-19-2021,16-43-21,40,depth_discrimination_stimuli/003288_2014-05-14_21-50-30_094959634447_rgbf000028-resize_3/003288_2014-05-14_21-50-30_094959634447_rgbf000028-resize_3-target.png,depth_discrimination_stimuli/000735_2014-06-08_18-23-50_260595134347_rgbf000163-resize_2/000735_2014-06-08_18-23-50_260595134347_rgbf000163-resize_2-target.png,250,3.877,4.1695,0,1242,505,247,499,252,501,feet,,,,,1363652,1476791,56
312710,DepthScenes,duration_discrimination,discrim_jsons/d0_rotated.json,http://54.173.234.186/DepthDuration/depth_discrimination_MTurk/DepthDiscrim_HTML.html#3,3,2270,1177,2560,1440,6-19-2021,16-43-21,41,depth_discrimination_stimuli/001618_2014-06-20_11-37-31_260595134347_rgbf000027-resize_3/001618_2014-06-20_11-37-31_260595134347_rgbf000027-resize_3-target.png,depth_discrimination_stimuli/001016_2014-06-09_16-16-10_260595134347_rgbf000112-resize_5/001016_2014-06-09_16-16-10_260595134347_rgbf000112-resize_5-target.png,250,1.8725,1.6565,0,963,503,248,500,252,500,feet,,,,,1363652,1476791,56
312710,DepthScenes,duration_discrimination,discrim_jsons/d0_rotated.json,http://54.173.234.186/DepthDuration/depth_discrimination_MTurk/DepthDiscrim_HTML.html#3,3,2270,1177,2560,1440,6-19-2021,16-43-21,42,depth_discrimination_stimuli/002340_2014-06-28_20-05-46_260595134347_rgbf000113-resize_0/002340_2014-06-28_20-05-46_260595134347_rgbf000113-resize_0-target.png,depth_discrimination_stimuli/001264_2014-06-16_16-10-23_260595134347_rgbf000109-resize_1/001264_2014-06-16_16-10-23_260595134347_rgbf000109-resize_1-target.png,1000,2.4735,2.9665,0,2054,500,1001,500,1000,500,feet,,,,,1363652,1476791,56
312710,DepthScenes,duration_discrimination,discrim_jsons/d0_rotated.json,http://54.173.234.186/DepthDuration/depth_discrimination_MTurk/DepthDiscrim_HTML.html#3,3,2270,1177,2560,1440,6-19-2021,16-43-21,43,depth_discrimination_stimuli/000447_2014-06-08_16-15-46_260595134347_rgbf000130-resize_1/000447_2014-06-08_16-15-46_260595134347_rgbf000130-resize_1-target.png,depth_discrimination_stimuli/002988_2014-06-15_12-24-20_094959634447_rgbf000150-resize_1/002988_2014-06-15_12-24-20_094959634447_rgbf000150-resize_1-target.png,1000,4.479,4.767,0,2073,502,1000,500,1000,500,feet,,,,,1363652,1476791,56
312710,DepthScenes,duration_discrimination,discrim_jsons/d0_rotated.json,http://54.173.234.186/DepthDuration/depth_discrimination_MTurk/DepthDiscrim_HTML.html#3,3,2270,1177,2560,1440,6-19-2021,16-43-21,44,depth_discrimination_stimuli/000800_2014-06-08_22-42-09_260595134347_rgbf000095-resize_3/000800_2014-06-08_22-42-09_260595134347_rgbf000095-resize_3-target.png,depth_discrimination_stimuli/002700_2014-06-22_11-27-02_094959634447_rgbf000124-resize_3/002700_2014-06-22_11-27-02_094959634447_rgbf000124-resize_3-target.png,1000,2.8,3.301,0,2000,501,1002,498,1002,500,feet,,,,,1363652,1476791,56
312710,DepthScenes,duration_discrimination,discrim_jsons/d0_rotated.json,http://54.173.234.186/DepthDuration/depth_discrimination_MTurk/DepthDiscrim_HTML.html#3,3,2270,1177,2560,1440,6-19-2021,16-43-21,45,depth_discrimination_stimuli/000917_2014-06-09_22-45-29_260595134347_rgbf000149-resize_3/000917_2014-06-09_22-45-29_260595134347_rgbf000149-resize_3-target.png,depth_discrimination_stimuli/003081_2014-06-15_15-19-16_094959634447_rgbf000150-resize_1/003081_2014-06-15_15-19-16_094959634447_rgbf000150-resize_1-target.png,250,4.1865,3.9125,1,1384,502,251,501,248,500,feet,,,,,1363652,1476791,56
312710,DepthScenes,duration_discrimination,discrim_jsons/d0_rotated.json,http://54.173.234.186/DepthDuration/depth_discrimination_MTurk/DepthDiscrim_HTML.html#3,3,2270,1177,2560,1440,6-19-2021,16-43-21,46,depth_discrimination_stimuli/003010_2014-06-15_12-54-35_094959634447_rgbf000112-resize_0/003010_2014-06-15_12-54-35_094959634447_rgbf000112-resize_0-target.png,depth_discrimination_stimuli/003546_2014-05-22_15-48-53_094959634447_rgbf004816-resize_3/003546_2014-05-22_15-48-53_094959634447_rgbf004816-resize_3-target.png,1000,3.1185,2.62625,1,1947,500,1002,501,1000,500,feet,,,,,1363652,1476791,56
312710,DepthScenes,duration_discrimination,discrim_jsons/d0_rotated.json,http://54.173.234.186/DepthDuration/depth_discrimination_MTurk/DepthDiscrim_HTML.html#3,3,2270,1177,2560,1440,6-19-2021,16-43-21,47,depth_discrimination_stimuli/000569_2014-06-09_22-51-47_260595134347_rgbf000141-resize_3/000569_2014-06-09_22-51-47_260595134347_rgbf000141-resize_3-target.png,depth_discrimination_stimuli/000868_2014-06-09_20-49-52_260595134347_rgbf000064-resize_4/000868_2014-06-09_20-49-52_260595134347_rgbf000064-resize_4-target.png,250,4.512,1.2815,1,1256,500,250,502,253,496,feet,,,,,1363652,1476791,56
312710,DepthScenes,duration_discrimination,discrim_jsons/d0_rotated.json,http://54.173.234.186/DepthDuration/depth_discrimination_MTurk/DepthDiscrim_HTML.html#3,3,2270,1177,2560,1440,6-19-2021,16-43-21,48,depth_discrimination_stimuli/002875_2014-06-01_15-19-00_094959634447_rgbf000151-resize_1/002875_2014-06-01_15-19-00_094959634447_rgbf000151-resize_1-target.png,depth_discrimination_stimuli/000749_2014-06-08_21-55-06_260595134347_rgbf000070-resize_2/000749_2014-06-08_21-55-06_260595134347_rgbf000070-resize_2-target.png,250,1.9675,2.331,0,1969,500,251,501,249,502,feet,,,,,1363652,1476791,56
312710,DepthScenes,duration_discrimination,discrim_jsons/d0_rotated.json,http://54.173.234.186/DepthDuration/depth_discrimination_MTurk/DepthDiscrim_HTML.html#3,3,2270,1177,2560,1440,6-19-2021,16-43-21,49,depth_discrimination_stimuli/000830_2014-06-04_19-49-31_260595134347_rgbf000096-resize_2/000830_2014-06-04_19-49-31_260595134347_rgbf000096-resize_2-target.png,depth_discrimination_stimuli/000929_2014-06-09_16-33-19_260595134347_rgbf000139-resize_0/000929_2014-06-09_16-33-19_260595134347_rgbf000139-resize_0-target.png,250,2.6353333333333,2.868,1,1363,501,252,501,248,499,feet,,,,,1363652,1476791,56
312710,DepthScenes,duration_discrimination,discrim_jsons/d0_rotated.json,http://54.173.234.186/DepthDuration/depth_discrimination_MTurk/DepthDiscrim_HTML.html#3,3,2270,1177,2560,1440,6-19-2021,16-43-21,50,depth_discrimination_stimuli/000953_2014-06-08_11-42-19_260595134347_rgbf000083-resize_0/000953_2014-06-08_11-42-19_260595134347_rgbf000083-resize_0-target.png,depth_discrimination_stimuli/000787_2014-06-08_22-33-53_260595134347_rgbf000175-resize_1/000787_2014-06-08_22-33-53_260595134347_rgbf000175-resize_1-target.png,1000,1.369,4.784,0,1996,501,1004,496,1004,496,feet,,,,,1363652,1476791,56
312710,DepthScenes,duration_discrimination,discrim_jsons/d0_rotated.json,http://54.173.234.186/DepthDuration/depth_discrimination_MTurk/DepthDiscrim_HTML.html#3,3,2270,1177,2560,1440,6-19-2021,16-43-21,51,depth_discrimination_stimuli/001136_2014-06-17_15-19-41_260595134347_rgbf000076-resize_3/001136_2014-06-17_15-19-41_260595134347_rgbf000076-resize_3-target.png,depth_discrimination_stimuli/000869_2014-06-09_20-50-18_260595134347_rgbf000060-resize_3/000869_2014-06-09_20-50-18_260595134347_rgbf000060-resize_3-target.png,250,1.8655,2.266,1,950,502,249,500,252,498,feet,,,,,1363652,1476791,56
312710,DepthScenes,duration_discrimination,discrim_jsons/d0_rotated.json,http://54.173.234.186/DepthDuration/depth_discrimination_MTurk/DepthDiscrim_HTML.html#3,3,2270,1177,2560,1440,6-19-2021,16-43-21,52,depth_discrimination_stimuli/001815_2014-06-26_20-52-55_260595134347_rgbf000020-resize_0/001815_2014-06-26_20-52-55_260595134347_rgbf000020-resize_0-target.png,depth_discrimination_stimuli/000642_2014-06-08_16-59-25_260595134347_rgbf000098-resize_2/000642_2014-06-08_16-59-25_260595134347_rgbf000098-resize_2-target.png,1000,3.3865,2.8815,1,2113,502,1000,500,999,503,feet,,,,,1363652,1476791,56
312710,DepthScenes,duration_discrimination,discrim_jsons/d0_rotated.json,http://54.173.234.186/DepthDuration/depth_discrimination_MTurk/DepthDiscrim_HTML.html#3,3,2270,1177,2560,1440,6-19-2021,16-43-21,53,depth_discrimination_stimuli/000368_2014-06-09_15-53-01_260595134347_rgbf000155-resize_2/000368_2014-06-09_15-53-01_260595134347_rgbf000155-resize_2-target.png,depth_discrimination_stimuli/002199_2014-06-28_18-33-56_260595134347_rgbf000074-resize_0/002199_2014-06-28_18-33-56_260595134347_rgbf000074-resize_0-target.png,250,2.486,1.996,1,1396,503,252,496,250,503,feet,,,,,1363652,1476791,56
312710,DepthScenes,duration_discrimination,discrim_jsons/d0_rotated.json,http://54.173.234.186/DepthDuration/depth_discrimination_MTurk/DepthDiscrim_HTML.html#3,3,2270,1177,2560,1440,6-19-2021,16-43-21,54,depth_discrimination_stimuli/002788_2014-06-22_19-36-03_094959634447_rgbf000088-resize_2/002788_2014-06-22_19-36-03_094959634447_rgbf000088-resize_2-target.png,depth_discrimination_stimuli/001289_2014-06-16_16-25-52_260595134347_rgbf000067-resize_1/001289_2014-06-16_16-25-52_260595134347_rgbf000067-resize_1-target.png,1000,1.6465,1.8835,1,1969,500,1005,497,1001,499,feet,,,,,1363652,1476791,56
312710,DepthScenes,duration_discrimination,discrim_jsons/d0_rotated.json,http://54.173.234.186/DepthDuration/depth_discrimination_MTurk/DepthDiscrim_HTML.html#3,3,2270,1177,2560,1440,6-19-2021,16-43-21,55,depth_discrimination_stimuli/000191_2014-05-12_17-07-38_260595134347_rgbf000199-resize_0/000191_2014-05-12_17-07-38_260595134347_rgbf000199-resize_0-target.png,depth_discrimination_stimuli/000780_2014-06-08_22-28-29_260595134347_rgbf000126-resize_1/000780_2014-06-08_22-28-29_260595134347_rgbf000126-resize_1-target.png,1000,3.7995,3.3825,1,1896,501,1000,500,1004,496,feet,,,,,1363652,1476791,56
312710,DepthScenes,duration_discrimination,discrim_jsons/d0_rotated.json,http://54.173.234.186/DepthDuration/depth_discrimination_MTurk/DepthDiscrim_HTML.html#3,3,2270,1177,2560,1440,6-19-2021,16-43-21,56,depth_discrimination_stimuli/003495_2014-05-21_16-01-51_094959634447_rgbf000100-resize_3/003495_2014-05-21_16-01-51_094959634447_rgbf000100-resize_3-target.png,depth_discrimination_stimuli/001167_2014-06-17_15-38-07_260595134347_rgbf000108-resize_0/001167_2014-06-17_15-38-07_260595134347_rgbf000108-resize_0-target.png,250,1.6255,1.8505,1,1353,503,248,500,252,498,feet,,,,,1363652,1476791,56
312710,DepthScenes,duration_discrimination,discrim_jsons/d0_rotated.json,http://54.173.234.186/DepthDuration/depth_discrimination_MTurk/DepthDiscrim_HTML.html#3,3,2270,1177,2560,1440,6-19-2021,16-43-21,57,depth_discrimination_stimuli/001498_2014-06-19_17-45-14_260595134347_rgbf000129-resize_4/001498_2014-06-19_17-45-14_260595134347_rgbf000129-resize_4-target.png,depth_discrimination_stimuli/003125_2014-05-12_10-39-22_094959634447_rgbf000100-resize_0/003125_2014-05-12_10-39-22_094959634447_rgbf000100-resize_0-target.png,250,1.4075,4.8655,0,977,504,247,500,252,500,feet,,,,,1363652,1476791,56
312710,DepthScenes,duration_discrimination,discrim_jsons/d0_rotated.json,http://54.173.234.186/DepthDuration/depth_discrimination_MTurk/DepthDiscrim_HTML.html#3,3,2270,1177,2560,1440,6-19-2021,16-43-21,58,depth_discrimination_stimuli/001181_2014-06-17_15-50-57_260595134347_rgbf000106-resize_4/001181_2014-06-17_15-50-57_260595134347_rgbf000106-resize_4-target.png,depth_discrimination_stimuli/002425_2014-06-28_20-27-29_260595134347_rgbf000031-resize_8/002425_2014-06-28_20-27-29_260595134347_rgbf000031-resize_8-target.png,250,4.149,3.896,0,1488,503,253,495,253,499,feet,,,,,1363652,1476791,56
312710,DepthScenes,duration_discrimination,discrim_jsons/d0_rotated.json,http://54.173.234.186/DepthDuration/depth_discrimination_MTurk/DepthDiscrim_HTML.html#3,3,2270,1177,2560,1440,6-19-2021,16-43-21,59,depth_discrimination_stimuli/002805_2014-06-22_19-54-03_094959634447_rgbf000079-resize_1/002805_2014-06-22_19-54-03_094959634447_rgbf000079-resize_1-target.png,depth_discrimination_stimuli/003292_2014-05-14_21-53-49_094959634447_rgbf000100-resize_2/003292_2014-05-14_21-53-49_094959634447_rgbf000100-resize_2-target.png,1000,3.144,3.4815,1,2013,504,1000,500,997,503,feet,,,,,1363652,1476791,56
312710,DepthScenes,duration_discrimination,discrim_jsons/d0_rotated.json,http://54.173.234.186/DepthDuration/depth_discrimination_MTurk/DepthDiscrim_HTML.html#3,3,2270,1177,2560,1440,6-19-2021,16-43-21,60,depth_discrimination_stimuli/002637_2014-06-24_14-51-13_094959634447_rgbf000066-resize_4/002637_2014-06-24_14-51-13_094959634447_rgbf000066-resize_4-target.png,depth_discrimination_stimuli/000720_2014-06-08_18-37-27_260595134347_rgbf000203-resize_4/000720_2014-06-08_18-37-27_260595134347_rgbf000203-resize_4-target.png,1000,1.9955,1.558,0,2515,502,998,503,998,502,feet,,,,,1363652,1476791,56
312710,DepthScenes,duration_discrimination,discrim_jsons/d0_rotated.json,http://54.173.234.186/DepthDuration/depth_discrimination_MTurk/DepthDiscrim_HTML.html#3,3,2270,1177,2560,1440,6-19-2021,16-43-21,61,depth_discrimination_stimuli/003083_2014-06-15_15-21-03_094959634447_rgbf000063-resize_1/003083_2014-06-15_15-21-03_094959634447_rgbf000063-resize_1-target.png,depth_discrimination_stimuli/001417_2014-06-19_16-25-36_260595134347_rgbf000115-resize_5/001417_2014-06-19_16-25-36_260595134347_rgbf000115-resize_5-target.png,250,4.1405,4.6255,1,1476,504,248,500,252,499,feet,,,,,1363652,1476791,56
312710,DepthScenes,duration_discrimination,discrim_jsons/d0_rotated.json,http://54.173.234.186/DepthDuration/depth_discrimination_MTurk/DepthDiscrim_HTML.html#3,3,2270,1177,2560,1440,6-19-2021,16-43-21,62,depth_discrimination_stimuli/000788_2014-06-08_22-34-36_260595134347_rgbf000131-resize_1/000788_2014-06-08_22-34-36_260595134347_rgbf000131-resize_1-target.png,depth_discrimination_stimuli/000521_2014-06-08_13-34-35_260595134347_rgbf000191-resize_2/000521_2014-06-08_13-34-35_260595134347_rgbf000191-resize_2-target.png,250,3.359,3.0385,1,1411,504,247,501,250,502,feet,,,,,1363652,1476791,56
312710,DepthScenes,duration_discrimination,discrim_jsons/d0_rotated.json,http://54.173.234.186/DepthDuration/depth_discrimination_MTurk/DepthDiscrim_HTML.html#3,3,2270,1177,2560,1440,6-19-2021,16-43-21,63,depth_discrimination_stimuli/003092_2014-06-24_21-01-49_094959634447_rgbf000049-resize_2/003092_2014-06-24_21-01-49_094959634447_rgbf000049-resize_2-target.png,depth_discrimination_stimuli/000753_2014-06-08_21-57-44_260595134347_rgbf000123-resize_3/000753_2014-06-08_21-57-44_260595134347_rgbf000123-resize_3-target.png,1000,1.666,1.916,0,2481,501,1000,500,1000,500,feet,,,,,1363652,1476791,56
312710,DepthScenes,duration_discrimination,discrim_jsons/d0_rotated.json,http://54.173.234.186/DepthDuration/depth_discrimination_MTurk/DepthDiscrim_HTML.html#3,3,2270,1177,2560,1440,6-19-2021,16-43-21,64,depth_discrimination_stimuli/003338_2014-05-20_11-01-23_094959634447_rgbf000051-resize_6/003338_2014-05-20_11-01-23_094959634447_rgbf000051-resize_6-target.png,depth_discrimination_stimuli/000878_2014-06-08_22-52-45_260595134347_rgbf000045-resize_2/000878_2014-06-08_22-52-45_260595134347_rgbf000045-resize_2-target.png,1000,1.693,2.092,0,1748,503,998,502,1000,502,feet,,,,,1363652,1476791,56
312710,DepthScenes,duration_discrimination,discrim_jsons/d0_rotated.json,http://54.173.234.186/DepthDuration/depth_discrimination_MTurk/DepthDiscrim_HTML.html#3,3,2270,1177,2560,1440,6-19-2021,16-43-21,65,depth_discrimination_stimuli/000636_2014-06-08_16-39-02_260595134347_rgbf000108-resize_4/000636_2014-06-08_16-39-02_260595134347_rgbf000108-resize_4-target.png,depth_discrimination_stimuli/002568_2014-06-24_13-59-21_094959634447_rgbf000062-resize_4/002568_2014-06-24_13-59-21_094959634447_rgbf000062-resize_4-target.png,250,2.682,3.015,0,1717,501,251,500,250,502,feet,,,,,1363652,1476791,56
312710,DepthScenes,duration_discrimination,discrim_jsons/d0_rotated.json,http://54.173.234.186/DepthDuration/depth_discrimination_MTurk/DepthDiscrim_HTML.html#3,3,2270,1177,2560,1440,6-19-2021,16-43-21,66,depth_discrimination_stimuli/003423_2014-05-21_10-23-26_094959634447_rgbf002665-resize_2/003423_2014-05-21_10-23-26_094959634447_rgbf002665-resize_2-target.png,depth_discrimination_stimuli/001235_2014-06-17_16-37-36_260595134347_rgbf000084-resize_4/001235_2014-06-17_16-37-36_260595134347_rgbf000084-resize_4-target.png,1000,3.2575,3.6605,0,2032,501,1002,500,1000,500,feet,,,,,1363652,1476791,56
312710,DepthScenes,duration_discrimination,discrim_jsons/d0_rotated.json,http://54.173.234.186/DepthDuration/depth_discrimination_MTurk/DepthDiscrim_HTML.html#3,3,2270,1177,2560,1440,6-19-2021,16-43-21,67,depth_discrimination_stimuli/000927_2014-06-09_16-32-30_260595134347_rgbf000123-resize_3/000927_2014-06-09_16-32-30_260595134347_rgbf000123-resize_3-target.png,depth_discrimination_stimuli/001810_2014-06-26_20-51-35_260595134347_rgbf000040-resize_3/001810_2014-06-26_20-51-35_260595134347_rgbf000040-resize_3-target.png,250,2.6785,2.2525,1,1269,502,249,500,252,498,feet,,,,,1363652,1476791,56
312710,DepthScenes,duration_discrimination,discrim_jsons/d0_rotated.json,http://54.173.234.186/DepthDuration/depth_discrimination_MTurk/DepthDiscrim_HTML.html#3,3,2270,1177,2560,1440,6-19-2021,16-43-21,68,depth_discrimination_stimuli/000758_2014-06-08_22-05-08_260595134347_rgbf000085-resize_0/000758_2014-06-08_22-05-08_260595134347_rgbf000085-resize_0-target.png,depth_discrimination_stimuli/003070_2014-06-15_14-58-27_094959634447_rgbf000150-resize_3/003070_2014-06-15_14-58-27_094959634447_rgbf000150-resize_3-target.png,1000,3.381,2.9415,0,1924,502,999,501,1000,501,feet,,,,,1363652,1476791,56
312710,DepthScenes,duration_discrimination,discrim_jsons/d0_rotated.json,http://54.173.234.186/DepthDuration/depth_discrimination_MTurk/DepthDiscrim_HTML.html#3,3,2270,1177,2560,1440,6-19-2021,16-43-21,69,depth_discrimination_stimuli/002139_2014-06-25_21-19-37_260595134347_rgbf000124-resize_2/002139_2014-06-25_21-19-37_260595134347_rgbf000124-resize_2-target.png,depth_discrimination_stimuli/000549_2014-06-08_22-10-24_260595134347_rgbf000247-resize_3/000549_2014-06-08_22-10-24_260595134347_rgbf000247-resize_3-target.png,250,2.107,1.841,1,985,500,251,501,251,501,feet,,,,,1363652,1476791,56
312710,DepthScenes,duration_discrimination,discrim_jsons/d0_rotated.json,http://54.173.234.186/DepthDuration/depth_discrimination_MTurk/DepthDiscrim_HTML.html#3,3,2270,1177,2560,1440,6-19-2021,16-43-21,70,depth_discrimination_stimuli/001029_2014-06-08_13-17-57_260595134347_rgbf000065-resize_1/001029_2014-06-08_13-17-57_260595134347_rgbf000065-resize_1-target.png,depth_discrimination_stimuli/001199_2014-06-17_16-03-48_260595134347_rgbf000077-resize_0/001199_2014-06-17_16-03-48_260595134347_rgbf000077-resize_0-target.png,250,3.0835,3.4375,0,1299,500,254,499,249,500,feet,,,,,1363652,1476791,56
312710,DepthScenes,duration_discrimination,discrim_jsons/d0_rotated.json,http://54.173.234.186/DepthDuration/depth_discrimination_MTurk/DepthDiscrim_HTML.html#3,3,2270,1177,2560,1440,6-19-2021,16-43-21,71,depth_discrimination_stimuli/001133_2014-06-17_14-49-16_260595134347_rgbf000100-resize_0/001133_2014-06-17_14-49-16_260595134347_rgbf000100-resize_0-target.png,depth_discrimination_stimuli/001617_2014-06-20_11-35-32_260595134347_rgbf000066-resize_1/001617_2014-06-20_11-35-32_260595134347_rgbf000066-resize_1-target.png,1000,4.2115,3.791,1,1893,501,1004,496,1000,501,feet,,,,,1363652,1476791,56
312710,DepthScenes,duration_discrimination,discrim_jsons/d0_rotated.json,http://54.173.234.186/DepthDuration/depth_discrimination_MTurk/DepthDiscrim_HTML.html#3,3,2270,1177,2560,1440,6-19-2021,16-43-21,72,depth_discrimination_stimuli/000009_2014-05-26_14-32-05_260595134347_rgbf000034-resize_3/000009_2014-05-26_14-32-05_260595134347_rgbf000034-resize_3-target.png,depth_discrimination_stimuli/002660_2014-06-13_15-44-18_094959634447_rgbf001878-resize_2/002660_2014-06-13_15-44-18_094959634447_rgbf001878-resize_2-target.png,1000,3.8715,3.576,1,1876,500,1003,501,998,501,feet,,,,,1363652,1476791,56
312710,DepthScenes,duration_discrimination,discrim_jsons/d0_rotated.json,http://54.173.234.186/DepthDuration/depth_discrimination_MTurk/DepthDiscrim_HTML.html#3,3,2270,1177,2560,1440,6-19-2021,16-43-21,73,depth_discrimination_stimuli/001150_2014-06-17_15-27-34_260595134347_rgbf000108-resize_2/001150_2014-06-17_15-27-34_260595134347_rgbf000108-resize_2-target.png,depth_discrimination_stimuli/000677_2014-06-08_23-10-32_260595134347_rgbf000158-resize_6/000677_2014-06-08_23-10-32_260595134347_rgbf000158-resize_6-target.png,250,4.0325,3.556,1,1284,500,251,500,252,500,feet,,,,,1363652,1476791,56
312710,DepthScenes,duration_discrimination,discrim_jsons/d0_rotated.json,http://54.173.234.186/DepthDuration/depth_discrimination_MTurk/DepthDiscrim_HTML.html#3,3,2270,1177,2560,1440,6-19-2021,16-43-21,74,depth_discrimination_stimuli/002663_2014-06-13_15-50-26_094959634447_rgbf000075-resize_1/002663_2014-06-13_15-50-26_094959634447_rgbf000075-resize_1-target.png,depth_discrimination_stimuli/000414_2014-06-04_19-49-13_260595134347_rgbf000044-resize_0/000414_2014-06-04_19-49-13_260595134347_rgbf000044-resize_0-target.png,1000,4.7495,4.329,0,1929,504,1000,498,1002,500,feet,,,,,1363652,1476791,56
312710,DepthScenes,duration_discrimination,discrim_jsons/d0_rotated.json,http://54.173.234.186/DepthDuration/depth_discrimination_MTurk/DepthDiscrim_HTML.html#3,3,2270,1177,2560,1440,6-19-2021,16-43-21,75,depth_discrimination_stimuli/002964_2014-06-08_17-46-11_094959634447_rgbf000091-resize_4/002964_2014-06-08_17-46-11_094959634447_rgbf000091-resize_4-target.png,depth_discrimination_stimuli/000483_2014-06-09_20-41-45_260595134347_rgbf000116-resize_4/000483_2014-06-09_20-41-45_260595134347_rgbf000116-resize_4-target.png,250,1.691,1.337,1,1239,501,251,499,250,500,feet,,,,,1363652,1476791,56
312710,DepthScenes,duration_discrimination,discrim_jsons/d0_rotated.json,http://54.173.234.186/DepthDuration/depth_discrimination_MTurk/DepthDiscrim_HTML.html#3,3,2270,1177,2560,1440,6-19-2021,16-43-21,76,depth_discrimination_stimuli/002057_2014-06-24_21-00-13_260595134347_rgbf000120-resize_1/002057_2014-06-24_21-00-13_260595134347_rgbf000120-resize_1-target.png,depth_discrimination_stimuli/000505_2014-06-08_23-03-23_260595134347_rgbf000091-resize_0/000505_2014-06-08_23-03-23_260595134347_rgbf000091-resize_0-target.png,1000,2.967,3.3105,1,1625,503,1000,500,1000,499,feet,,,,,1363652,1476791,56
312710,DepthScenes,duration_discrimination,discrim_jsons/d0_rotated.json,http://54.173.234.186/DepthDuration/depth_discrimination_MTurk/DepthDiscrim_HTML.html#3,3,2270,1177,2560,1440,6-19-2021,16-43-21,77,depth_discrimination_stimuli/001188_2014-06-17_15-54-10_260595134347_rgbf000090-resize_2/001188_2014-06-17_15-54-10_260595134347_rgbf000090-resize_2-target.png,depth_discrimination_stimuli/002750_2014-06-22_19-08-03_094959634447_rgbf000094-resize_4/002750_2014-06-22_19-08-03_094959634447_rgbf000094-resize_4-target.png,250,2.744,2.354,0,1285,502,247,500,252,500,feet,,,,,1363652,1476791,56
312710,DepthScenes,duration_discrimination,discrim_jsons/d0_rotated.json,http://54.173.234.186/DepthDuration/depth_discrimination_MTurk/DepthDiscrim_HTML.html#3,3,2270,1177,2560,1440,6-19-2021,16-43-21,78,depth_discrimination_stimuli/002072_2014-06-24_21-48-06_260595134347_rgbf000115-resize_0/002072_2014-06-24_21-48-06_260595134347_rgbf000115-resize_0-target.png,depth_discrimination_stimuli/001012_2014-06-08_23-19-38_260595134347_rgbf000057-resize_0/001012_2014-06-08_23-19-38_260595134347_rgbf000057-resize_0-target.png,250,4.702,1.38325,1,911,502,254,495,250,502,feet,,,,,1363652,1476791,56
312710,DepthScenes,duration_discrimination,discrim_jsons/d0_rotated.json,http://54.173.234.186/DepthDuration/depth_discrimination_MTurk/DepthDiscrim_HTML.html#3,3,2270,1177,2560,1440,6-19-2021,16-43-21,79,depth_discrimination_stimuli/000555_2014-06-09_22-42-23_260595134347_rgbf000037-resize_4/000555_2014-06-09_22-42-23_260595134347_rgbf000037-resize_4-target.png,depth_discrimination_stimuli/001110_2014-06-15_17-25-28_260595134347_rgbf000150-resize_1/001110_2014-06-15_17-25-28_260595134347_rgbf000150-resize_1-target.png,250,1.9765,1.7115,1,1476,500,253,499,249,499,feet,,,,,1363652,1476791,56
312710,DepthScenes,duration_discrimination,discrim_jsons/d0_rotated.json,http://54.173.234.186/DepthDuration/depth_discrimination_MTurk/DepthDiscrim_HTML.html#3,3,2270,1177,2560,1440,6-19-2021,16-43-21,80,depth_discrimination_stimuli/002763_2014-06-22_19-13-10_094959634447_rgbf000075-resize_4/002763_2014-06-22_19-13-10_094959634447_rgbf000075-resize_4-target.png,depth_discrimination_stimuli/001244_2014-06-17_16-47-45_260595134347_rgbf000030-resize_4/001244_2014-06-17_16-47-45_260595134347_rgbf000030-resize_4-target.png,1000,1.68375,2.0425,0,2218,501,1000,503,1001,500,feet,,,,,1363652,1476791,56
312710,DepthScenes,duration_discrimination,discrim_jsons/d0_rotated.json,http://54.173.234.186/DepthDuration/depth_discrimination_MTurk/DepthDiscrim_HTML.html#3,3,2270,1177,2560,1440,6-19-2021,16-43-21,81,depth_discrimination_stimuli/003492_2014-05-21_15-50-55_094959634447_rgbf000828-resize_1/003492_2014-05-21_15-50-55_094959634447_rgbf000828-resize_1-target.png,depth_discrimination_stimuli/001158_2014-06-17_15-32-16_260595134347_rgbf000138-resize_2/001158_2014-06-17_15-32-16_260595134347_rgbf000138-resize_2-target.png,250,4.06875,4.5315,1,1547,500,250,502,251,501,feet,,,,,1363652,1476791,56
312710,DepthScenes,duration_discrimination,discrim_jsons/d0_rotated.json,http://54.173.234.186/DepthDuration/depth_discrimination_MTurk/DepthDiscrim_HTML.html#3,3,2270,1177,2560,1440,6-19-2021,16-43-21,82,depth_discrimination_stimuli/001584_2014-06-20_11-07-43_260595134347_rgbf000002-resize_1/001584_2014-06-20_11-07-43_260595134347_rgbf000002-resize_1-target.png,depth_discrimination_stimuli/002570_2014-06-24_13-59-54_094959634447_rgbf000059-resize_0/002570_2014-06-24_13-59-54_094959634447_rgbf000059-resize_0-target.png,250,3.53,4.037,1,1399,503,251,496,252,499,feet,,,,,1363652,1476791,56
312710,DepthScenes,duration_discrimination,discrim_jsons/d0_rotated.json,http://54.173.234.186/DepthDuration/depth_discrimination_MTurk/DepthDiscrim_HTML.html#3,3,2270,1177,2560,1440,6-19-2021,16-43-21,83,depth_discrimination_stimuli/000742_2014-06-08_18-48-09_260595134347_rgbf000164-resize_4/000742_2014-06-08_18-48-09_260595134347_rgbf000164-resize_4-target.png,depth_discrimination_stimuli/000773_2014-06-08_22-24-54_260595134347_rgbf000093-resize_1/000773_2014-06-08_22-24-54_260595134347_rgbf000093-resize_1-target.png,250,4.632,4.973,0,1256,501,253,499,249,500,feet,,,,,1363652,1476791,56
312710,DepthScenes,duration_discrimination,discrim_jsons/d0_rotated.json,http://54.173.234.186/DepthDuration/depth_discrimination_MTurk/DepthDiscrim_HTML.html#3,3,2270,1177,2560,1440,6-19-2021,16-43-21,84,depth_discrimination_stimuli/002987_2014-06-08_18-48-20_094959634447_rgbf000022-resize_0/002987_2014-06-08_18-48-20_094959634447_rgbf000022-resize_0-target.png,depth_discrimination_stimuli/000502_2014-06-08_23-02-32_260595134347_rgbf000063-resize_4/000502_2014-06-08_23-02-32_260595134347_rgbf000063-resize_4-target.png,1000,2.6775,2.431,1,2005,501,1000,501,999,500,feet,,,,,1363652,1476791,56
312710,DepthScenes,duration_discrimination,discrim_jsons/d0_rotated.json,http://54.173.234.186/DepthDuration/depth_discrimination_MTurk/DepthDiscrim_HTML.html#3,3,2270,1177,2560,1440,6-19-2021,16-43-21,85,depth_discrimination_stimuli/002905_2014-06-03_18-04-43_094959634447_rgbf000151-resize_2/002905_2014-06-03_18-04-43_094959634447_rgbf000151-resize_2-target.png,depth_discrimination_stimuli/000740_2014-06-08_18-46-23_260595134347_rgbf000049-resize_6/000740_2014-06-08_18-46-23_260595134347_rgbf000049-resize_6-target.png,1000,2.0295,1.687,0,2084,500,1002,500,1003,497,feet,,,,,1363652,1476791,56
312710,DepthScenes,duration_discrimination,discrim_jsons/d0_rotated.json,http://54.173.234.186/DepthDuration/depth_discrimination_MTurk/DepthDiscrim_HTML.html#3,3,2270,1177,2560,1440,6-19-2021,16-43-21,86,depth_discrimination_stimuli/002675_2014-06-13_16-08-49_094959634447_rgbf000151-resize_2/002675_2014-06-13_16-08-49_094959634447_rgbf000151-resize_2-target.png,depth_discrimination_stimuli/001222_2014-06-17_16-24-06_260595134347_rgbf000073-resize_0/001222_2014-06-17_16-24-06_260595134347_rgbf000073-resize_0-target.png,1000,4.5065,1.4385,1,1929,504,1000,500,997,503,feet,,,,,1363652,1476791,56
312710,DepthScenes,duration_discrimination,discrim_jsons/d0_rotated.json,http://54.173.234.186/DepthDuration/depth_discrimination_MTurk/DepthDiscrim_HTML.html#3,3,2270,1177,2560,1440,6-19-2021,16-43-21,87,depth_discrimination_stimuli/000109_2014-05-14_23-41-52_260595134347_rgbf000035-resize_9/000109_2014-05-14_23-41-52_260595134347_rgbf000035-resize_9-target.png,depth_discrimination_stimuli/000470_2014-06-09_19-42-40_260595134347_rgbf000094-resize_1/000470_2014-06-09_19-42-40_260595134347_rgbf000094-resize_1-target.png,1000,1.3545,1.831,0,1889,504,999,500,1000,500,feet,,,,,1363652,1476791,56
312710,DepthScenes,duration_discrimination,discrim_jsons/d0_rotated.json,http://54.173.234.186/DepthDuration/depth_discrimination_MTurk/DepthDiscrim_HTML.html#3,3,2270,1177,2560,1440,6-19-2021,16-43-21,88,depth_discrimination_stimuli/003079_2014-06-15_15-18-20_094959634447_rgbf000152-resize_8/003079_2014-06-15_15-18-20_094959634447_rgbf000152-resize_8-target.png,depth_discrimination_stimuli/001056_2014-06-08_18-46-44_260595134347_rgbf000068-resize_0/001056_2014-06-08_18-46-44_260595134347_rgbf000068-resize_0-target.png,250,2.8775,2.6625,0,1263,502,253,495,252,501,feet,,,,,1363652,1476791,56
312710,DepthScenes,duration_discrimination,discrim_jsons/d0_rotated.json,http://54.173.234.186/DepthDuration/depth_discrimination_MTurk/DepthDiscrim_HTML.html#3,3,2270,1177,2560,1440,6-19-2021,16-43-21,89,depth_discrimination_stimuli/002153_2014-06-25_21-27-18_260595134347_rgbf000038-resize_5/002153_2014-06-25_21-27-18_260595134347_rgbf000038-resize_5-target.png,depth_discrimination_stimuli/002725_2014-06-22_11-47-51_094959634447_rgbf000070-resize_1/002725_2014-06-22_11-47-51_094959634447_rgbf000070-resize_1-target.png,1000,2.505,2.195,1,2046,501,1001,500,1004,495,feet,,,,,1363652,1476791,56
312710,DepthScenes,duration_discrimination,discrim_jsons/d0_rotated.json,http://54.173.234.186/DepthDuration/depth_discrimination_MTurk/DepthDiscrim_HTML.html#3,3,2270,1177,2560,1440,6-19-2021,16-43-21,90,depth_discrimination_stimuli/001828_2014-06-26_21-40-03_260595134347_rgbf000024-resize_0/001828_2014-06-26_21-40-03_260595134347_rgbf000024-resize_0-target.png,depth_discrimination_stimuli/002414_2014-06-28_20-24-58_260595134347_rgbf000067-resize_4/002414_2014-06-28_20-24-58_260595134347_rgbf000067-resize_4-target.png,1000,4.826,4.363,0,1962,504,1001,500,1000,499,feet,,,,,1363652,1476791,56
312710,DepthScenes,duration_discrimination,discrim_jsons/d0_rotated.json,http://54.173.234.186/DepthDuration/depth_discrimination_MTurk/DepthDiscrim_HTML.html#3,3,2270,1177,2560,1440,6-19-2021,16-43-21,91,depth_discrimination_stimuli/003490_2014-05-21_15-50-11_094959634447_rgbf000101-resize_3/003490_2014-05-21_15-50-11_094959634447_rgbf000101-resize_3-target.png,depth_discrimination_stimuli/001392_2014-06-19_16-07-59_260595134347_rgbf000046-resize_1/001392_2014-06-19_16-07-59_260595134347_rgbf000046-resize_1-target.png,1000,3.6445,4.135,0,1916,504,997,501,1000,500,feet,,,,,1363652,1476791,56
312710,DepthScenes,duration_discrimination,discrim_jsons/d0_rotated.json,http://54.173.234.186/DepthDuration/depth_discrimination_MTurk/DepthDiscrim_HTML.html#3,3,2270,1177,2560,1440,6-19-2021,16-43-21,92,depth_discrimination_stimuli/002678_2014-06-13_16-15-32_094959634447_rgbf000151-resize_6/002678_2014-06-13_16-15-32_094959634447_rgbf000151-resize_6-target.png,depth_discrimination_stimuli/001011_2014-06-08_23-18-54_260595134347_rgbf000044-resize_4/001011_2014-06-08_23-18-54_260595134347_rgbf000044-resize_4-target.png,1000,2.183,2.473,0,2123,500,1001,503,997,500,feet,,,,,1363652,1476791,56
312710,DepthScenes,duration_discrimination,discrim_jsons/d0_rotated.json,http://54.173.234.186/DepthDuration/depth_discrimination_MTurk/DepthDiscrim_HTML.html#3,3,2270,1177,2560,1440,6-19-2021,16-43-21,93,depth_discrimination_stimuli/002758_2014-06-22_19-11-20_094959634447_rgbf000128-resize_1/002758_2014-06-22_19-11-20_094959634447_rgbf000128-resize_1-target.png,depth_discrimination_stimuli/000854_2014-06-09_19-43-13_260595134347_rgbf000066-resize_0/000854_2014-06-09_19-43-13_260595134347_rgbf000066-resize_0-target.png,1000,2.555,3.068,0,1886,501,1003,497,1004,496,feet,,,,,1363652,1476791,56
312710,DepthScenes,duration_discrimination,discrim_jsons/d0_rotated.json,http://54.173.234.186/DepthDuration/depth_discrimination_MTurk/DepthDiscrim_HTML.html#3,3,2270,1177,2560,1440,6-19-2021,16-43-21,94,depth_discrimination_stimuli/000810_2014-06-08_17-20-01_260595134347_rgbf000105-resize_0/000810_2014-06-08_17-20-01_260595134347_rgbf000105-resize_0-target.png,depth_discrimination_stimuli/000103_2014-05-14_22-01-17_260595134347_rgbf000152-resize_5/000103_2014-05-14_22-01-17_260595134347_rgbf000152-resize_5-target.png,1000,1.4865,1.993,0,1831,502,1000,499,1001,500,feet,,,,,1363652,1476791,56
312710,DepthScenes,duration_discrimination,discrim_jsons/d0_rotated.json,http://54.173.234.186/DepthDuration/depth_discrimination_MTurk/DepthDiscrim_HTML.html#3,3,2270,1177,2560,1440,6-19-2021,16-43-21,95,depth_discrimination_stimuli/002790_2014-06-22_19-36-35_094959634447_rgbf000074-resize_4/002790_2014-06-22_19-36-35_094959634447_rgbf000074-resize_4-target.png,depth_discrimination_stimuli/001032_2014-06-08_13-23-17_260595134347_rgbf000021-resize_3/001032_2014-06-08_13-23-17_260595134347_rgbf000021-resize_3-target.png,1000,3.512,3.2725,0,2293,501,1001,500,999,501,feet,,,,,1363652,1476791,56
312710,DepthScenes,duration_discrimination,discrim_jsons/d0_rotated.json,http://54.173.234.186/DepthDuration/depth_discrimination_MTurk/DepthDiscrim_HTML.html#3,3,2270,1177,2560,1440,6-19-2021,16-43-21,96,depth_discrimination_stimuli/002209_2014-06-28_18-36-10_260595134347_rgbf000051-resize_1/002209_2014-06-28_18-36-10_260595134347_rgbf000051-resize_1-target.png,depth_discrimination_stimuli/001055_2014-06-08_18-45-35_260595134347_rgbf000111-resize_4/001055_2014-06-08_18-45-35_260595134347_rgbf000111-resize_4-target.png,250,2.057,2.429,1,1228,503,248,500,252,499,feet,,,,,1363652,1476791,56
312710,DepthScenes,duration_discrimination,discrim_jsons/d0_rotated.json,http://54.173.234.186/DepthDuration/depth_discrimination_MTurk/DepthDiscrim_HTML.html#3,3,2270,1177,2560,1440,6-19-2021,16-43-21,96,,,,,,,1228,503,248,500,252,499,feet,,,,,1363652,1476791,56
312710,DepthScenes,duration_discrimination,discrim_jsons/d0_rotated.json,http://54.173.234.186/DepthDuration/depth_discrimination_MTurk/DepthDiscrim_HTML.html#3,3,2270,1177,2560,1440,6-19-2021,16-43-21,98,,,,,,,1228,503,248,500,252,499,feet,3,4,depth_discrimination_stimuli/002953_2014-06-08_17-32-18_094959634447_rgbf000059-resize_5/002953_2014-06-08_17-32-18_094959634447_rgbf000059-resize-original.jpg,18168,1363652,1476791,56
312710,DepthScenes,duration_discrimination,discrim_jsons/d0_rotated.json,http://54.173.234.186/DepthDuration/depth_discrimination_MTurk/DepthDiscrim_HTML.html#3,3,2270,1177,2560,1440,6-19-2021,16-43-21,99,,,,,,,1228,503,248,500,252,499,feet,4,4,depth_discrimination_stimuli/002344_2014-06-28_20-06-29_260595134347_rgbf000030-resize_1/002344_2014-06-28_20-06-29_260595134347_rgbf000030-resize-original.jpg,8321,1363652,1476791,56
312710,DepthScenes,duration_discrimination,discrim_jsons/d0_rotated.json,http://54.173.234.186/DepthDuration/depth_discrimination_MTurk/DepthDiscrim_HTML.html#3,3,2270,1177,2560,1440,6-19-2021,16-43-21,100,,,,,,,1228,503,248,500,252,499,feet,4,5,depth_discrimination_stimuli/001175_2014-06-17_15-45-55_260595134347_rgbf000129-resize_4/001175_2014-06-17_15-45-55_260595134347_rgbf000129-resize-original.jpg,5416,1363652,1476791,56
312710,DepthScenes,duration_discrimination,discrim_jsons/d0_rotated.json,http://54.173.234.186/DepthDuration/depth_discrimination_MTurk/DepthDiscrim_HTML.html#3,3,2270,1177,2560,1440,6-19-2021,16-43-21,101,,,,,,,1228,503,248,500,252,499,feet,3,3,depth_discrimination_stimuli/001029_2014-06-08_13-17-57_260595134347_rgbf000065-resize_1/001029_2014-06-08_13-17-57_260595134347_rgbf000065-resize-original.jpg,4128,1363652,1476791,56
312710,DepthScenes,duration_discrimination,discrim_jsons/d0_rotated.json,http://54.173.234.186/DepthDuration/depth_discrimination_MTurk/DepthDiscrim_HTML.html#3,3,2270,1177,2560,1440,6-19-2021,16-43-21,102,,,,,,,1228,503,248,500,252,499,feet,4,4,depth_discrimination_stimuli/001808_2014-06-26_20-50-58_260595134347_rgbf000029-resize_1/001808_2014-06-26_20-50-58_260595134347_rgbf000029-resize-original.jpg,5200,1363652,1476791,56
312710,DepthScenes,duration_discrimination,discrim_jsons/d0_rotated.json,http://54.173.234.186/DepthDuration/depth_discrimination_MTurk/DepthDiscrim_HTML.html#3,3,2270,1177,2560,1440,6-19-2021,16-43-21,103,,,,,,,1228,503,248,500,252,499,feet,3,2,depth_discrimination_stimuli/001066_2014-06-08_22-03-20_260595134347_rgbf000066-resize_4/001066_2014-06-08_22-03-20_260595134347_rgbf000066-resize-original.jpg,6416,1363652,1476791,56
312710,DepthScenes,duration_discrimination,discrim_jsons/d0_rotated.json,http://54.173.234.186/DepthDuration/depth_discrimination_MTurk/DepthDiscrim_HTML.html#3,3,2270,1177,2560,1440,6-19-2021,16-43-21,104,,,,,,,1228,503,248,500,252,499,feet,3,3,depth_discrimination_stimuli/000866_2014-06-09_20-45-42_260595134347_rgbf000139-resize_1/000866_2014-06-09_20-45-42_260595134347_rgbf000139-resize-original.jpg,4248,1363652,1476791,56
312710,DepthScenes,duration_discrimination,discrim_jsons/d0_rotated.json,http://54.173.234.186/DepthDuration/depth_discrimination_MTurk/DepthDiscrim_HTML.html#3,3,2270,1177,2560,1440,6-19-2021,16-43-21,105,,,,,,,1228,503,248,500,252,499,feet,3,2,depth_discrimination_stimuli/000943_2014-06-09_19-31-07_260595134347_rgbf000128-resize_1/000943_2014-06-09_19-31-07_260595134347_rgbf000128-resize-original.jpg,3552,1363652,1476791,56
312710,DepthScenes,duration_discrimination,discrim_jsons/d0_rotated.json,http://54.173.234.186/DepthDuration/depth_discrimination_MTurk/DepthDiscrim_HTML.html#3,3,2270,1177,2560,1440,6-19-2021,16-43-21,106,,,,,,,1228,503,248,500,252,499,feet,3,3,depth_discrimination_stimuli/003490_2014-05-21_15-50-11_094959634447_rgbf000101-resize_3/003490_2014-05-21_15-50-11_094959634447_rgbf000101-resize-original.jpg,4824,1363652,1476791,56
312710,DepthScenes,duration_discrimination,discrim_jsons/d0_rotated.json,http://54.173.234.186/DepthDuration/depth_discrimination_MTurk/DepthDiscrim_HTML.html#3,3,2270,1177,2560,1440,6-19-2021,16-43-21,107,,,,,,,1228,503,248,500,252,499,feet,4,5,depth_discrimination_stimuli/000103_2014-05-14_22-01-17_260595134347_rgbf000152-resize_5/000103_2014-05-14_22-01-17_260595134347_rgbf000152-resize-original.jpg,8728,1363652,1476791,56
312710,DepthScenes,duration_discrimination,discrim_jsons/d0_rotated.json,http://54.173.234.186/DepthDuration/depth_discrimination_MTurk/DepthDiscrim_HTML.html#3,3,2270,1177,2560,1440,6-19-2021,16-43-21,108,,,,,,,1228,503,248,500,252,499,feet,3,3,depth_discrimination_stimuli/002414_2014-06-28_20-24-58_260595134347_rgbf000067-resize_4/002414_2014-06-28_20-24-58_260595134347_rgbf000067-resize-original.jpg,5952,1363652,1476791,56
312710,DepthScenes,duration_discrimination,discrim_jsons/d0_rotated.json,http://54.173.234.186/DepthDuration/depth_discrimination_MTurk/DepthDiscrim_HTML.html#3,3,2270,1177,2560,1440,6-19-2021,16-43-21,109,,,,,,,1228,503,248,500,252,499,feet,3,4,depth_discrimination_stimuli/000691_2014-06-08_13-08-50_260595134347_rgbf000132-resize_3/000691_2014-06-08_13-08-50_260595134347_rgbf000132-resize-original.jpg,5039,1363652,1476791,56
312710,DepthScenes,duration_discrimination,discrim_jsons/d0_rotated.json,http://54.173.234.186/DepthDuration/depth_discrimination_MTurk/DepthDiscrim_HTML.html#3,3,2270,1177,2560,1440,6-19-2021,16-43-21,110,,,,,,,1228,503,248,500,252,499,feet,4,3,depth_discrimination_stimuli/001167_2014-06-17_15-38-07_260595134347_rgbf000108-resize_0/001167_2014-06-17_15-38-07_260595134347_rgbf000108-resize-original.jpg,4392,1363652,1476791,56
312710,DepthScenes,duration_discrimination,discrim_jsons/d0_rotated.json,http://54.173.234.186/DepthDuration/depth_discrimination_MTurk/DepthDiscrim_HTML.html#3,3,2270,1177,2560,1440,6-19-2021,16-43-21,111,,,,,,,1228,503,248,500,252,499,feet,3,3,depth_discrimination_stimuli/001158_2014-06-17_15-32-16_260595134347_rgbf000138-resize_2/001158_2014-06-17_15-32-16_260595134347_rgbf000138-resize-original.jpg,4279,1363652,1476791,56
312710,DepthScenes,duration_discrimination,discrim_jsons/d0_rotated.json,http://54.173.234.186/DepthDuration/depth_discrimination_MTurk/DepthDiscrim_HTML.html#3,3,2270,1177,2560,1440,6-19-2021,16-43-21,112,,,,,,,1228,503,248,500,252,499,feet,4,3,depth_discrimination_stimuli/000642_2014-06-08_16-59-25_260595134347_rgbf000098-resize_2/000642_2014-06-08_16-59-25_260595134347_rgbf000098-resize-original.jpg,4033,1363652,1476791,56
312710,DepthScenes,duration_discrimination,discrim_jsons/d0_rotated.json,http://54.173.234.186/DepthDuration/depth_discrimination_MTurk/DepthDiscrim_HTML.html#3,3,2270,1177,2560,1440,6-19-2021,16-43-21,113,,,,,,,1228,503,248,500,252,499,feet,4,3,depth_discrimination_stimuli/001724_2014-06-26_19-28-50_260595134347_rgbf000037-resize_7/001724_2014-06-26_19-28-50_260595134347_rgbf000037-resize-original.jpg,7631,1363652,1476791,56
312710,DepthScenes,duration_discrimination,discrim_jsons/d0_rotated.json,http://54.173.234.186/DepthDuration/depth_discrimination_MTurk/DepthDiscrim_HTML.html#3,3,2270,1177,2560,1440,6-19-2021,16-43-21,114,,,,,,,1228,503,248,500,252,499,feet,4,2,depth_discrimination_stimuli/002323_2014-06-28_20-01-54_260595134347_rgbf000051-resize_4/002323_2014-06-28_20-01-54_260595134347_rgbf000051-resize-original.jpg,6544,1363652,1476791,56
312710,DepthScenes,duration_discrimination,discrim_jsons/d0_rotated.json,http://54.173.234.186/DepthDuration/depth_discrimination_MTurk/DepthDiscrim_HTML.html#3,3,2270,1177,2560,1440,6-19-2021,16-43-21,115,,,,,,,1228,503,248,500,252,499,feet,3,2,depth_discrimination_stimuli/002639_2014-06-24_14-51-37_094959634447_rgbf000074-resize_4/002639_2014-06-24_14-51-37_094959634447_rgbf000074-resize-original.jpg,3616,1363652,1476791,56
312710,DepthScenes,duration_discrimination,discrim_jsons/d0_rotated.json,http://54.173.234.186/DepthDuration/depth_discrimination_MTurk/DepthDiscrim_HTML.html#3,3,2270,1177,2560,1440,6-19-2021,16-43-21,116,,,,,,,1228,503,248,500,252,499,feet,3,3,depth_discrimination_stimuli/003081_2014-06-15_15-19-16_094959634447_rgbf000150-resize_1/003081_2014-06-15_15-19-16_094959634447_rgbf000150-resize-original.jpg,8736,1363652,1476791,56
312710,DepthScenes,duration_discrimination,discrim_jsons/d0_rotated.json,http://54.173.234.186/DepthDuration/depth_discrimination_MTurk/DepthDiscrim_HTML.html#3,3,2270,1177,2560,1440,6-19-2021,16-43-21,117,,,,,,,1228,503,248,500,252,499,feet,3,4,depth_discrimination_stimuli/000830_2014-06-04_19-49-31_260595134347_rgbf000096-resize_2/000830_2014-06-04_19-49-31_260595134347_rgbf000096-resize-original.jpg,5809,1363652,1476791,56
312710,DepthScenes,duration_discrimination,discrim_jsons/d0_rotated.json,http://54.173.234.186/DepthDuration/depth_discrimination_MTurk/DepthDiscrim_HTML.html#3,3,2270,1177,2560,1440,6-19-2021,16-43-21,118,,,,,,,1228,503,248,500,252,499,feet,4,5,depth_discrimination_stimuli/000927_2014-06-09_16-32-30_260595134347_rgbf000123-resize_3/000927_2014-06-09_16-32-30_260595134347_rgbf000123-resize-original.jpg,5096,1363652,1476791,56
312710,DepthScenes,duration_discrimination,discrim_jsons/d0_rotated.json,http://54.173.234.186/DepthDuration/depth_discrimination_MTurk/DepthDiscrim_HTML.html#3,3,2270,1177,2560,1440,6-19-2021,16-43-21,119,,,,,,,1228,503,248,500,252,499,feet,4,3,depth_discrimination_stimuli/001214_2014-06-17_16-13-55_260595134347_rgbf000111-resize_0/001214_2014-06-17_16-13-55_260595134347_rgbf000111-resize-original.jpg,6912,1363652,1476791,56
312710,DepthScenes,duration_discrimination,discrim_jsons/d0_rotated.json,http://54.173.234.186/DepthDuration/depth_discrimination_MTurk/DepthDiscrim_HTML.html#3,3,2270,1177,2560,1440,6-19-2021,16-43-21,120,,,,,,,1228,503,248,500,252,499,feet,2,4,depth_discrimination_stimuli/002057_2014-06-24_21-00-13_260595134347_rgbf000120-resize_1/002057_2014-06-24_21-00-13_260595134347_rgbf000120-resize-original.jpg,5072,1363652,1476791,56
312710,DepthScenes,duration_discrimination,discrim_jsons/d0_rotated.json,http://54.173.234.186/DepthDuration/depth_discrimination_MTurk/DepthDiscrim_HTML.html#3,3,2270,1177,2560,1440,6-19-2021,16-43-21,121,,,,,,,1228,503,248,500,252,499,feet,3,2,depth_discrimination_stimuli/001032_2014-06-08_13-23-17_260595134347_rgbf000021-resize_3/001032_2014-06-08_13-23-17_260595134347_rgbf000021-resize-original.jpg,4760,1363652,1476791,56
312710,DepthScenes,duration_discrimination,discrim_jsons/d0_rotated.json,http://54.173.234.186/DepthDuration/depth_discrimination_MTurk/DepthDiscrim_HTML.html#3,3,2270,1177,2560,1440,6-19-2021,16-43-21,122,,,,,,,1228,503,248,500,252,499,feet,1,4,depth_discrimination_stimuli/001618_2014-06-20_11-37-31_260595134347_rgbf000027-resize_3/001618_2014-06-20_11-37-31_260595134347_rgbf000027-resize-original.jpg,4920,1363652,1476791,56
312710,DepthScenes,duration_discrimination,discrim_jsons/d0_rotated.json,http://54.173.234.186/DepthDuration/depth_discrimination_MTurk/DepthDiscrim_HTML.html#3,3,2270,1177,2560,1440,6-19-2021,16-43-21,123,,,,,,,1228,503,248,500,252,499,feet,4,3,depth_discrimination_stimuli/002700_2014-06-22_11-27-02_094959634447_rgbf000124-resize_3/002700_2014-06-22_11-27-02_094959634447_rgbf000124-resize-original.jpg,6440,1363652,1476791,56
312710,DepthScenes,duration_discrimination,discrim_jsons/d0_rotated.json,http://54.173.234.186/DepthDuration/depth_discrimination_MTurk/DepthDiscrim_HTML.html#3,3,2270,1177,2560,1440,6-19-2021,16-43-21,124,,,,,,,1228,503,248,500,252,499,feet,3,3,depth_discrimination_stimuli/000734_2014-06-08_17-39-11_260595134347_rgbf000128-resize_2/000734_2014-06-08_17-39-11_260595134347_rgbf000128-resize-original.jpg,3712,1363652,1476791,56
312710,DepthScenes,duration_discrimination,discrim_jsons/d0_rotated.json,http://54.173.234.186/DepthDuration/depth_discrimination_MTurk/DepthDiscrim_HTML.html#3,3,2270,1177,2560,1440,6-19-2021,16-43-21,125,,,,,,,1228,503,248,500,252,499,feet,2,4,depth_discrimination_stimuli/002750_2014-06-22_19-08-03_094959634447_rgbf000094-resize_4/002750_2014-06-22_19-08-03_094959634447_rgbf000094-resize-original.jpg,5768,1363652,1476791,56
312710,DepthScenes,duration_discrimination,discrim_jsons/d0_rotated.json,http://54.173.234.186/DepthDuration/depth_discrimination_MTurk/DepthDiscrim_HTML.html#3,3,2270,1177,2560,1440,6-19-2021,16-43-21,126,,,,,,,1228,503,248,500,252,499,feet,3,3,depth_discrimination_stimuli/002213_2014-06-28_18-37-58_260595134347_rgbf000055-resize_1/002213_2014-06-28_18-37-58_260595134347_rgbf000055-resize-original.jpg,5168,1363652,1476791,56
312710,DepthScenes,duration_discrimination,discrim_jsons/d0_rotated.json,http://54.173.234.186/DepthDuration/depth_discrimination_MTurk/DepthDiscrim_HTML.html#3,3,2270,1177,2560,1440,6-19-2021,16-43-21,127,,,,,,,1228,503,248,500,252,499,feet,3,3,depth_discrimination_stimuli/000109_2014-05-14_23-41-52_260595134347_rgbf000035-resize_9/000109_2014-05-14_23-41-52_260595134347_rgbf000035-resize-original.jpg,4768,1363652,1476791,56
312710,DepthScenes,duration_discrimination,discrim_jsons/d0_rotated.json,http://54.173.234.186/DepthDuration/depth_discrimination_MTurk/DepthDiscrim_HTML.html#3,3,2270,1177,2560,1440,6-19-2021,16-43-21,128,,,,,,,1228,503,248,500,252,499,feet,3,4,depth_discrimination_stimuli/003010_2014-06-15_12-54-35_094959634447_rgbf000112-resize_0/003010_2014-06-15_12-54-35_094959634447_rgbf000112-resize-original.jpg,2767,1363652,1476791,56
312710,DepthScenes,duration_discrimination,discrim_jsons/d0_rotated.json,http://54.173.234.186/DepthDuration/depth_discrimination_MTurk/DepthDiscrim_HTML.html#3,3,2270,1177,2560,1440,6-19-2021,16-43-21,129,,,,,,,1228,503,248,500,252,499,feet,4,3,depth_discrimination_stimuli/000542_2014-06-08_18-27-08_260595134347_rgbf000118-resize_1/000542_2014-06-08_18-27-08_260595134347_rgbf000118-resize-original.jpg,4639,1363652,1476791,56
312710,DepthScenes,duration_discrimination,discrim_jsons/d0_rotated.json,http://54.173.234.186/DepthDuration/depth_discrimination_MTurk/DepthDiscrim_HTML.html#3,3,2270,1177,2560,1440,6-19-2021,16-43-21,130,,,,,,,1228,503,248,500,252,499,feet,5,5,depth_discrimination_stimuli/002570_2014-06-24_13-59-54_094959634447_rgbf000059-resize_0/002570_2014-06-24_13-59-54_094959634447_rgbf000059-resize-original.jpg,7088,1363652,1476791,56
312710,DepthScenes,duration_discrimination,discrim_jsons/d0_rotated.json,http://54.173.234.186/DepthDuration/depth_discrimination_MTurk/DepthDiscrim_HTML.html#3,3,2270,1177,2560,1440,6-19-2021,16-43-21,131,,,,,,,1228,503,248,500,252,499,feet,4,4,depth_discrimination_stimuli/000788_2014-06-08_22-34-36_260595134347_rgbf000131-resize_1/000788_2014-06-08_22-34-36_260595134347_rgbf000131-resize-original.jpg,6472,1363652,1476791,56
312710,DepthScenes,duration_discrimination,discrim_jsons/d0_rotated.json,http://54.173.234.186/DepthDuration/depth_discrimination_MTurk/DepthDiscrim_HTML.html#3,3,2270,1177,2560,1440,6-19-2021,16-43-21,132,,,,,,,1228,503,248,500,252,499,feet,4,4,depth_discrimination_stimuli/003129_2014-05-12_10-48-10_094959634447_rgbf000100-resize_0/003129_2014-05-12_10-48-10_094959634447_rgbf000100-resize-original.jpg,5376,1363652,1476791,56
312710,DepthScenes,duration_discrimination,discrim_jsons/d0_rotated.json,http://54.173.234.186/DepthDuration/depth_discrimination_MTurk/DepthDiscrim_HTML.html#3,3,2270,1177,2560,1440,6-19-2021,16-43-21,133,,,,,,,1228,503,248,500,252,499,feet,3,3,depth_discrimination_stimuli/002136_2014-06-25_21-18-03_260595134347_rgbf000109-resize_3/002136_2014-06-25_21-18-03_260595134347_rgbf000109-resize-original.jpg,2824,1363652,1476791,56
312710,DepthScenes,duration_discrimination,discrim_jsons/d0_rotated.json,http://54.173.234.186/DepthDuration/depth_discrimination_MTurk/DepthDiscrim_HTML.html#3,3,2270,1177,2560,1440,6-19-2021,16-43-21,134,,,,,,,1228,503,248,500,252,499,feet,4,3,depth_discrimination_stimuli/000636_2014-06-08_16-39-02_260595134347_rgbf000108-resize_4/000636_2014-06-08_16-39-02_260595134347_rgbf000108-resize-original.jpg,4064,1363652,1476791,56
312710,DepthScenes,duration_discrimination,discrim_jsons/d0_rotated.json,http://54.173.234.186/DepthDuration/depth_discrimination_MTurk/DepthDiscrim_HTML.html#3,3,2270,1177,2560,1440,6-19-2021,16-43-21,135,,,,,,,1228,503,248,500,252,499,feet,3,4,depth_discrimination_stimuli/001164_2014-06-17_15-35-46_260595134347_rgbf000085-resize_3/001164_2014-06-17_15-35-46_260595134347_rgbf000085-resize-original.jpg,6648,1363652,1476791,56
312710,DepthScenes,duration_discrimination,discrim_jsons/d0_rotated.json,http://54.173.234.186/DepthDuration/depth_discrimination_MTurk/DepthDiscrim_HTML.html#3,3,2270,1177,2560,1440,6-19-2021,16-43-21,136,,,,,,,1228,503,248,500,252,499,feet,3,3,depth_discrimination_stimuli/001052_2014-06-08_18-24-54_260595134347_rgbf000130-resize_1/001052_2014-06-08_18-24-54_260595134347_rgbf000130-resize-original.jpg,3264,1363652,1476791,56
312710,DepthScenes,duration_discrimination,discrim_jsons/d0_rotated.json,http://54.173.234.186/DepthDuration/depth_discrimination_MTurk/DepthDiscrim_HTML.html#3,3,2270,1177,2560,1440,6-19-2021,16-43-21,137,,,,,,,1228,503,248,500,252,499,feet,2,2,depth_discrimination_stimuli/002875_2014-06-01_15-19-00_094959634447_rgbf000151-resize_1/002875_2014-06-01_15-19-00_094959634447_rgbf000151-resize-original.jpg,7648,1363652,1476791,56
312710,DepthScenes,duration_discrimination,discrim_jsons/d0_rotated.json,http://54.173.234.186/DepthDuration/depth_discrimination_MTurk/DepthDiscrim_HTML.html#3,3,2270,1177,2560,1440,6-19-2021,16-43-21,138,,,,,,,1228,503,248,500,252,499,feet,4,3,depth_discrimination_stimuli/001235_2014-06-17_16-37-36_260595134347_rgbf000084-resize_4/001235_2014-06-17_16-37-36_260595134347_rgbf000084-resize-original.jpg,4408,1363652,1476791,56
312710,DepthScenes,duration_discrimination,discrim_jsons/d0_rotated.json,http://54.173.234.186/DepthDuration/depth_discrimination_MTurk/DepthDiscrim_HTML.html#3,3,2270,1177,2560,1440,6-19-2021,16-43-21,139,,,,,,,1228,503,248,500,252,499,feet,3,3,depth_discrimination_stimuli/002788_2014-06-22_19-36-03_094959634447_rgbf000088-resize_2/002788_2014-06-22_19-36-03_094959634447_rgbf000088-resize-original.jpg,2776,1363652,1476791,56
312710,DepthScenes,duration_discrimination,discrim_jsons/d0_rotated.json,http://54.173.234.186/DepthDuration/depth_discrimination_MTurk/DepthDiscrim_HTML.html#3,3,2270,1177,2560,1440,6-19-2021,16-43-21,140,,,,,,,1228,503,248,500,252,499,feet,2,2,depth_discrimination_stimuli/002279_2014-06-28_18-55-32_260595134347_rgbf000040-resize_5/002279_2014-06-28_18-55-32_260595134347_rgbf000040-resize-original.jpg,7360,1363652,1476791,56
312710,DepthScenes,duration_discrimination,discrim_jsons/d0_rotated.json,http://54.173.234.186/DepthDuration/depth_discrimination_MTurk/DepthDiscrim_HTML.html#3,3,2270,1177,2560,1440,6-19-2021,16-43-21,141,,,,,,,1228,503,248,500,252,499,feet,4,5,depth_discrimination_stimuli/002568_2014-06-24_13-59-21_094959634447_rgbf000062-resize_4/002568_2014-06-24_13-59-21_094959634447_rgbf000062-resize-original.jpg,4920,1363652,1476791,56
312710,DepthScenes,duration_discrimination,discrim_jsons/d0_rotated.json,http://54.173.234.186/DepthDuration/depth_discrimination_MTurk/DepthDiscrim_HTML.html#3,3,2270,1177,2560,1440,6-19-2021,16-43-21,142,,,,,,,1228,503,248,500,252,499,feet,4,3,depth_discrimination_stimuli/003495_2014-05-21_16-01-51_094959634447_rgbf000100-resize_3/003495_2014-05-21_16-01-51_094959634447_rgbf000100-resize-original.jpg,4695,1363652,1476791,56
312710,DepthScenes,duration_discrimination,discrim_jsons/d0_rotated.json,http://54.173.234.186/DepthDuration/depth_discrimination_MTurk/DepthDiscrim_HTML.html#3,3,2270,1177,2560,1440,6-19-2021,16-43-21,143,,,,,,,1228,503,248,500,252,499,feet,4,3,depth_discrimination_stimuli/001450_2014-06-19_17-02-03_260595134347_rgbf000203-resize_4/001450_2014-06-19_17-02-03_260595134347_rgbf000203-resize-original.jpg,6000,1363652,1476791,56
312710,DepthScenes,duration_discrimination,discrim_jsons/d0_rotated.json,http://54.173.234.186/DepthDuration/depth_discrimination_MTurk/DepthDiscrim_HTML.html#3,3,2270,1177,2560,1440,6-19-2021,16-43-21,144,,,,,,,1228,503,248,500,252,499,feet,4,5,depth_discrimination_stimuli/000502_2014-06-08_23-02-32_260595134347_rgbf000063-resize_4/000502_2014-06-08_23-02-32_260595134347_rgbf000063-resize-original.jpg,3327,1363652,1476791,56
312710,DepthScenes,duration_discrimination,discrim_jsons/d0_rotated.json,http://54.173.234.186/DepthDuration/depth_discrimination_MTurk/DepthDiscrim_HTML.html#3,3,2270,1177,2560,1440,6-19-2021,16-43-21,145,,,,,,,1228,503,248,500,252,499,feet,4,4,depth_discrimination_stimuli/000506_2014-06-08_23-21-00_260595134347_rgbf000070-resize_7/000506_2014-06-08_23-21-00_260595134347_rgbf000070-resize-original.jpg,6881,1363652,1476791,56
312710,DepthScenes,duration_discrimination,discrim_jsons/d0_rotated.json,http://54.173.234.186/DepthDuration/depth_discrimination_MTurk/DepthDiscrim_HTML.html#3,3,2270,1177,2560,1440,6-19-2021,16-43-21,146,,,,,,,1228,503,248,500,252,499,feet,3,4,depth_discrimination_stimuli/001570_2014-06-20_17-21-09_260595134347_rgbf000135-resize_4/001570_2014-06-20_17-21-09_260595134347_rgbf000135-resize-original.jpg,3760,1363652,1476791,56
312710,DepthScenes,duration_discrimination,discrim_jsons/d0_rotated.json,http://54.173.234.186/DepthDuration/depth_discrimination_MTurk/DepthDiscrim_HTML.html#3,3,2270,1177,2560,1440,6-19-2021,16-43-21,147,,,,,,,1228,503,248,500,252,499,feet,4,3,depth_discrimination_stimuli/000917_2014-06-09_22-45-29_260595134347_rgbf000149-resize_3/000917_2014-06-09_22-45-29_260595134347_rgbf000149-resize-original.jpg,3872,1363652,1476791,56
312710,DepthScenes,duration_discrimination,discrim_jsons/d0_rotated.json,http://54.173.234.186/DepthDuration/depth_discrimination_MTurk/DepthDiscrim_HTML.html#3,3,2270,1177,2560,1440,6-19-2021,16-43-21,148,,,,,,,1228,503,248,500,252,499,feet,3,4,depth_discrimination_stimuli/001092_2014-06-15_17-34-58_260595134347_rgbf000171-resize_3/001092_2014-06-15_17-34-58_260595134347_rgbf000171-resize-original.jpg,6257,1363652,1476791,56
312710,DepthScenes,duration_discrimination,discrim_jsons/d0_rotated.json,http://54.173.234.186/DepthDuration/depth_discrimination_MTurk/DepthDiscrim_HTML.html#3,3,2270,1177,2560,1440,6-19-2021,16-43-21,149,,,,,,,1228,503,248,500,252,499,feet,4,4,depth_discrimination_stimuli/002467_2014-06-28_20-38-07_260595134347_rgbf000026-resize_2/002467_2014-06-28_20-38-07_260595134347_rgbf000026-resize-original.jpg,5520,1363652,1476791,56
312710,DepthScenes,duration_discrimination,discrim_jsons/d0_rotated.json,http://54.173.234.186/DepthDuration/depth_discrimination_MTurk/DepthDiscrim_HTML.html#3,3,2270,1177,2560,1440,6-19-2021,16-43-21,150,,,,,,,1228,503,248,500,252,499,feet,4,3,depth_discrimination_stimuli/000009_2014-05-26_14-32-05_260595134347_rgbf000034-resize_3/000009_2014-05-26_14-32-05_260595134347_rgbf000034-resize-original.jpg,6135,1363652,1476791,56
312710,DepthScenes,duration_discrimination,discrim_jsons/d0_rotated.json,http://54.173.234.186/DepthDuration/depth_discrimination_MTurk/DepthDiscrim_HTML.html#3,3,2270,1177,2560,1440,6-19-2021,16-43-21,151,,,,,,,1228,503,248,500,252,499,feet,4,4,depth_discrimination_stimuli/000556_2014-06-09_22-42-56_260595134347_rgbf000214-resize_1/000556_2014-06-09_22-42-56_260595134347_rgbf000214-resize-original.jpg,2897,1363652,1476791,56
312710,DepthScenes,duration_discrimination,discrim_jsons/d0_rotated.json,http://54.173.234.186/DepthDuration/depth_discrimination_MTurk/DepthDiscrim_HTML.html#3,3,2270,1177,2560,1440,6-19-2021,16-43-21,152,,,,,,,1228,503,248,500,252,499,feet,4,3,depth_discrimination_stimuli/003423_2014-05-21_10-23-26_094959634447_rgbf002665-resize_2/003423_2014-05-21_10-23-26_094959634447_rgbf002665-resize-original.jpg,5312,1363652,1476791,56
312710,DepthScenes,duration_discrimination,discrim_jsons/d0_rotated.json,http://54.173.234.186/DepthDuration/depth_discrimination_MTurk/DepthDiscrim_HTML.html#3,3,2270,1177,2560,1440,6-19-2021,16-43-21,153,,,,,,,1228,503,248,500,252,499,feet,3,3,depth_discrimination_stimuli/001056_2014-06-08_18-46-44_260595134347_rgbf000068-resize_0/001056_2014-06-08_18-46-44_260595134347_rgbf000068-resize-original.jpg,3736,1363652,1476791,56
312710,DepthScenes,duration_discrimination,discrim_jsons/d0_rotated.json,http://54.173.234.186/DepthDuration/depth_discrimination_MTurk/DepthDiscrim_HTML.html#3,3,2270,1177,2560,1440,6-19-2021,16-43-21,154,,,,,,,1228,503,248,500,252,499,feet,3,2,depth_discrimination_stimuli/000137_2014-05-20_17-04-49_260595134347_rgbf000120-resize_1/000137_2014-05-20_17-04-49_260595134347_rgbf000120-resize-original.jpg,4888,1363652,1476791,56
312710,DepthScenes,duration_discrimination,discrim_jsons/d0_rotated.json,http://54.173.234.186/DepthDuration/depth_discrimination_MTurk/DepthDiscrim_HTML.html#3,3,2270,1177,2560,1440,6-19-2021,16-43-21,155,,,,,,,1228,503,248,500,252,499,feet,3,4,depth_discrimination_stimuli/001094_2014-06-15_17-36-00_260595134347_rgbf000205-resize_0/001094_2014-06-15_17-36-00_260595134347_rgbf000205-resize-original.jpg,5735,1363652,1476791,56
312710,DepthScenes,duration_discrimination,discrim_jsons/d0_rotated.json,http://54.173.234.186/DepthDuration/depth_discrimination_MTurk/DepthDiscrim_HTML.html#3,3,2270,1177,2560,1440,6-19-2021,16-43-21,156,,,,,,,1228,503,248,500,252,499,feet,4,4,depth_discrimination_stimuli/002043_2014-06-24_20-29-38_260595134347_rgbf000039-resize_4/002043_2014-06-24_20-29-38_260595134347_rgbf000039-resize-original.jpg,5280,1363652,1476791,56
312710,DepthScenes,duration_discrimination,discrim_jsons/d0_rotated.json,http://54.173.234.186/DepthDuration/depth_discrimination_MTurk/DepthDiscrim_HTML.html#3,3,2270,1177,2560,1440,6-19-2021,16-43-21,157,,,,,,,1228,503,248,500,252,499,feet,3,3,depth_discrimination_stimuli/002790_2014-06-22_19-36-35_094959634447_rgbf000074-resize_4/002790_2014-06-22_19-36-35_094959634447_rgbf000074-resize-original.jpg,2941,1363652,1476791,56
312710,DepthScenes,duration_discrimination,discrim_jsons/d0_rotated.json,http://54.173.234.186/DepthDuration/depth_discrimination_MTurk/DepthDiscrim_HTML.html#3,3,2270,1177,2560,1440,6-19-2021,16-43-21,158,,,,,,,1228,503,248,500,252,499,feet,4,5,depth_discrimination_stimuli/001449_2014-06-19_17-01-27_260595134347_rgbf000116-resize_2/001449_2014-06-19_17-01-27_260595134347_rgbf000116-resize-original.jpg,3597,1363652,1476791,56
312710,DepthScenes,duration_discrimination,discrim_jsons/d0_rotated.json,http://54.173.234.186/DepthDuration/depth_discrimination_MTurk/DepthDiscrim_HTML.html#3,3,2270,1177,2560,1440,6-19-2021,16-43-21,159,,,,,,,1228,503,248,500,252,499,feet,4,3,depth_discrimination_stimuli/003228_2014-05-14_13-42-35_094959634447_rgbf000101-resize_1/003228_2014-05-14_13-42-35_094959634447_rgbf000101-resize-original.jpg,2939,1363652,1476791,56
312710,DepthScenes,duration_discrimination,discrim_jsons/d0_rotated.json,http://54.173.234.186/DepthDuration/depth_discrimination_MTurk/DepthDiscrim_HTML.html#3,3,2270,1177,2560,1440,6-19-2021,16-43-21,160,,,,,,,1228,503,248,500,252,499,feet,2,5,depth_discrimination_stimuli/002725_2014-06-22_11-47-51_094959634447_rgbf000070-resize_1/002725_2014-06-22_11-47-51_094959634447_rgbf000070-resize-original.jpg,6293,1363652,1476791,56
312710,DepthScenes,duration_discrimination,discrim_jsons/d0_rotated.json,http://54.173.234.186/DepthDuration/depth_discrimination_MTurk/DepthDiscrim_HTML.html#3,3,2270,1177,2560,1440,6-19-2021,16-43-21,161,,,,,,,1228,503,248,500,252,499,feet,3,1,depth_discrimination_stimuli/002509_2014-06-24_13-19-22_094959634447_rgbf000077-resize_0/002509_2014-06-24_13-19-22_094959634447_rgbf000077-resize-original.jpg,4907,1363652,1476791,56
312710,DepthScenes,duration_discrimination,discrim_jsons/d0_rotated.json,http://54.173.234.186/DepthDuration/depth_discrimination_MTurk/DepthDiscrim_HTML.html#3,3,2270,1177,2560,1440,6-19-2021,16-43-21,162,,,,,,,1228,503,248,500,252,499,feet,3,2,depth_discrimination_stimuli/003546_2014-05-22_15-48-53_094959634447_rgbf004816-resize_3/003546_2014-05-22_15-48-53_094959634447_rgbf004816-resize-original.jpg,7555,1363652,1476791,56
312710,DepthScenes,duration_discrimination,discrim_jsons/d0_rotated.json,http://54.173.234.186/DepthDuration/depth_discrimination_MTurk/DepthDiscrim_HTML.html#3,3,2270,1177,2560,1440,6-19-2021,16-43-21,163,,,,,,,1228,503,248,500,252,499,feet,4,4,depth_discrimination_stimuli/001181_2014-06-17_15-50-57_260595134347_rgbf000106-resize_4/001181_2014-06-17_15-50-57_260595134347_rgbf000106-resize-original.jpg,2176,1363652,1476791,56
312710,DepthScenes,duration_discrimination,discrim_jsons/d0_rotated.json,http://54.173.234.186/DepthDuration/depth_discrimination_MTurk/DepthDiscrim_HTML.html#3,3,2270,1177,2560,1440,6-19-2021,16-43-21,164,,,,,,,1228,503,248,500,252,499,feet,3,3,depth_discrimination_stimuli/000758_2014-06-08_22-05-08_260595134347_rgbf000085-resize_0/000758_2014-06-08_22-05-08_260595134347_rgbf000085-resize-original.jpg,15380,1363652,1476791,56
312710,DepthScenes,duration_discrimination,discrim_jsons/d0_rotated.json,http://54.173.234.186/DepthDuration/depth_discrimination_MTurk/DepthDiscrim_HTML.html#3,3,2270,1177,2560,1440,6-19-2021,16-43-21,165,,,,,,,1228,503,248,500,252,499,feet,4,2,depth_discrimination_stimuli/000692_2014-06-08_13-09-42_260595134347_rgbf000199-resize_2/000692_2014-06-08_13-09-42_260595134347_rgbf000199-resize-original.jpg,5000,1363652,1476791,56
312710,DepthScenes,duration_discrimination,discrim_jsons/d0_rotated.json,http://54.173.234.186/DepthDuration/depth_discrimination_MTurk/DepthDiscrim_HTML.html#3,3,2270,1177,2560,1440,6-19-2021,16-43-21,166,,,,,,,1228,503,248,500,252,499,feet,3,4,depth_discrimination_stimuli/000409_2014-06-04_19-23-33_260595134347_rgbf000067-resize_0/000409_2014-06-04_19-23-33_260595134347_rgbf000067-resize-original.jpg,4592,1363652,1476791,56
312710,DepthScenes,duration_discrimination,discrim_jsons/d0_rotated.json,http://54.173.234.186/DepthDuration/depth_discrimination_MTurk/DepthDiscrim_HTML.html#3,3,2270,1177,2560,1440,6-19-2021,16-43-21,167,,,,,,,1228,503,248,500,252,499,feet,3,2,scene_property_catch_stimuli/sun_bpzzatthlcapxzol.jpg,5664,1363652,1476791,56
312710,DepthScenes,duration_discrimination,discrim_jsons/d0_rotated.json,http://54.173.234.186/DepthDuration/depth_discrimination_MTurk/DepthDiscrim_HTML.html#3,3,2270,1177,2560,1440,6-19-2021,16-43-21,168,,,,,,,1228,503,248,500,252,499,feet,4,3,depth_discrimination_stimuli/000749_2014-06-08_21-55-06_260595134347_rgbf000070-resize_2/000749_2014-06-08_21-55-06_260595134347_rgbf000070-resize-original.jpg,5912,1363652,1476791,56
312710,DepthScenes,duration_discrimination,discrim_jsons/d0_rotated.json,http://54.173.234.186/DepthDuration/depth_discrimination_MTurk/DepthDiscrim_HTML.html#3,3,2270,1177,2560,1440,6-19-2021,16-43-21,169,,,,,,,1228,503,248,500,252,499,feet,3,3,depth_discrimination_stimuli/003092_2014-06-24_21-01-49_094959634447_rgbf000049-resize_2/003092_2014-06-24_21-01-49_094959634447_rgbf000049-resize-original.jpg,5800,1363652,1476791,56
312710,DepthScenes,duration_discrimination,discrim_jsons/d0_rotated.json,http://54.173.234.186/DepthDuration/depth_discrimination_MTurk/DepthDiscrim_HTML.html#3,3,2270,1177,2560,1440,6-19-2021,16-43-21,170,,,,,,,1228,503,248,500,252,499,feet,3,2,depth_discrimination_stimuli/002949_2014-06-26_15-57-42_094959634447_rgbf000079-resize_1/002949_2014-06-26_15-57-42_094959634447_rgbf000079-resize-original.jpg,6577,1363652,1476791,56
312710,DepthScenes,duration_discrimination,discrim_jsons/d0_rotated.json,http://54.173.234.186/DepthDuration/depth_discrimination_MTurk/DepthDiscrim_HTML.html#3,3,2270,1177,2560,1440,6-19-2021,16-43-21,171,,,,,,,1228,503,248,500,252,499,feet,4,3,depth_discrimination_stimuli/000555_2014-06-09_22-42-23_260595134347_rgbf000037-resize_4/000555_2014-06-09_22-42-23_260595134347_rgbf000037-resize-original.jpg,9416,1363652,1476791,56
312710,DepthScenes,duration_discrimination,discrim_jsons/d0_rotated.json,http://54.173.234.186/DepthDuration/depth_discrimination_MTurk/DepthDiscrim_HTML.html#3,3,2270,1177,2560,1440,6-19-2021,16-43-21,172,,,,,,,1228,503,248,500,252,499,feet,2,2,depth_discrimination_stimuli/003338_2014-05-20_11-01-23_094959634447_rgbf000051-resize_6/003338_2014-05-20_11-01-23_094959634447_rgbf000051-resize-original.jpg,4056,1363652,1476791,56
312710,DepthScenes,duration_discrimination,discrim_jsons/d0_rotated.json,http://54.173.234.186/DepthDuration/depth_discrimination_MTurk/DepthDiscrim_HTML.html#3,3,2270,1177,2560,1440,6-19-2021,16-43-21,173,,,,,,,1228,503,248,500,252,499,feet,3,3,depth_discrimination_stimuli/002444_2014-06-28_20-32-08_260595134347_rgbf000027-resize_0/002444_2014-06-28_20-32-08_260595134347_rgbf000027-resize-original.jpg,5296,1363652,1476791,56
312710,DepthScenes,duration_discrimination,discrim_jsons/d0_rotated.json,http://54.173.234.186/DepthDuration/depth_discrimination_MTurk/DepthDiscrim_HTML.html#3,3,2270,1177,2560,1440,6-19-2021,16-43-21,174,,,,,,,1228,503,248,500,252,499,feet,5,5,scene_property_catch_stimuli/sun_aoquhiddlfqapdlz.jpg,7400,1363652,1476791,56
312710,DepthScenes,duration_discrimination,discrim_jsons/d0_rotated.json,http://54.173.234.186/DepthDuration/depth_discrimination_MTurk/DepthDiscrim_HTML.html#3,3,2270,1177,2560,1440,6-19-2021,16-43-21,175,,,,,,,1228,503,248,500,252,499,feet,2,2,depth_discrimination_stimuli/003621_2014-05-23_18-06-08_094959634447_rgbf000101-resize_1/003621_2014-05-23_18-06-08_094959634447_rgbf000101-resize-original.jpg,3752,1363652,1476791,56
312710,DepthScenes,duration_discrimination,discrim_jsons/d0_rotated.json,http://54.173.234.186/DepthDuration/depth_discrimination_MTurk/DepthDiscrim_HTML.html#3,3,2270,1177,2560,1440,6-19-2021,16-43-21,176,,,,,,,1228,503,248,500,252,499,feet,3,4,depth_discrimination_stimuli/001016_2014-06-09_16-16-10_260595134347_rgbf000112-resize_5/001016_2014-06-09_16-16-10_260595134347_rgbf000112-resize-original.jpg,4032,1363652,1476791,56
312710,DepthScenes,duration_discrimination,discrim_jsons/d0_rotated.json,http://54.173.234.186/DepthDuration/depth_discrimination_MTurk/DepthDiscrim_HTML.html#3,3,2270,1177,2560,1440,6-19-2021,16-43-21,177,,,,,,,1228,503,248,500,252,499,feet,3,4,depth_discrimination_stimuli/001100_2014-06-15_17-46-26_260595134347_rgbf000225-resize_2/001100_2014-06-15_17-46-26_260595134347_rgbf000225-resize-original.jpg,3512,1363652,1476791,56
312710,DepthScenes,duration_discrimination,discrim_jsons/d0_rotated.json,http://54.173.234.186/DepthDuration/depth_discrimination_MTurk/DepthDiscrim_HTML.html#3,3,2270,1177,2560,1440,6-19-2021,16-43-21,178,,,,,,,1228,503,248,500,252,499,feet,5,3,depth_discrimination_stimuli/002468_2014-06-28_20-38-39_260595134347_rgbf000045-resize_1/002468_2014-06-28_20-38-39_260595134347_rgbf000045-resize-original.jpg,5488,1363652,1476791,56
312710,DepthScenes,duration_discrimination,discrim_jsons/d0_rotated.json,http://54.173.234.186/DepthDuration/depth_discrimination_MTurk/DepthDiscrim_HTML.html#3,3,2270,1177,2560,1440,6-19-2021,16-43-21,179,,,,,,,1228,503,248,500,252,499,feet,3,4,depth_discrimination_stimuli/001617_2014-06-20_11-35-32_260595134347_rgbf000066-resize_1/001617_2014-06-20_11-35-32_260595134347_rgbf000066-resize-original.jpg,5224,1363652,1476791,56
312710,DepthScenes,duration_discrimination,discrim_jsons/d0_rotated.json,http://54.173.234.186/DepthDuration/depth_discrimination_MTurk/DepthDiscrim_HTML.html#3,3,2270,1177,2560,1440,6-19-2021,16-43-21,180,,,,,,,1228,503,248,500,252,499,feet,3,1,depth_discrimination_stimuli/002630_2014-06-24_14-47-50_094959634447_rgbf000055-resize_1/002630_2014-06-24_14-47-50_094959634447_rgbf000055-resize-original.jpg,6256,1363652,1476791,56
312710,DepthScenes,duration_discrimination,discrim_jsons/d0_rotated.json,http://54.173.234.186/DepthDuration/depth_discrimination_MTurk/DepthDiscrim_HTML.html#3,3,2270,1177,2560,1440,6-19-2021,16-43-21,181,,,,,,,1228,503,248,500,252,499,feet,4,5,depth_discrimination_stimuli/001815_2014-06-26_20-52-55_260595134347_rgbf000020-resize_0/001815_2014-06-26_20-52-55_260595134347_rgbf000020-resize-original.jpg,5176,1363652,1476791,56
312710,DepthScenes,duration_discrimination,discrim_jsons/d0_rotated.json,http://54.173.234.186/DepthDuration/depth_discrimination_MTurk/DepthDiscrim_HTML.html#3,3,2270,1177,2560,1440,6-19-2021,16-43-21,182,,,,,,,1228,503,248,500,252,499,feet,3,2,depth_discrimination_stimuli/001011_2014-06-08_23-18-54_260595134347_rgbf000044-resize_4/001011_2014-06-08_23-18-54_260595134347_rgbf000044-resize-original.jpg,6336,1363652,1476791,56
312710,DepthScenes,duration_discrimination,discrim_jsons/d0_rotated.json,http://54.173.234.186/DepthDuration/depth_discrimination_MTurk/DepthDiscrim_HTML.html#3,3,2270,1177,2560,1440,6-19-2021,16-43-21,183,,,,,,,1228,503,248,500,252,499,feet,3,2,depth_discrimination_stimuli/000740_2014-06-08_18-46-23_260595134347_rgbf000049-resize_6/000740_2014-06-08_18-46-23_260595134347_rgbf000049-resize-original.jpg,3528,1363652,1476791,56
312710,DepthScenes,duration_discrimination,discrim_jsons/d0_rotated.json,http://54.173.234.186/DepthDuration/depth_discrimination_MTurk/DepthDiscrim_HTML.html#3,3,2270,1177,2560,1440,6-19-2021,16-43-21,184,,,,,,,1228,503,248,500,252,499,feet,3,3,depth_discrimination_stimuli/001150_2014-06-17_15-27-34_260595134347_rgbf000108-resize_2/001150_2014-06-17_15-27-34_260595134347_rgbf000108-resize-original.jpg,3944,1363652,1476791,56
312710,DepthScenes,duration_discrimination,discrim_jsons/d0_rotated.json,http://54.173.234.186/DepthDuration/depth_discrimination_MTurk/DepthDiscrim_HTML.html#3,3,2270,1177,2560,1440,6-19-2021,16-43-21,185,,,,,,,1228,503,248,500,252,499,feet,5,3,depth_discrimination_stimuli/002784_2014-06-22_19-26-30_094959634447_rgbf000083-resize_3/002784_2014-06-22_19-26-30_094959634447_rgbf000083-resize-original.jpg,3896,1363652,1476791,56
312710,DepthScenes,duration_discrimination,discrim_jsons/d0_rotated.json,http://54.173.234.186/DepthDuration/depth_discrimination_MTurk/DepthDiscrim_HTML.html#3,3,2270,1177,2560,1440,6-19-2021,16-43-21,186,,,,,,,1228,503,248,500,252,499,feet,3,4,depth_discrimination_stimuli/001188_2014-06-17_15-54-10_260595134347_rgbf000090-resize_2/001188_2014-06-17_15-54-10_260595134347_rgbf000090-resize-original.jpg,10335,1363652,1476791,56
312710,DepthScenes,duration_discrimination,discrim_jsons/d0_rotated.json,http://54.173.234.186/DepthDuration/depth_discrimination_MTurk/DepthDiscrim_HTML.html#3,3,2270,1177,2560,1440,6-19-2021,16-43-21,187,,,,,,,1228,503,248,500,252,499,feet,4,3,depth_discrimination_stimuli/003069_2014-06-15_14-57-50_094959634447_rgbf000150-resize_4/003069_2014-06-15_14-57-50_094959634447_rgbf000150-resize-original.jpg,7080,1363652,1476791,56
312710,DepthScenes,duration_discrimination,discrim_jsons/d0_rotated.json,http://54.173.234.186/DepthDuration/depth_discrimination_MTurk/DepthDiscrim_HTML.html#3,3,2270,1177,2560,1440,6-19-2021,16-43-21,188,,,,,,,1228,503,248,500,252,499,feet,4,3,depth_discrimination_stimuli/000773_2014-06-08_22-24-54_260595134347_rgbf000093-resize_1/000773_2014-06-08_22-24-54_260595134347_rgbf000093-resize-original.jpg,4976,1363652,1476791,56
312710,DepthScenes,duration_discrimination,discrim_jsons/d0_rotated.json,http://54.173.234.186/DepthDuration/depth_discrimination_MTurk/DepthDiscrim_HTML.html#3,3,2270,1177,2560,1440,6-19-2021,16-43-21,189,,,,,,,1228,503,248,500,252,499,feet,3,2,depth_discrimination_stimuli/002987_2014-06-08_18-48-20_094959634447_rgbf000022-resize_0/002987_2014-06-08_18-48-20_094959634447_rgbf000022-resize-original.jpg,3656,1363652,1476791,56
312710,DepthScenes,duration_discrimination,discrim_jsons/d0_rotated.json,http://54.173.234.186/DepthDuration/depth_discrimination_MTurk/DepthDiscrim_HTML.html#3,3,2270,1177,2560,1440,6-19-2021,16-43-21,190,,,,,,,1228,503,248,500,252,499,feet,2,4,depth_discrimination_stimuli/001516_2014-06-20_16-25-09_260595134347_rgbf000076-resize_2/001516_2014-06-20_16-25-09_260595134347_rgbf000076-resize-original.jpg,4872,1363652,1476791,56
312710,DepthScenes,duration_discrimination,discrim_jsons/d0_rotated.json,http://54.173.234.186/DepthDuration/depth_discrimination_MTurk/DepthDiscrim_HTML.html#3,3,2270,1177,2560,1440,6-19-2021,16-43-21,191,,,,,,,1228,503,248,500,252,499,feet,3,3,depth_discrimination_stimuli/001289_2014-06-16_16-25-52_260595134347_rgbf000067-resize_1/001289_2014-06-16_16-25-52_260595134347_rgbf000067-resize-original.jpg,3800,1363652,1476791,56
312710,DepthScenes,duration_discrimination,discrim_jsons/d0_rotated.json,http://54.173.234.186/DepthDuration/depth_discrimination_MTurk/DepthDiscrim_HTML.html#3,3,2270,1177,2560,1440,6-19-2021,16-43-21,192,,,,,,,1228,503,248,500,252,499,feet,4,3,depth_discrimination_stimuli/002660_2014-06-13_15-44-18_094959634447_rgbf001878-resize_2/002660_2014-06-13_15-44-18_094959634447_rgbf001878-resize-original.jpg,5232,1363652,1476791,56
312710,DepthScenes,duration_discrimination,discrim_jsons/d0_rotated.json,http://54.173.234.186/DepthDuration/depth_discrimination_MTurk/DepthDiscrim_HTML.html#3,3,2270,1177,2560,1440,6-19-2021,16-43-21,193,,,,,,,1228,503,248,500,252,499,feet,3,3,depth_discrimination_stimuli/002209_2014-06-28_18-36-10_260595134347_rgbf000051-resize_1/002209_2014-06-28_18-36-10_260595134347_rgbf000051-resize-original.jpg,4543,1363652,1476791,56
312710,DepthScenes,duration_discrimination,discrim_jsons/d0_rotated.json,http://54.173.234.186/DepthDuration/depth_discrimination_MTurk/DepthDiscrim_HTML.html#3,3,2270,1177,2560,1440,6-19-2021,16-43-21,194,,,,,,,1228,503,248,500,252,499,feet,4,2,depth_discrimination_stimuli/000521_2014-06-08_13-34-35_260595134347_rgbf000191-resize_2/000521_2014-06-08_13-34-35_260595134347_rgbf000191-resize-original.jpg,3769,1363652,1476791,56
