subjID,experimentName,versionName,sequenceName,url,selected_row,windowWidth,windowHeight,screenWidth,screenHeight,startDate,startTime,trial,stimulus_0,stimulus_1,duration,actual_depth_0,actual_depth_1,discrim_choice,trial_RT,log_fixation,log_sceneDuration1,log_mask1,log_sceneDuration2,log_mask2,unitSelection,meanDepth_rating,navigability_rating,rated_stimulus,rating_RT,experimentTime,totalTime,age
293248,DepthScenes,duration_discrimination,discrim_jsons/d0_rotated_dr.json,http://54.173.234.186/DepthDuration/depth_discrimination_MTurk/DepthDiscrim_HTML.html#2,2,1920,937,1920,1080,6-19-2021,14-0-7,1,depth_discrimination_stimuli/002103_2014-06-25_20-00-40_260595134347_rgbf000049-resize_0/002103_2014-06-25_20-00-40_260595134347_rgbf000049-resize_0-target.png,depth_discrimination_stimuli/000692_2014-06-08_13-09-42_260595134347_rgbf000199-resize_2/000692_2014-06-08_13-09-42_260595134347_rgbf000199-resize_2-target.png,1000,4.105,3.661,0,5076,504,998,511,1000,489,feet,,,,,1750188,2115530,33
293248,DepthScenes,duration_discrimination,discrim_jsons/d0_rotated_dr.json,http://54.173.234.186/DepthDuration/depth_discrimination_MTurk/DepthDiscrim_HTML.html#2,2,1920,937,1920,1080,6-19-2021,14-0-7,2,depth_discrimination_stimuli/002468_2014-06-28_20-38-39_260595134347_rgbf000045-resize_1/002468_2014-06-28_20-38-39_260595134347_rgbf000045-resize_1-target.png,depth_discrimination_stimuli/002579_2014-06-24_14-08-03_094959634447_rgbf000061-resize_2/002579_2014-06-24_14-08-03_094959634447_rgbf000061-resize_2-target.png,1000,1.956,2.223125,1,2410,513,1000,500,990,510,feet,,,,,1750188,2115530,33
293248,DepthScenes,duration_discrimination,discrim_jsons/d0_rotated_dr.json,http://54.173.234.186/DepthDuration/depth_discrimination_MTurk/DepthDiscrim_HTML.html#2,2,1920,937,1920,1080,6-19-2021,14-0-7,3,depth_discrimination_stimuli/002039_2014-06-24_20-22-38_260595134347_rgbf000084-resize_1/002039_2014-06-24_20-22-38_260595134347_rgbf000084-resize_1-target.png,depth_discrimination_stimuli/001450_2014-06-19_17-02-03_260595134347_rgbf000203-resize_4/001450_2014-06-19_17-02-03_260595134347_rgbf000203-resize_4-target.png,1000,4.408,4.0106666666667,0,2152,508,1007,495,993,514,feet,,,,,1750188,2115530,33
293248,DepthScenes,duration_discrimination,discrim_jsons/d0_rotated_dr.json,http://54.173.234.186/DepthDuration/depth_discrimination_MTurk/DepthDiscrim_HTML.html#2,2,1920,937,1920,1080,6-19-2021,14-0-7,4,depth_discrimination_stimuli/000943_2014-06-09_19-31-07_260595134347_rgbf000128-resize_1/000943_2014-06-09_19-31-07_260595134347_rgbf000128-resize_1-target.png,depth_discrimination_stimuli/001555_2014-06-20_17-12-10_260595134347_rgbf000065-resize_4/001555_2014-06-20_17-12-10_260595134347_rgbf000065-resize_4-target.png,250,1.9765,1.633,1,1658,508,250,510,240,510,feet,,,,,1750188,2115530,33
293248,DepthScenes,duration_discrimination,discrim_jsons/d0_rotated_dr.json,http://54.173.234.186/DepthDuration/depth_discrimination_MTurk/DepthDiscrim_HTML.html#2,2,1920,937,1920,1080,6-19-2021,14-0-7,5,depth_discrimination_stimuli/000709_2014-06-08_13-51-55_260595134347_rgbf000068-resize_3/000709_2014-06-08_13-51-55_260595134347_rgbf000068-resize_3-target.png,depth_discrimination_stimuli/003587_2014-05-23_16-48-02_094959634447_rgbf002384-resize_2/003587_2014-05-23_16-48-02_094959634447_rgbf002384-resize_2-target.png,1000,1.803,1.357,1,2102,511,1000,500,1000,500,feet,,,,,1750188,2115530,33
293248,DepthScenes,duration_discrimination,discrim_jsons/d0_rotated_dr.json,http://54.173.234.186/DepthDuration/depth_discrimination_MTurk/DepthDiscrim_HTML.html#2,2,1920,937,1920,1080,6-19-2021,14-0-7,6,depth_discrimination_stimuli/002136_2014-06-25_21-18-03_260595134347_rgbf000109-resize_3/002136_2014-06-25_21-18-03_260595134347_rgbf000109-resize_3-target.png,depth_discrimination_stimuli/000469_2014-06-09_19-42-10_260595134347_rgbf000081-resize_1/000469_2014-06-09_19-42-10_260595134347_rgbf000081-resize_1-target.png,1000,1.957,1.652,1,2845,518,990,509,1001,498,feet,,,,,1750188,2115530,33
293248,DepthScenes,duration_discrimination,discrim_jsons/d0_rotated_dr.json,http://54.173.234.186/DepthDuration/depth_discrimination_MTurk/DepthDiscrim_HTML.html#2,2,1920,937,1920,1080,6-19-2021,14-0-7,7,depth_discrimination_stimuli/002344_2014-06-28_20-06-29_260595134347_rgbf000030-resize_1/002344_2014-06-28_20-06-29_260595134347_rgbf000030-resize_1-target.png,depth_discrimination_stimuli/002509_2014-06-24_13-19-22_094959634447_rgbf000077-resize_0/002509_2014-06-24_13-19-22_094959634447_rgbf000077-resize_0-target.png,1000,1.5795,1.3065,1,3944,516,990,510,995,505,feet,,,,,1750188,2115530,33
293248,DepthScenes,duration_discrimination,discrim_jsons/d0_rotated_dr.json,http://54.173.234.186/DepthDuration/depth_discrimination_MTurk/DepthDiscrim_HTML.html#2,2,1920,937,1920,1080,6-19-2021,14-0-7,8,depth_discrimination_stimuli/002464_2014-06-28_20-36-57_260595134347_rgbf000029-resize_0/002464_2014-06-28_20-36-57_260595134347_rgbf000029-resize_0-target.png,depth_discrimination_stimuli/000409_2014-06-04_19-23-33_260595134347_rgbf000067-resize_0/000409_2014-06-04_19-23-33_260595134347_rgbf000067-resize_0-target.png,250,3.9525,3.7335,0,1944,516,250,490,260,489,feet,,,,,1750188,2115530,33
293248,DepthScenes,duration_discrimination,discrim_jsons/d0_rotated_dr.json,http://54.173.234.186/DepthDuration/depth_discrimination_MTurk/DepthDiscrim_HTML.html#2,2,1920,937,1920,1080,6-19-2021,14-0-7,9,depth_discrimination_stimuli/003048_2014-06-15_13-49-43_094959634447_rgbf000150-resize_1/003048_2014-06-15_13-49-43_094959634447_rgbf000150-resize_1-target.png,depth_discrimination_stimuli/002444_2014-06-28_20-32-08_260595134347_rgbf000027-resize_0/002444_2014-06-28_20-32-08_260595134347_rgbf000027-resize_0-target.png,250,4.0035,4.389,0,2105,506,260,490,260,499,feet,,,,,1750188,2115530,33
293248,DepthScenes,duration_discrimination,discrim_jsons/d0_rotated_dr.json,http://54.173.234.186/DepthDuration/depth_discrimination_MTurk/DepthDiscrim_HTML.html#2,2,1920,937,1920,1080,6-19-2021,14-0-7,10,depth_discrimination_stimuli/002630_2014-06-24_14-47-50_094959634447_rgbf000055-resize_1/002630_2014-06-24_14-47-50_094959634447_rgbf000055-resize_1-target.png,depth_discrimination_stimuli/001449_2014-06-19_17-01-27_260595134347_rgbf000116-resize_2/001449_2014-06-19_17-01-27_260595134347_rgbf000116-resize_2-target.png,1000,3.0095,3.452,1,2090,505,1000,509,1001,490,feet,,,,,1750188,2115530,33
293248,DepthScenes,duration_discrimination,discrim_jsons/d0_rotated_dr.json,http://54.173.234.186/DepthDuration/depth_discrimination_MTurk/DepthDiscrim_HTML.html#2,2,1920,937,1920,1080,6-19-2021,14-0-7,11,depth_discrimination_stimuli/002131_2014-06-25_21-12-01_260595134347_rgbf000083-resize_0/002131_2014-06-25_21-12-01_260595134347_rgbf000083-resize_0-target.png,depth_discrimination_stimuli/001100_2014-06-15_17-46-26_260595134347_rgbf000225-resize_2/001100_2014-06-15_17-46-26_260595134347_rgbf000225-resize_2-target.png,250,1.7685,2.24,1,1475,515,256,486,259,511,feet,,,,,1750188,2115530,33
293248,DepthScenes,duration_discrimination,discrim_jsons/d0_rotated_dr.json,http://54.173.234.186/DepthDuration/depth_discrimination_MTurk/DepthDiscrim_HTML.html#2,2,1920,937,1920,1080,6-19-2021,14-0-7,12,depth_discrimination_stimuli/002949_2014-06-26_15-57-42_094959634447_rgbf000079-resize_1/002949_2014-06-26_15-57-42_094959634447_rgbf000079-resize_1-target.png,depth_discrimination_stimuli/002279_2014-06-28_18-55-32_260595134347_rgbf000040-resize_5/002279_2014-06-28_18-55-32_260595134347_rgbf000040-resize_5-target.png,250,1.8915,1.5043333333333,1,1555,513,241,499,251,509,feet,,,,,1750188,2115530,33
293248,DepthScenes,duration_discrimination,discrim_jsons/d0_rotated_dr.json,http://54.173.234.186/DepthDuration/depth_discrimination_MTurk/DepthDiscrim_HTML.html#2,2,1920,937,1920,1080,6-19-2021,14-0-7,13,depth_discrimination_stimuli/001516_2014-06-20_16-25-09_260595134347_rgbf000076-resize_2/001516_2014-06-20_16-25-09_260595134347_rgbf000076-resize_2-target.png,depth_discrimination_stimuli/000635_2014-06-08_16-38-42_260595134347_rgbf000106-resize_1/000635_2014-06-08_16-38-42_260595134347_rgbf000106-resize_1-target.png,250,1.7445,2.074,0,1738,506,260,496,244,510,feet,,,,,1750188,2115530,33
293248,DepthScenes,duration_discrimination,discrim_jsons/d0_rotated_dr.json,http://54.173.234.186/DepthDuration/depth_discrimination_MTurk/DepthDiscrim_HTML.html#2,2,1920,937,1920,1080,6-19-2021,14-0-7,14,depth_discrimination_stimuli/001148_2014-06-17_15-26-42_260595134347_rgbf000129-resize_0/001148_2014-06-17_15-26-42_260595134347_rgbf000129-resize_0-target.png,depth_discrimination_stimuli/000734_2014-06-08_17-39-11_260595134347_rgbf000128-resize_2/000734_2014-06-08_17-39-11_260595134347_rgbf000128-resize_2-target.png,1000,4.368,4.098,1,2169,506,1009,491,1010,490,feet,,,,,1750188,2115530,33
293248,DepthScenes,duration_discrimination,discrim_jsons/d0_rotated_dr.json,http://54.173.234.186/DepthDuration/depth_discrimination_MTurk/DepthDiscrim_HTML.html#2,2,1920,937,1920,1080,6-19-2021,14-0-7,15,depth_discrimination_stimuli/002043_2014-06-24_20-29-38_260595134347_rgbf000039-resize_4/002043_2014-06-24_20-29-38_260595134347_rgbf000039-resize_4-target.png,depth_discrimination_stimuli/002445_2014-06-28_20-32-16_260595134347_rgbf000029-resize_4/002445_2014-06-28_20-32-16_260595134347_rgbf000029-resize_4-target.png,1000,2.8435,2.5315,1,2230,519,998,501,1002,500,feet,,,,,1750188,2115530,33
293248,DepthScenes,duration_discrimination,discrim_jsons/d0_rotated_dr.json,http://54.173.234.186/DepthDuration/depth_discrimination_MTurk/DepthDiscrim_HTML.html#2,2,1920,937,1920,1080,6-19-2021,14-0-7,16,depth_discrimination_stimuli/000454_2014-06-08_16-37-28_260595134347_rgbf000048-resize_2/000454_2014-06-08_16-37-28_260595134347_rgbf000048-resize_2-target.png,depth_discrimination_stimuli/000375_2014-06-08_11-17-29_260595134347_rgbf000133-resize_2/000375_2014-06-08_11-17-29_260595134347_rgbf000133-resize_2-target.png,1000,1.213,4.718,0,2023,511,1001,497,993,509,feet,,,,,1750188,2115530,33
293248,DepthScenes,duration_discrimination,discrim_jsons/d0_rotated_dr.json,http://54.173.234.186/DepthDuration/depth_discrimination_MTurk/DepthDiscrim_HTML.html#2,2,1920,937,1920,1080,6-19-2021,14-0-7,17,depth_discrimination_stimuli/003395_2014-05-20_15-39-18_094959634447_rgbf000101-resize_0/003395_2014-05-20_15-39-18_094959634447_rgbf000101-resize_0-target.png,depth_discrimination_stimuli/001540_2014-06-20_17-01-05_260595134347_rgbf000086-resize_2/001540_2014-06-20_17-01-05_260595134347_rgbf000086-resize_2-target.png,250,4.835,1.459,1,1491,519,240,510,241,509,feet,,,,,1750188,2115530,33
293248,DepthScenes,duration_discrimination,discrim_jsons/d0_rotated_dr.json,http://54.173.234.186/DepthDuration/depth_discrimination_MTurk/DepthDiscrim_HTML.html#2,2,1920,937,1920,1080,6-19-2021,14-0-7,18,depth_discrimination_stimuli/003621_2014-05-23_18-06-08_094959634447_rgbf000101-resize_1/003621_2014-05-23_18-06-08_094959634447_rgbf000101-resize_1-target.png,depth_discrimination_stimuli/001808_2014-06-26_20-50-58_260595134347_rgbf000029-resize_1/001808_2014-06-26_20-50-58_260595134347_rgbf000029-resize_1-target.png,1000,3.9835,4.249,1,3130,509,1001,495,1015,489,feet,,,,,1750188,2115530,33
293248,DepthScenes,duration_discrimination,discrim_jsons/d0_rotated_dr.json,http://54.173.234.186/DepthDuration/depth_discrimination_MTurk/DepthDiscrim_HTML.html#2,2,1920,937,1920,1080,6-19-2021,14-0-7,19,depth_discrimination_stimuli/001806_2014-06-26_20-50-20_260595134347_rgbf000091-resize_1/001806_2014-06-26_20-50-20_260595134347_rgbf000091-resize_1-target.png,depth_discrimination_stimuli/002460_2014-06-28_20-35-43_260595134347_rgbf000028-resize_4/002460_2014-06-28_20-35-43_260595134347_rgbf000028-resize_4-target.png,250,2.7305,2.269,1,1764,514,239,500,250,500,feet,,,,,1750188,2115530,33
293248,DepthScenes,duration_discrimination,discrim_jsons/d0_rotated_dr.json,http://54.173.234.186/DepthDuration/depth_discrimination_MTurk/DepthDiscrim_HTML.html#2,2,1920,937,1920,1080,6-19-2021,14-0-7,20,depth_discrimination_stimuli/001132_2014-06-17_14-48-54_260595134347_rgbf000100-resize_2/001132_2014-06-17_14-48-54_260595134347_rgbf000100-resize_2-target.png,depth_discrimination_stimuli/002639_2014-06-24_14-51-37_094959634447_rgbf000074-resize_4/002639_2014-06-24_14-51-37_094959634447_rgbf000074-resize_4-target.png,250,3.753,4.0375,0,1757,505,247,514,240,509,feet,,,,,1750188,2115530,33
293248,DepthScenes,duration_discrimination,discrim_jsons/d0_rotated_dr.json,http://54.173.234.186/DepthDuration/depth_discrimination_MTurk/DepthDiscrim_HTML.html#2,2,1920,937,1920,1080,6-19-2021,14-0-7,21,depth_discrimination_stimuli/001532_2014-06-20_16-50-41_260595134347_rgbf000081-resize_4/001532_2014-06-20_16-50-41_260595134347_rgbf000081-resize_4-target.png,depth_discrimination_stimuli/002784_2014-06-22_19-26-30_094959634447_rgbf000083-resize_3/002784_2014-06-22_19-26-30_094959634447_rgbf000083-resize_3-target.png,250,1.5758333333333,1.8046666666667,0,1729,512,241,509,240,511,feet,,,,,1750188,2115530,33
293248,DepthScenes,duration_discrimination,discrim_jsons/d0_rotated_dr.json,http://54.173.234.186/DepthDuration/depth_discrimination_MTurk/DepthDiscrim_HTML.html#2,2,1920,937,1920,1080,6-19-2021,14-0-7,22,depth_discrimination_stimuli/002545_2014-06-24_13-38-53_094959634447_rgbf000080-resize_4/002545_2014-06-24_13-38-53_094959634447_rgbf000080-resize_4-target.png,depth_discrimination_stimuli/002549_2014-06-24_13-41-39_094959634447_rgbf000022-resize_3/002549_2014-06-24_13-41-39_094959634447_rgbf000022-resize_3-target.png,1000,1.9205,1.476,1,2047,505,1006,491,1010,500,feet,,,,,1750188,2115530,33
293248,DepthScenes,duration_discrimination,discrim_jsons/d0_rotated_dr.json,http://54.173.234.186/DepthDuration/depth_discrimination_MTurk/DepthDiscrim_HTML.html#2,2,1920,937,1920,1080,6-19-2021,14-0-7,23,depth_discrimination_stimuli/001175_2014-06-17_15-45-55_260595134347_rgbf000129-resize_4/001175_2014-06-17_15-45-55_260595134347_rgbf000129-resize_4-target.png,depth_discrimination_stimuli/002467_2014-06-28_20-38-07_260595134347_rgbf000026-resize_2/002467_2014-06-28_20-38-07_260595134347_rgbf000026-resize_2-target.png,250,4.255,4.742,0,1655,513,239,511,240,503,feet,,,,,1750188,2115530,33
293248,DepthScenes,duration_discrimination,discrim_jsons/d0_rotated_dr.json,http://54.173.234.186/DepthDuration/depth_discrimination_MTurk/DepthDiscrim_HTML.html#2,2,1920,937,1920,1080,6-19-2021,14-0-7,24,depth_discrimination_stimuli/000137_2014-05-20_17-04-49_260595134347_rgbf000120-resize_1/000137_2014-05-20_17-04-49_260595134347_rgbf000120-resize_1-target.png,depth_discrimination_stimuli/000691_2014-06-08_13-08-50_260595134347_rgbf000132-resize_3/000691_2014-06-08_13-08-50_260595134347_rgbf000132-resize_3-target.png,1000,3.786,4.153,1,2220,514,999,500,1000,501,feet,,,,,1750188,2115530,33
293248,DepthScenes,duration_discrimination,discrim_jsons/d0_rotated_dr.json,http://54.173.234.186/DepthDuration/depth_discrimination_MTurk/DepthDiscrim_HTML.html#2,2,1920,937,1920,1080,6-19-2021,14-0-7,25,depth_discrimination_stimuli/000542_2014-06-08_18-27-08_260595134347_rgbf000118-resize_1/000542_2014-06-08_18-27-08_260595134347_rgbf000118-resize_1-target.png,depth_discrimination_stimuli/002118_2014-06-25_20-32-08_260595134347_rgbf000078-resize_1/002118_2014-06-25_20-32-08_260595134347_rgbf000078-resize_1-target.png,250,3,2.646,1,2525,507,244,500,259,502,feet,,,,,1750188,2115530,33
293248,DepthScenes,duration_discrimination,discrim_jsons/d0_rotated_dr.json,http://54.173.234.186/DepthDuration/depth_discrimination_MTurk/DepthDiscrim_HTML.html#2,2,1920,937,1920,1080,6-19-2021,14-0-7,26,depth_discrimination_stimuli/001170_2014-06-17_15-43-44_260595134347_rgbf000096-resize_6/001170_2014-06-17_15-43-44_260595134347_rgbf000096-resize_6-target.png,depth_discrimination_stimuli/002364_2014-06-28_20-11-05_260595134347_rgbf000042-resize_0/002364_2014-06-28_20-11-05_260595134347_rgbf000042-resize_0-target.png,1000,1.191,4.682,0,2177,514,990,510,996,501,feet,,,,,1750188,2115530,33
293248,DepthScenes,duration_discrimination,discrim_jsons/d0_rotated_dr.json,http://54.173.234.186/DepthDuration/depth_discrimination_MTurk/DepthDiscrim_HTML.html#2,2,1920,937,1920,1080,6-19-2021,14-0-7,27,depth_discrimination_stimuli/000736_2014-06-08_18-24-15_260595134347_rgbf000206-resize_3/000736_2014-06-08_18-24-15_260595134347_rgbf000206-resize_3-target.png,depth_discrimination_stimuli/002323_2014-06-28_20-01-54_260595134347_rgbf000051-resize_4/002323_2014-06-28_20-01-54_260595134347_rgbf000051-resize_4-target.png,1000,3.515,3.731,0,2340,514,990,500,999,511,feet,,,,,1750188,2115530,33
293248,DepthScenes,duration_discrimination,discrim_jsons/d0_rotated_dr.json,http://54.173.234.186/DepthDuration/depth_discrimination_MTurk/DepthDiscrim_HTML.html#2,2,1920,937,1920,1080,6-19-2021,14-0-7,28,depth_discrimination_stimuli/002365_2014-06-28_20-11-21_260595134347_rgbf000102-resize_1/002365_2014-06-28_20-11-21_260595134347_rgbf000102-resize_1-target.png,depth_discrimination_stimuli/000457_2014-06-08_16-52-43_260595134347_rgbf000199-resize_1/000457_2014-06-08_16-52-43_260595134347_rgbf000199-resize_1-target.png,250,4.013,3.649,1,1587,519,240,511,241,497,feet,,,,,1750188,2115530,33
293248,DepthScenes,duration_discrimination,discrim_jsons/d0_rotated_dr.json,http://54.173.234.186/DepthDuration/depth_discrimination_MTurk/DepthDiscrim_HTML.html#2,2,1920,937,1920,1080,6-19-2021,14-0-7,29,depth_discrimination_stimuli/002995_2014-06-15_12-31-26_094959634447_rgbf000150-resize_1/002995_2014-06-15_12-31-26_094959634447_rgbf000150-resize_1-target.png,depth_discrimination_stimuli/000739_2014-06-08_18-45-58_260595134347_rgbf000068-resize_1/000739_2014-06-08_18-45-58_260595134347_rgbf000068-resize_1-target.png,250,3.836,3.534,1,1419,513,249,497,242,511,feet,,,,,1750188,2115530,33
293248,DepthScenes,duration_discrimination,discrim_jsons/d0_rotated_dr.json,http://54.173.234.186/DepthDuration/depth_discrimination_MTurk/DepthDiscrim_HTML.html#2,2,1920,937,1920,1080,6-19-2021,14-0-7,30,depth_discrimination_stimuli/003010_2014-06-15_12-54-35_094959634447_rgbf000112-resize_0/003010_2014-06-15_12-54-35_094959634447_rgbf000112-resize_0-target.png,depth_discrimination_stimuli/003546_2014-05-22_15-48-53_094959634447_rgbf004816-resize_3/003546_2014-05-22_15-48-53_094959634447_rgbf004816-resize_3-target.png,250,3.1185,2.62625,1,1916,509,251,493,260,491,feet,,,,,1750188,2115530,33
293248,DepthScenes,duration_discrimination,discrim_jsons/d0_rotated_dr.json,http://54.173.234.186/DepthDuration/depth_discrimination_MTurk/DepthDiscrim_HTML.html#2,2,1920,937,1920,1080,6-19-2021,14-0-7,31,depth_discrimination_stimuli/002340_2014-06-28_20-05-46_260595134347_rgbf000113-resize_0/002340_2014-06-28_20-05-46_260595134347_rgbf000113-resize_0-target.png,depth_discrimination_stimuli/001264_2014-06-16_16-10-23_260595134347_rgbf000109-resize_1/001264_2014-06-16_16-10-23_260595134347_rgbf000109-resize_1-target.png,250,2.4735,2.9665,1,2049,505,258,499,247,506,feet,,,,,1750188,2115530,33
293248,DepthScenes,duration_discrimination,discrim_jsons/d0_rotated_dr.json,http://54.173.234.186/DepthDuration/depth_discrimination_MTurk/DepthDiscrim_HTML.html#2,2,1920,937,1920,1080,6-19-2021,14-0-7,32,depth_discrimination_stimuli/001570_2014-06-20_17-21-09_260595134347_rgbf000135-resize_4/001570_2014-06-20_17-21-09_260595134347_rgbf000135-resize_4-target.png,depth_discrimination_stimuli/002375_2014-06-28_20-13-44_260595134347_rgbf000032-resize_1/002375_2014-06-28_20-13-44_260595134347_rgbf000032-resize_1-target.png,1000,4.467,4.0175,1,2043,504,1009,500,1001,500,feet,,,,,1750188,2115530,33
293248,DepthScenes,duration_discrimination,discrim_jsons/d0_rotated_dr.json,http://54.173.234.186/DepthDuration/depth_discrimination_MTurk/DepthDiscrim_HTML.html#2,2,1920,937,1920,1080,6-19-2021,14-0-7,33,depth_discrimination_stimuli/001214_2014-06-17_16-13-55_260595134347_rgbf000111-resize_0/001214_2014-06-17_16-13-55_260595134347_rgbf000111-resize_0-target.png,depth_discrimination_stimuli/000665_2014-06-09_20-42-35_260595134347_rgbf000110-resize_1/000665_2014-06-09_20-42-35_260595134347_rgbf000110-resize_1-target.png,1000,2.6505,3.057,1,4586,517,985,512,994,510,feet,,,,,1750188,2115530,33
293248,DepthScenes,duration_discrimination,discrim_jsons/d0_rotated_dr.json,http://54.173.234.186/DepthDuration/depth_discrimination_MTurk/DepthDiscrim_HTML.html#2,2,1920,937,1920,1080,6-19-2021,14-0-7,34,depth_discrimination_stimuli/001724_2014-06-26_19-28-50_260595134347_rgbf000037-resize_7/001724_2014-06-26_19-28-50_260595134347_rgbf000037-resize_7-target.png,depth_discrimination_stimuli/002989_2014-06-15_12-25-03_094959634447_rgbf000150-resize_3/002989_2014-06-15_12-25-03_094959634447_rgbf000150-resize_3-target.png,250,3.827,4.1975,0,2014,518,240,510,240,499,feet,,,,,1750188,2115530,33
293248,DepthScenes,duration_discrimination,discrim_jsons/d0_rotated_dr.json,http://54.173.234.186/DepthDuration/depth_discrimination_MTurk/DepthDiscrim_HTML.html#2,2,1920,937,1920,1080,6-19-2021,14-0-7,35,depth_discrimination_stimuli/001618_2014-06-20_11-37-31_260595134347_rgbf000027-resize_3/001618_2014-06-20_11-37-31_260595134347_rgbf000027-resize_3-target.png,depth_discrimination_stimuli/001016_2014-06-09_16-16-10_260595134347_rgbf000112-resize_5/001016_2014-06-09_16-16-10_260595134347_rgbf000112-resize_5-target.png,1000,1.8725,1.6565,1,2780,506,1000,496,1002,502,feet,,,,,1750188,2115530,33
293248,DepthScenes,duration_discrimination,discrim_jsons/d0_rotated_dr.json,http://54.173.234.186/DepthDuration/depth_discrimination_MTurk/DepthDiscrim_HTML.html#2,2,1920,937,1920,1080,6-19-2021,14-0-7,36,depth_discrimination_stimuli/001571_2014-06-20_17-21-32_260595134347_rgbf000089-resize_1/001571_2014-06-20_17-21-32_260595134347_rgbf000089-resize_1-target.png,depth_discrimination_stimuli/002953_2014-06-08_17-32-18_094959634447_rgbf000059-resize_5/002953_2014-06-08_17-32-18_094959634447_rgbf000059-resize_5-target.png,250,1.86,1.551,1,1507,503,251,509,250,490,feet,,,,,1750188,2115530,33
293248,DepthScenes,duration_discrimination,discrim_jsons/d0_rotated_dr.json,http://54.173.234.186/DepthDuration/depth_discrimination_MTurk/DepthDiscrim_HTML.html#2,2,1920,937,1920,1080,6-19-2021,14-0-7,37,depth_discrimination_stimuli/000917_2014-06-09_22-45-29_260595134347_rgbf000149-resize_3/000917_2014-06-09_22-45-29_260595134347_rgbf000149-resize_3-target.png,depth_discrimination_stimuli/003081_2014-06-15_15-19-16_094959634447_rgbf000150-resize_1/003081_2014-06-15_15-19-16_094959634447_rgbf000150-resize_1-target.png,1000,4.1865,3.9125,0,2402,514,1000,499,1000,501,feet,,,,,1750188,2115530,33
293248,DepthScenes,duration_discrimination,discrim_jsons/d0_rotated_dr.json,http://54.173.234.186/DepthDuration/depth_discrimination_MTurk/DepthDiscrim_HTML.html#2,2,1920,937,1920,1080,6-19-2021,14-0-7,38,depth_discrimination_stimuli/003228_2014-05-14_13-42-35_094959634447_rgbf000101-resize_1/003228_2014-05-14_13-42-35_094959634447_rgbf000101-resize_1-target.png,depth_discrimination_stimuli/001164_2014-06-17_15-35-46_260595134347_rgbf000085-resize_3/001164_2014-06-17_15-35-46_260595134347_rgbf000085-resize_3-target.png,1000,1.968,2.354,1,1988,519,989,495,1016,500,feet,,,,,1750188,2115530,33
293248,DepthScenes,duration_discrimination,discrim_jsons/d0_rotated_dr.json,http://54.173.234.186/DepthDuration/depth_discrimination_MTurk/DepthDiscrim_HTML.html#2,2,1920,937,1920,1080,6-19-2021,14-0-7,39,depth_discrimination_stimuli/000906_2014-06-08_13-35-43_260595134347_rgbf000155-resize_1/000906_2014-06-08_13-35-43_260595134347_rgbf000155-resize_1-target.png,depth_discrimination_stimuli/001059_2014-06-08_21-53-27_260595134347_rgbf000061-resize_4/001059_2014-06-08_21-53-27_260595134347_rgbf000061-resize_4-target.png,1000,2.849,2.4185,1,1679,517,988,511,991,510,feet,,,,,1750188,2115530,33
293248,DepthScenes,duration_discrimination,discrim_jsons/d0_rotated_dr.json,http://54.173.234.186/DepthDuration/depth_discrimination_MTurk/DepthDiscrim_HTML.html#2,2,1920,937,1920,1080,6-19-2021,14-0-7,40,depth_discrimination_stimuli/002748_2014-06-22_19-07-22_094959634447_rgbf000078-resize_1/002748_2014-06-22_19-07-22_094959634447_rgbf000078-resize_1-target.png,depth_discrimination_stimuli/002657_2014-06-13_15-29-54_094959634447_rgbf000150-resize_1/002657_2014-06-13_15-29-54_094959634447_rgbf000150-resize_1-target.png,1000,4.6705,4.919,0,3334,512,990,510,1000,490,feet,,,,,1750188,2115530,33
293248,DepthScenes,duration_discrimination,discrim_jsons/d0_rotated_dr.json,http://54.173.234.186/DepthDuration/depth_discrimination_MTurk/DepthDiscrim_HTML.html#2,2,1920,937,1920,1080,6-19-2021,14-0-7,41,depth_discrimination_stimuli/000800_2014-06-08_22-42-09_260595134347_rgbf000095-resize_3/000800_2014-06-08_22-42-09_260595134347_rgbf000095-resize_3-target.png,depth_discrimination_stimuli/002700_2014-06-22_11-27-02_094959634447_rgbf000124-resize_3/002700_2014-06-22_11-27-02_094959634447_rgbf000124-resize_3-target.png,250,2.8,3.301,1,1380,505,248,513,244,505,feet,,,,,1750188,2115530,33
293248,DepthScenes,duration_discrimination,discrim_jsons/d0_rotated_dr.json,http://54.173.234.186/DepthDuration/depth_discrimination_MTurk/DepthDiscrim_HTML.html#2,2,1920,937,1920,1080,6-19-2021,14-0-7,42,depth_discrimination_stimuli/002875_2014-06-01_15-19-00_094959634447_rgbf000151-resize_1/002875_2014-06-01_15-19-00_094959634447_rgbf000151-resize_1-target.png,depth_discrimination_stimuli/000749_2014-06-08_21-55-06_260595134347_rgbf000070-resize_2/000749_2014-06-08_21-55-06_260595134347_rgbf000070-resize_2-target.png,1000,1.9675,2.331,1,1620,510,1010,500,990,507,feet,,,,,1750188,2115530,33
293248,DepthScenes,duration_discrimination,discrim_jsons/d0_rotated_dr.json,http://54.173.234.186/DepthDuration/depth_discrimination_MTurk/DepthDiscrim_HTML.html#2,2,1920,937,1920,1080,6-19-2021,14-0-7,43,depth_discrimination_stimuli/003288_2014-05-14_21-50-30_094959634447_rgbf000028-resize_3/003288_2014-05-14_21-50-30_094959634447_rgbf000028-resize_3-target.png,depth_discrimination_stimuli/000735_2014-06-08_18-23-50_260595134347_rgbf000163-resize_2/000735_2014-06-08_18-23-50_260595134347_rgbf000163-resize_2-target.png,1000,3.877,4.1695,0,2166,520,1000,500,1000,500,feet,,,,,1750188,2115530,33
293248,DepthScenes,duration_discrimination,discrim_jsons/d0_rotated_dr.json,http://54.173.234.186/DepthDuration/depth_discrimination_MTurk/DepthDiscrim_HTML.html#2,2,1920,937,1920,1080,6-19-2021,14-0-7,44,depth_discrimination_stimuli/000447_2014-06-08_16-15-46_260595134347_rgbf000130-resize_1/000447_2014-06-08_16-15-46_260595134347_rgbf000130-resize_1-target.png,depth_discrimination_stimuli/002988_2014-06-15_12-24-20_094959634447_rgbf000150-resize_1/002988_2014-06-15_12-24-20_094959634447_rgbf000150-resize_1-target.png,250,4.479,4.767,0,1954,502,263,489,261,500,feet,,,,,1750188,2115530,33
293248,DepthScenes,duration_discrimination,discrim_jsons/d0_rotated_dr.json,http://54.173.234.186/DepthDuration/depth_discrimination_MTurk/DepthDiscrim_HTML.html#2,2,1920,937,1920,1080,6-19-2021,14-0-7,45,depth_discrimination_stimuli/002272_2014-06-28_18-53-56_260595134347_rgbf000067-resize_2/002272_2014-06-28_18-53-56_260595134347_rgbf000067-resize_2-target.png,depth_discrimination_stimuli/003534_2014-05-22_15-06-10_094959634447_rgbf000102-resize_4/003534_2014-05-22_15-06-10_094959634447_rgbf000102-resize_4-target.png,250,1.138,1.426,1,1741,516,241,509,237,513,feet,,,,,1750188,2115530,33
293248,DepthScenes,duration_discrimination,discrim_jsons/d0_rotated_dr.json,http://54.173.234.186/DepthDuration/depth_discrimination_MTurk/DepthDiscrim_HTML.html#2,2,1920,937,1920,1080,6-19-2021,14-0-7,46,depth_discrimination_stimuli/000522_2014-06-08_13-35-06_260595134347_rgbf000244-resize_1/000522_2014-06-08_13-35-06_260595134347_rgbf000244-resize_1-target.png,depth_discrimination_stimuli/001092_2014-06-15_17-34-58_260595134347_rgbf000171-resize_3/001092_2014-06-15_17-34-58_260595134347_rgbf000171-resize_3-target.png,1000,2.3715,2.6935,0,1951,509,1001,499,995,501,feet,,,,,1750188,2115530,33
293248,DepthScenes,duration_discrimination,discrim_jsons/d0_rotated_dr.json,http://54.173.234.186/DepthDuration/depth_discrimination_MTurk/DepthDiscrim_HTML.html#2,2,1920,937,1920,1080,6-19-2021,14-0-7,47,depth_discrimination_stimuli/000866_2014-06-09_20-45-42_260595134347_rgbf000139-resize_1/000866_2014-06-09_20-45-42_260595134347_rgbf000139-resize_1-target.png,depth_discrimination_stimuli/000682_2014-06-08_23-14-58_260595134347_rgbf000041-resize_5/000682_2014-06-08_23-14-58_260595134347_rgbf000041-resize_5-target.png,1000,3.2155,2.724,1,2004,509,1011,500,1000,500,feet,,,,,1750188,2115530,33
293248,DepthScenes,duration_discrimination,discrim_jsons/d0_rotated_dr.json,http://54.173.234.186/DepthDuration/depth_discrimination_MTurk/DepthDiscrim_HTML.html#2,2,1920,937,1920,1080,6-19-2021,14-0-7,48,depth_discrimination_stimuli/000569_2014-06-09_22-51-47_260595134347_rgbf000141-resize_3/000569_2014-06-09_22-51-47_260595134347_rgbf000141-resize_3-target.png,depth_discrimination_stimuli/000868_2014-06-09_20-49-52_260595134347_rgbf000064-resize_4/000868_2014-06-09_20-49-52_260595134347_rgbf000064-resize_4-target.png,250,4.512,1.2815,1,1465,515,240,510,240,499,feet,,,,,1750188,2115530,33
293248,DepthScenes,duration_discrimination,discrim_jsons/d0_rotated_dr.json,http://54.173.234.186/DepthDuration/depth_discrimination_MTurk/DepthDiscrim_HTML.html#2,2,1920,937,1920,1080,6-19-2021,14-0-7,49,depth_discrimination_stimuli/000636_2014-06-08_16-39-02_260595134347_rgbf000108-resize_4/000636_2014-06-08_16-39-02_260595134347_rgbf000108-resize_4-target.png,depth_discrimination_stimuli/002568_2014-06-24_13-59-21_094959634447_rgbf000062-resize_4/002568_2014-06-24_13-59-21_094959634447_rgbf000062-resize_4-target.png,1000,2.682,3.015,0,2008,505,1001,499,999,500,feet,,,,,1750188,2115530,33
293248,DepthScenes,duration_discrimination,discrim_jsons/d0_rotated_dr.json,http://54.173.234.186/DepthDuration/depth_discrimination_MTurk/DepthDiscrim_HTML.html#2,2,1920,937,1920,1080,6-19-2021,14-0-7,50,depth_discrimination_stimuli/001181_2014-06-17_15-50-57_260595134347_rgbf000106-resize_4/001181_2014-06-17_15-50-57_260595134347_rgbf000106-resize_4-target.png,depth_discrimination_stimuli/002425_2014-06-28_20-27-29_260595134347_rgbf000031-resize_8/002425_2014-06-28_20-27-29_260595134347_rgbf000031-resize_8-target.png,1000,4.149,3.896,1,2142,502,999,502,998,500,feet,,,,,1750188,2115530,33
293248,DepthScenes,duration_discrimination,discrim_jsons/d0_rotated_dr.json,http://54.173.234.186/DepthDuration/depth_discrimination_MTurk/DepthDiscrim_HTML.html#2,2,1920,937,1920,1080,6-19-2021,14-0-7,51,depth_discrimination_stimuli/001498_2014-06-19_17-45-14_260595134347_rgbf000129-resize_4/001498_2014-06-19_17-45-14_260595134347_rgbf000129-resize_4-target.png,depth_discrimination_stimuli/003125_2014-05-12_10-39-22_094959634447_rgbf000100-resize_0/003125_2014-05-12_10-39-22_094959634447_rgbf000100-resize_0-target.png,250,1.4075,4.8655,0,1638,506,261,490,259,490,feet,,,,,1750188,2115530,33
293248,DepthScenes,duration_discrimination,discrim_jsons/d0_rotated_dr.json,http://54.173.234.186/DepthDuration/depth_discrimination_MTurk/DepthDiscrim_HTML.html#2,2,1920,937,1920,1080,6-19-2021,14-0-7,52,depth_discrimination_stimuli/002637_2014-06-24_14-51-13_094959634447_rgbf000066-resize_4/002637_2014-06-24_14-51-13_094959634447_rgbf000066-resize_4-target.png,depth_discrimination_stimuli/000720_2014-06-08_18-37-27_260595134347_rgbf000203-resize_4/000720_2014-06-08_18-37-27_260595134347_rgbf000203-resize_4-target.png,250,1.9955,1.558,1,1413,512,249,491,260,489,feet,,,,,1750188,2115530,33
293248,DepthScenes,duration_discrimination,discrim_jsons/d0_rotated_dr.json,http://54.173.234.186/DepthDuration/depth_discrimination_MTurk/DepthDiscrim_HTML.html#2,2,1920,937,1920,1080,6-19-2021,14-0-7,53,depth_discrimination_stimuli/000368_2014-06-09_15-53-01_260595134347_rgbf000155-resize_2/000368_2014-06-09_15-53-01_260595134347_rgbf000155-resize_2-target.png,depth_discrimination_stimuli/002199_2014-06-28_18-33-56_260595134347_rgbf000074-resize_0/002199_2014-06-28_18-33-56_260595134347_rgbf000074-resize_0-target.png,1000,2.486,1.996,1,2017,506,1000,500,1000,500,feet,,,,,1750188,2115530,33
293248,DepthScenes,duration_discrimination,discrim_jsons/d0_rotated_dr.json,http://54.173.234.186/DepthDuration/depth_discrimination_MTurk/DepthDiscrim_HTML.html#2,2,1920,937,1920,1080,6-19-2021,14-0-7,54,depth_discrimination_stimuli/002788_2014-06-22_19-36-03_094959634447_rgbf000088-resize_2/002788_2014-06-22_19-36-03_094959634447_rgbf000088-resize_2-target.png,depth_discrimination_stimuli/001289_2014-06-16_16-25-52_260595134347_rgbf000067-resize_1/001289_2014-06-16_16-25-52_260595134347_rgbf000067-resize_1-target.png,250,1.6465,1.8835,1,1588,502,260,490,261,499,feet,,,,,1750188,2115530,33
293248,DepthScenes,duration_discrimination,discrim_jsons/d0_rotated_dr.json,http://54.173.234.186/DepthDuration/depth_discrimination_MTurk/DepthDiscrim_HTML.html#2,2,1920,937,1920,1080,6-19-2021,14-0-7,55,depth_discrimination_stimuli/003083_2014-06-15_15-21-03_094959634447_rgbf000063-resize_1/003083_2014-06-15_15-21-03_094959634447_rgbf000063-resize_1-target.png,depth_discrimination_stimuli/001417_2014-06-19_16-25-36_260595134347_rgbf000115-resize_5/001417_2014-06-19_16-25-36_260595134347_rgbf000115-resize_5-target.png,1000,4.1405,4.6255,1,2061,503,999,500,1010,500,feet,,,,,1750188,2115530,33
293248,DepthScenes,duration_discrimination,discrim_jsons/d0_rotated_dr.json,http://54.173.234.186/DepthDuration/depth_discrimination_MTurk/DepthDiscrim_HTML.html#2,2,1920,937,1920,1080,6-19-2021,14-0-7,56,depth_discrimination_stimuli/001133_2014-06-17_14-49-16_260595134347_rgbf000100-resize_0/001133_2014-06-17_14-49-16_260595134347_rgbf000100-resize_0-target.png,depth_discrimination_stimuli/001617_2014-06-20_11-35-32_260595134347_rgbf000066-resize_1/001617_2014-06-20_11-35-32_260595134347_rgbf000066-resize_1-target.png,250,4.2115,3.791,0,2581,510,249,510,240,501,feet,,,,,1750188,2115530,33
293248,DepthScenes,duration_discrimination,discrim_jsons/d0_rotated_dr.json,http://54.173.234.186/DepthDuration/depth_discrimination_MTurk/DepthDiscrim_HTML.html#2,2,1920,937,1920,1080,6-19-2021,14-0-7,57,depth_discrimination_stimuli/000009_2014-05-26_14-32-05_260595134347_rgbf000034-resize_3/000009_2014-05-26_14-32-05_260595134347_rgbf000034-resize_3-target.png,depth_discrimination_stimuli/002660_2014-06-13_15-44-18_094959634447_rgbf001878-resize_2/002660_2014-06-13_15-44-18_094959634447_rgbf001878-resize_2-target.png,250,3.8715,3.576,1,1361,509,260,500,240,501,feet,,,,,1750188,2115530,33
293248,DepthScenes,duration_discrimination,discrim_jsons/d0_rotated_dr.json,http://54.173.234.186/DepthDuration/depth_discrimination_MTurk/DepthDiscrim_HTML.html#2,2,1920,937,1920,1080,6-19-2021,14-0-7,58,depth_discrimination_stimuli/003495_2014-05-21_16-01-51_094959634447_rgbf000100-resize_3/003495_2014-05-21_16-01-51_094959634447_rgbf000100-resize_3-target.png,depth_discrimination_stimuli/001167_2014-06-17_15-38-07_260595134347_rgbf000108-resize_0/001167_2014-06-17_15-38-07_260595134347_rgbf000108-resize_0-target.png,1000,1.6255,1.8505,1,2095,519,990,500,1000,510,feet,,,,,1750188,2115530,33
293248,DepthScenes,duration_discrimination,discrim_jsons/d0_rotated_dr.json,http://54.173.234.186/DepthDuration/depth_discrimination_MTurk/DepthDiscrim_HTML.html#2,2,1920,937,1920,1080,6-19-2021,14-0-7,59,depth_discrimination_stimuli/000830_2014-06-04_19-49-31_260595134347_rgbf000096-resize_2/000830_2014-06-04_19-49-31_260595134347_rgbf000096-resize_2-target.png,depth_discrimination_stimuli/000929_2014-06-09_16-33-19_260595134347_rgbf000139-resize_0/000929_2014-06-09_16-33-19_260595134347_rgbf000139-resize_0-target.png,1000,2.6353333333333,2.868,0,2009,515,1000,500,1000,490,feet,,,,,1750188,2115530,33
293248,DepthScenes,duration_discrimination,discrim_jsons/d0_rotated_dr.json,http://54.173.234.186/DepthDuration/depth_discrimination_MTurk/DepthDiscrim_HTML.html#2,2,1920,937,1920,1080,6-19-2021,14-0-7,60,depth_discrimination_stimuli/001136_2014-06-17_15-19-41_260595134347_rgbf000076-resize_3/001136_2014-06-17_15-19-41_260595134347_rgbf000076-resize_3-target.png,depth_discrimination_stimuli/000869_2014-06-09_20-50-18_260595134347_rgbf000060-resize_3/000869_2014-06-09_20-50-18_260595134347_rgbf000060-resize_3-target.png,1000,1.8655,2.266,1,2028,510,1000,501,999,500,feet,,,,,1750188,2115530,33
293248,DepthScenes,duration_discrimination,discrim_jsons/d0_rotated_dr.json,http://54.173.234.186/DepthDuration/depth_discrimination_MTurk/DepthDiscrim_HTML.html#2,2,1920,937,1920,1080,6-19-2021,14-0-7,61,depth_discrimination_stimuli/001029_2014-06-08_13-17-57_260595134347_rgbf000065-resize_1/001029_2014-06-08_13-17-57_260595134347_rgbf000065-resize_1-target.png,depth_discrimination_stimuli/001199_2014-06-17_16-03-48_260595134347_rgbf000077-resize_0/001199_2014-06-17_16-03-48_260595134347_rgbf000077-resize_0-target.png,1000,3.0835,3.4375,0,2050,511,996,499,1005,500,feet,,,,,1750188,2115530,33
293248,DepthScenes,duration_discrimination,discrim_jsons/d0_rotated_dr.json,http://54.173.234.186/DepthDuration/depth_discrimination_MTurk/DepthDiscrim_HTML.html#2,2,1920,937,1920,1080,6-19-2021,14-0-7,62,depth_discrimination_stimuli/003092_2014-06-24_21-01-49_094959634447_rgbf000049-resize_2/003092_2014-06-24_21-01-49_094959634447_rgbf000049-resize_2-target.png,depth_discrimination_stimuli/000753_2014-06-08_21-57-44_260595134347_rgbf000123-resize_3/000753_2014-06-08_21-57-44_260595134347_rgbf000123-resize_3-target.png,250,1.666,1.916,1,1495,505,253,507,250,490,feet,,,,,1750188,2115530,33
293248,DepthScenes,duration_discrimination,discrim_jsons/d0_rotated_dr.json,http://54.173.234.186/DepthDuration/depth_discrimination_MTurk/DepthDiscrim_HTML.html#2,2,1920,937,1920,1080,6-19-2021,14-0-7,63,depth_discrimination_stimuli/000758_2014-06-08_22-05-08_260595134347_rgbf000085-resize_0/000758_2014-06-08_22-05-08_260595134347_rgbf000085-resize_0-target.png,depth_discrimination_stimuli/003070_2014-06-15_14-58-27_094959634447_rgbf000150-resize_3/003070_2014-06-15_14-58-27_094959634447_rgbf000150-resize_3-target.png,250,3.381,2.9415,1,1736,502,254,509,238,512,feet,,,,,1750188,2115530,33
293248,DepthScenes,duration_discrimination,discrim_jsons/d0_rotated_dr.json,http://54.173.234.186/DepthDuration/depth_discrimination_MTurk/DepthDiscrim_HTML.html#2,2,1920,937,1920,1080,6-19-2021,14-0-7,64,depth_discrimination_stimuli/000191_2014-05-12_17-07-38_260595134347_rgbf000199-resize_0/000191_2014-05-12_17-07-38_260595134347_rgbf000199-resize_0-target.png,depth_discrimination_stimuli/000780_2014-06-08_22-28-29_260595134347_rgbf000126-resize_1/000780_2014-06-08_22-28-29_260595134347_rgbf000126-resize_1-target.png,250,3.7995,3.3825,1,1568,514,241,509,250,496,feet,,,,,1750188,2115530,33
293248,DepthScenes,duration_discrimination,discrim_jsons/d0_rotated_dr.json,http://54.173.234.186/DepthDuration/depth_discrimination_MTurk/DepthDiscrim_HTML.html#2,2,1920,937,1920,1080,6-19-2021,14-0-7,65,depth_discrimination_stimuli/000953_2014-06-08_11-42-19_260595134347_rgbf000083-resize_0/000953_2014-06-08_11-42-19_260595134347_rgbf000083-resize_0-target.png,depth_discrimination_stimuli/000787_2014-06-08_22-33-53_260595134347_rgbf000175-resize_1/000787_2014-06-08_22-33-53_260595134347_rgbf000175-resize_1-target.png,1000,1.369,4.784,0,2063,503,999,500,1000,510,feet,,,,,1750188,2115530,33
293248,DepthScenes,duration_discrimination,discrim_jsons/d0_rotated_dr.json,http://54.173.234.186/DepthDuration/depth_discrimination_MTurk/DepthDiscrim_HTML.html#2,2,1920,937,1920,1080,6-19-2021,14-0-7,66,depth_discrimination_stimuli/003423_2014-05-21_10-23-26_094959634447_rgbf002665-resize_2/003423_2014-05-21_10-23-26_094959634447_rgbf002665-resize_2-target.png,depth_discrimination_stimuli/001235_2014-06-17_16-37-36_260595134347_rgbf000084-resize_4/001235_2014-06-17_16-37-36_260595134347_rgbf000084-resize_4-target.png,250,3.2575,3.6605,1,1741,508,259,490,260,500,feet,,,,,1750188,2115530,33
293248,DepthScenes,duration_discrimination,discrim_jsons/d0_rotated_dr.json,http://54.173.234.186/DepthDuration/depth_discrimination_MTurk/DepthDiscrim_HTML.html#2,2,1920,937,1920,1080,6-19-2021,14-0-7,67,depth_discrimination_stimuli/000927_2014-06-09_16-32-30_260595134347_rgbf000123-resize_3/000927_2014-06-09_16-32-30_260595134347_rgbf000123-resize_3-target.png,depth_discrimination_stimuli/001810_2014-06-26_20-51-35_260595134347_rgbf000040-resize_3/001810_2014-06-26_20-51-35_260595134347_rgbf000040-resize_3-target.png,1000,2.6785,2.2525,1,1956,520,989,510,1000,500,feet,,,,,1750188,2115530,33
293248,DepthScenes,duration_discrimination,discrim_jsons/d0_rotated_dr.json,http://54.173.234.186/DepthDuration/depth_discrimination_MTurk/DepthDiscrim_HTML.html#2,2,1920,937,1920,1080,6-19-2021,14-0-7,68,depth_discrimination_stimuli/000788_2014-06-08_22-34-36_260595134347_rgbf000131-resize_1/000788_2014-06-08_22-34-36_260595134347_rgbf000131-resize_1-target.png,depth_discrimination_stimuli/000521_2014-06-08_13-34-35_260595134347_rgbf000191-resize_2/000521_2014-06-08_13-34-35_260595134347_rgbf000191-resize_2-target.png,1000,3.359,3.0385,1,2037,515,990,500,999,511,feet,,,,,1750188,2115530,33
293248,DepthScenes,duration_discrimination,discrim_jsons/d0_rotated_dr.json,http://54.173.234.186/DepthDuration/depth_discrimination_MTurk/DepthDiscrim_HTML.html#2,2,1920,937,1920,1080,6-19-2021,14-0-7,69,depth_discrimination_stimuli/002805_2014-06-22_19-54-03_094959634447_rgbf000079-resize_1/002805_2014-06-22_19-54-03_094959634447_rgbf000079-resize_1-target.png,depth_discrimination_stimuli/003292_2014-05-14_21-53-49_094959634447_rgbf000100-resize_2/003292_2014-05-14_21-53-49_094959634447_rgbf000100-resize_2-target.png,250,3.144,3.4815,1,1441,503,249,501,259,490,feet,,,,,1750188,2115530,33
293248,DepthScenes,duration_discrimination,discrim_jsons/d0_rotated_dr.json,http://54.173.234.186/DepthDuration/depth_discrimination_MTurk/DepthDiscrim_HTML.html#2,2,1920,937,1920,1080,6-19-2021,14-0-7,70,depth_discrimination_stimuli/001815_2014-06-26_20-52-55_260595134347_rgbf000020-resize_0/001815_2014-06-26_20-52-55_260595134347_rgbf000020-resize_0-target.png,depth_discrimination_stimuli/000642_2014-06-08_16-59-25_260595134347_rgbf000098-resize_2/000642_2014-06-08_16-59-25_260595134347_rgbf000098-resize_2-target.png,250,3.3865,2.8815,1,1552,519,249,496,248,494,feet,,,,,1750188,2115530,33
293248,DepthScenes,duration_discrimination,discrim_jsons/d0_rotated_dr.json,http://54.173.234.186/DepthDuration/depth_discrimination_MTurk/DepthDiscrim_HTML.html#2,2,1920,937,1920,1080,6-19-2021,14-0-7,71,depth_discrimination_stimuli/003338_2014-05-20_11-01-23_094959634447_rgbf000051-resize_6/003338_2014-05-20_11-01-23_094959634447_rgbf000051-resize_6-target.png,depth_discrimination_stimuli/000878_2014-06-08_22-52-45_260595134347_rgbf000045-resize_2/000878_2014-06-08_22-52-45_260595134347_rgbf000045-resize_2-target.png,250,1.693,2.092,1,1611,501,250,511,250,490,feet,,,,,1750188,2115530,33
293248,DepthScenes,duration_discrimination,discrim_jsons/d0_rotated_dr.json,http://54.173.234.186/DepthDuration/depth_discrimination_MTurk/DepthDiscrim_HTML.html#2,2,1920,937,1920,1080,6-19-2021,14-0-7,72,depth_discrimination_stimuli/002139_2014-06-25_21-19-37_260595134347_rgbf000124-resize_2/002139_2014-06-25_21-19-37_260595134347_rgbf000124-resize_2-target.png,depth_discrimination_stimuli/000549_2014-06-08_22-10-24_260595134347_rgbf000247-resize_3/000549_2014-06-08_22-10-24_260595134347_rgbf000247-resize_3-target.png,1000,2.107,1.841,1,2608,513,1006,490,1010,500,feet,,,,,1750188,2115530,33
293248,DepthScenes,duration_discrimination,discrim_jsons/d0_rotated_dr.json,http://54.173.234.186/DepthDuration/depth_discrimination_MTurk/DepthDiscrim_HTML.html#2,2,1920,937,1920,1080,6-19-2021,14-0-7,73,depth_discrimination_stimuli/000555_2014-06-09_22-42-23_260595134347_rgbf000037-resize_4/000555_2014-06-09_22-42-23_260595134347_rgbf000037-resize_4-target.png,depth_discrimination_stimuli/001110_2014-06-15_17-25-28_260595134347_rgbf000150-resize_1/001110_2014-06-15_17-25-28_260595134347_rgbf000150-resize_1-target.png,1000,1.9765,1.7115,1,1933,502,1001,500,999,500,feet,,,,,1750188,2115530,33
293248,DepthScenes,duration_discrimination,discrim_jsons/d0_rotated_dr.json,http://54.173.234.186/DepthDuration/depth_discrimination_MTurk/DepthDiscrim_HTML.html#2,2,1920,937,1920,1080,6-19-2021,14-0-7,74,depth_discrimination_stimuli/003490_2014-05-21_15-50-11_094959634447_rgbf000101-resize_3/003490_2014-05-21_15-50-11_094959634447_rgbf000101-resize_3-target.png,depth_discrimination_stimuli/001392_2014-06-19_16-07-59_260595134347_rgbf000046-resize_1/001392_2014-06-19_16-07-59_260595134347_rgbf000046-resize_1-target.png,250,3.6445,4.135,0,1662,505,260,500,250,490,feet,,,,,1750188,2115530,33
293248,DepthScenes,duration_discrimination,discrim_jsons/d0_rotated_dr.json,http://54.173.234.186/DepthDuration/depth_discrimination_MTurk/DepthDiscrim_HTML.html#2,2,1920,937,1920,1080,6-19-2021,14-0-7,75,depth_discrimination_stimuli/002663_2014-06-13_15-50-26_094959634447_rgbf000075-resize_1/002663_2014-06-13_15-50-26_094959634447_rgbf000075-resize_1-target.png,depth_discrimination_stimuli/000414_2014-06-04_19-49-13_260595134347_rgbf000044-resize_0/000414_2014-06-04_19-49-13_260595134347_rgbf000044-resize_0-target.png,250,4.7495,4.329,1,2060,504,247,507,250,501,feet,,,,,1750188,2115530,33
293248,DepthScenes,duration_discrimination,discrim_jsons/d0_rotated_dr.json,http://54.173.234.186/DepthDuration/depth_discrimination_MTurk/DepthDiscrim_HTML.html#2,2,1920,937,1920,1080,6-19-2021,14-0-7,76,depth_discrimination_stimuli/001188_2014-06-17_15-54-10_260595134347_rgbf000090-resize_2/001188_2014-06-17_15-54-10_260595134347_rgbf000090-resize_2-target.png,depth_discrimination_stimuli/002750_2014-06-22_19-08-03_094959634447_rgbf000094-resize_4/002750_2014-06-22_19-08-03_094959634447_rgbf000094-resize_4-target.png,1000,2.744,2.354,0,2615,520,1000,490,1010,500,feet,,,,,1750188,2115530,33
293248,DepthScenes,duration_discrimination,discrim_jsons/d0_rotated_dr.json,http://54.173.234.186/DepthDuration/depth_discrimination_MTurk/DepthDiscrim_HTML.html#2,2,1920,937,1920,1080,6-19-2021,14-0-7,77,depth_discrimination_stimuli/002678_2014-06-13_16-15-32_094959634447_rgbf000151-resize_6/002678_2014-06-13_16-15-32_094959634447_rgbf000151-resize_6-target.png,depth_discrimination_stimuli/001011_2014-06-08_23-18-54_260595134347_rgbf000044-resize_4/001011_2014-06-08_23-18-54_260595134347_rgbf000044-resize_4-target.png,250,2.183,2.473,0,1722,502,263,490,250,500,feet,,,,,1750188,2115530,33
293248,DepthScenes,duration_discrimination,discrim_jsons/d0_rotated_dr.json,http://54.173.234.186/DepthDuration/depth_discrimination_MTurk/DepthDiscrim_HTML.html#2,2,1920,937,1920,1080,6-19-2021,14-0-7,78,depth_discrimination_stimuli/002790_2014-06-22_19-36-35_094959634447_rgbf000074-resize_4/002790_2014-06-22_19-36-35_094959634447_rgbf000074-resize_4-target.png,depth_discrimination_stimuli/001032_2014-06-08_13-23-17_260595134347_rgbf000021-resize_3/001032_2014-06-08_13-23-17_260595134347_rgbf000021-resize_3-target.png,250,3.512,3.2725,1,1368,517,250,488,251,495,feet,,,,,1750188,2115530,33
293248,DepthScenes,duration_discrimination,discrim_jsons/d0_rotated_dr.json,http://54.173.234.186/DepthDuration/depth_discrimination_MTurk/DepthDiscrim_HTML.html#2,2,1920,937,1920,1080,6-19-2021,14-0-7,79,depth_discrimination_stimuli/003492_2014-05-21_15-50-55_094959634447_rgbf000828-resize_1/003492_2014-05-21_15-50-55_094959634447_rgbf000828-resize_1-target.png,depth_discrimination_stimuli/001158_2014-06-17_15-32-16_260595134347_rgbf000138-resize_2/001158_2014-06-17_15-32-16_260595134347_rgbf000138-resize_2-target.png,1000,4.06875,4.5315,1,2904,514,1001,499,1001,499,feet,,,,,1750188,2115530,33
293248,DepthScenes,duration_discrimination,discrim_jsons/d0_rotated_dr.json,http://54.173.234.186/DepthDuration/depth_discrimination_MTurk/DepthDiscrim_HTML.html#2,2,1920,937,1920,1080,6-19-2021,14-0-7,80,depth_discrimination_stimuli/002763_2014-06-22_19-13-10_094959634447_rgbf000075-resize_4/002763_2014-06-22_19-13-10_094959634447_rgbf000075-resize_4-target.png,depth_discrimination_stimuli/001244_2014-06-17_16-47-45_260595134347_rgbf000030-resize_4/001244_2014-06-17_16-47-45_260595134347_rgbf000030-resize_4-target.png,250,1.68375,2.0425,1,1425,513,242,509,242,501,feet,,,,,1750188,2115530,33
293248,DepthScenes,duration_discrimination,discrim_jsons/d0_rotated_dr.json,http://54.173.234.186/DepthDuration/depth_discrimination_MTurk/DepthDiscrim_HTML.html#2,2,1920,937,1920,1080,6-19-2021,14-0-7,81,depth_discrimination_stimuli/002057_2014-06-24_21-00-13_260595134347_rgbf000120-resize_1/002057_2014-06-24_21-00-13_260595134347_rgbf000120-resize_1-target.png,depth_discrimination_stimuli/000505_2014-06-08_23-03-23_260595134347_rgbf000091-resize_0/000505_2014-06-08_23-03-23_260595134347_rgbf000091-resize_0-target.png,250,2.967,3.3105,1,1413,506,251,509,240,510,feet,,,,,1750188,2115530,33
293248,DepthScenes,duration_discrimination,discrim_jsons/d0_rotated_dr.json,http://54.173.234.186/DepthDuration/depth_discrimination_MTurk/DepthDiscrim_HTML.html#2,2,1920,937,1920,1080,6-19-2021,14-0-7,82,depth_discrimination_stimuli/002072_2014-06-24_21-48-06_260595134347_rgbf000115-resize_0/002072_2014-06-24_21-48-06_260595134347_rgbf000115-resize_0-target.png,depth_discrimination_stimuli/001012_2014-06-08_23-19-38_260595134347_rgbf000057-resize_0/001012_2014-06-08_23-19-38_260595134347_rgbf000057-resize_0-target.png,250,4.702,1.38325,1,2143,504,263,500,239,501,feet,,,,,1750188,2115530,33
293248,DepthScenes,duration_discrimination,discrim_jsons/d0_rotated_dr.json,http://54.173.234.186/DepthDuration/depth_discrimination_MTurk/DepthDiscrim_HTML.html#2,2,1920,937,1920,1080,6-19-2021,14-0-7,83,depth_discrimination_stimuli/000810_2014-06-08_17-20-01_260595134347_rgbf000105-resize_0/000810_2014-06-08_17-20-01_260595134347_rgbf000105-resize_0-target.png,depth_discrimination_stimuli/000103_2014-05-14_22-01-17_260595134347_rgbf000152-resize_5/000103_2014-05-14_22-01-17_260595134347_rgbf000152-resize_5-target.png,250,1.4865,1.993,1,1853,517,241,499,246,514,feet,,,,,1750188,2115530,33
293248,DepthScenes,duration_discrimination,discrim_jsons/d0_rotated_dr.json,http://54.173.234.186/DepthDuration/depth_discrimination_MTurk/DepthDiscrim_HTML.html#2,2,1920,937,1920,1080,6-19-2021,14-0-7,84,depth_discrimination_stimuli/000109_2014-05-14_23-41-52_260595134347_rgbf000035-resize_9/000109_2014-05-14_23-41-52_260595134347_rgbf000035-resize_9-target.png,depth_discrimination_stimuli/000470_2014-06-09_19-42-40_260595134347_rgbf000094-resize_1/000470_2014-06-09_19-42-40_260595134347_rgbf000094-resize_1-target.png,250,1.3545,1.831,1,1374,504,263,490,260,489,feet,,,,,1750188,2115530,33
293248,DepthScenes,duration_discrimination,discrim_jsons/d0_rotated_dr.json,http://54.173.234.186/DepthDuration/depth_discrimination_MTurk/DepthDiscrim_HTML.html#2,2,1920,937,1920,1080,6-19-2021,14-0-7,85,depth_discrimination_stimuli/002675_2014-06-13_16-08-49_094959634447_rgbf000151-resize_2/002675_2014-06-13_16-08-49_094959634447_rgbf000151-resize_2-target.png,depth_discrimination_stimuli/001222_2014-06-17_16-24-06_260595134347_rgbf000073-resize_0/001222_2014-06-17_16-24-06_260595134347_rgbf000073-resize_0-target.png,1000,4.5065,1.4385,1,2214,515,991,496,1013,500,feet,,,,,1750188,2115530,33
293248,DepthScenes,duration_discrimination,discrim_jsons/d0_rotated_dr.json,http://54.173.234.186/DepthDuration/depth_discrimination_MTurk/DepthDiscrim_HTML.html#2,2,1920,937,1920,1080,6-19-2021,14-0-7,86,depth_discrimination_stimuli/002987_2014-06-08_18-48-20_094959634447_rgbf000022-resize_0/002987_2014-06-08_18-48-20_094959634447_rgbf000022-resize_0-target.png,depth_discrimination_stimuli/000502_2014-06-08_23-02-32_260595134347_rgbf000063-resize_4/000502_2014-06-08_23-02-32_260595134347_rgbf000063-resize_4-target.png,250,2.6775,2.431,0,1528,519,240,498,247,515,feet,,,,,1750188,2115530,33
293248,DepthScenes,duration_discrimination,discrim_jsons/d0_rotated_dr.json,http://54.173.234.186/DepthDuration/depth_discrimination_MTurk/DepthDiscrim_HTML.html#2,2,1920,937,1920,1080,6-19-2021,14-0-7,87,depth_discrimination_stimuli/003079_2014-06-15_15-18-20_094959634447_rgbf000152-resize_8/003079_2014-06-15_15-18-20_094959634447_rgbf000152-resize_8-target.png,depth_discrimination_stimuli/001056_2014-06-08_18-46-44_260595134347_rgbf000068-resize_0/001056_2014-06-08_18-46-44_260595134347_rgbf000068-resize_0-target.png,1000,2.8775,2.6625,0,2068,504,1010,488,1002,501,feet,,,,,1750188,2115530,33
293248,DepthScenes,duration_discrimination,discrim_jsons/d0_rotated_dr.json,http://54.173.234.186/DepthDuration/depth_discrimination_MTurk/DepthDiscrim_HTML.html#2,2,1920,937,1920,1080,6-19-2021,14-0-7,88,depth_discrimination_stimuli/001584_2014-06-20_11-07-43_260595134347_rgbf000002-resize_1/001584_2014-06-20_11-07-43_260595134347_rgbf000002-resize_1-target.png,depth_discrimination_stimuli/002570_2014-06-24_13-59-54_094959634447_rgbf000059-resize_0/002570_2014-06-24_13-59-54_094959634447_rgbf000059-resize_0-target.png,1000,3.53,4.037,1,3340,505,1009,489,1000,500,feet,,,,,1750188,2115530,33
293248,DepthScenes,duration_discrimination,discrim_jsons/d0_rotated_dr.json,http://54.173.234.186/DepthDuration/depth_discrimination_MTurk/DepthDiscrim_HTML.html#2,2,1920,937,1920,1080,6-19-2021,14-0-7,89,depth_discrimination_stimuli/000742_2014-06-08_18-48-09_260595134347_rgbf000164-resize_4/000742_2014-06-08_18-48-09_260595134347_rgbf000164-resize_4-target.png,depth_discrimination_stimuli/000773_2014-06-08_22-24-54_260595134347_rgbf000093-resize_1/000773_2014-06-08_22-24-54_260595134347_rgbf000093-resize_1-target.png,1000,4.632,4.973,1,1903,508,1012,490,1011,489,feet,,,,,1750188,2115530,33
293248,DepthScenes,duration_discrimination,discrim_jsons/d0_rotated_dr.json,http://54.173.234.186/DepthDuration/depth_discrimination_MTurk/DepthDiscrim_HTML.html#2,2,1920,937,1920,1080,6-19-2021,14-0-7,90,depth_discrimination_stimuli/002964_2014-06-08_17-46-11_094959634447_rgbf000091-resize_4/002964_2014-06-08_17-46-11_094959634447_rgbf000091-resize_4-target.png,depth_discrimination_stimuli/000483_2014-06-09_20-41-45_260595134347_rgbf000116-resize_4/000483_2014-06-09_20-41-45_260595134347_rgbf000116-resize_4-target.png,1000,1.691,1.337,1,1750,504,1014,499,1000,500,feet,,,,,1750188,2115530,33
293248,DepthScenes,duration_discrimination,discrim_jsons/d0_rotated_dr.json,http://54.173.234.186/DepthDuration/depth_discrimination_MTurk/DepthDiscrim_HTML.html#2,2,1920,937,1920,1080,6-19-2021,14-0-7,91,depth_discrimination_stimuli/002758_2014-06-22_19-11-20_094959634447_rgbf000128-resize_1/002758_2014-06-22_19-11-20_094959634447_rgbf000128-resize_1-target.png,depth_discrimination_stimuli/000854_2014-06-09_19-43-13_260595134347_rgbf000066-resize_0/000854_2014-06-09_19-43-13_260595134347_rgbf000066-resize_0-target.png,250,2.555,3.068,1,2236,521,239,500,260,501,feet,,,,,1750188,2115530,33
293248,DepthScenes,duration_discrimination,discrim_jsons/d0_rotated_dr.json,http://54.173.234.186/DepthDuration/depth_discrimination_MTurk/DepthDiscrim_HTML.html#2,2,1920,937,1920,1080,6-19-2021,14-0-7,92,depth_discrimination_stimuli/002209_2014-06-28_18-36-10_260595134347_rgbf000051-resize_1/002209_2014-06-28_18-36-10_260595134347_rgbf000051-resize_1-target.png,depth_discrimination_stimuli/001055_2014-06-08_18-45-35_260595134347_rgbf000111-resize_4/001055_2014-06-08_18-45-35_260595134347_rgbf000111-resize_4-target.png,1000,2.057,2.429,1,2044,510,993,510,1000,490,feet,,,,,1750188,2115530,33
293248,DepthScenes,duration_discrimination,discrim_jsons/d0_rotated_dr.json,http://54.173.234.186/DepthDuration/depth_discrimination_MTurk/DepthDiscrim_HTML.html#2,2,1920,937,1920,1080,6-19-2021,14-0-7,93,depth_discrimination_stimuli/001150_2014-06-17_15-27-34_260595134347_rgbf000108-resize_2/001150_2014-06-17_15-27-34_260595134347_rgbf000108-resize_2-target.png,depth_discrimination_stimuli/000677_2014-06-08_23-10-32_260595134347_rgbf000158-resize_6/000677_2014-06-08_23-10-32_260595134347_rgbf000158-resize_6-target.png,1000,4.0325,3.556,1,1912,512,1003,490,1000,508,feet,,,,,1750188,2115530,33
293248,DepthScenes,duration_discrimination,discrim_jsons/d0_rotated_dr.json,http://54.173.234.186/DepthDuration/depth_discrimination_MTurk/DepthDiscrim_HTML.html#2,2,1920,937,1920,1080,6-19-2021,14-0-7,94,depth_discrimination_stimuli/001828_2014-06-26_21-40-03_260595134347_rgbf000024-resize_0/001828_2014-06-26_21-40-03_260595134347_rgbf000024-resize_0-target.png,depth_discrimination_stimuli/002414_2014-06-28_20-24-58_260595134347_rgbf000067-resize_4/002414_2014-06-28_20-24-58_260595134347_rgbf000067-resize_4-target.png,250,4.826,4.363,0,1510,519,249,490,260,490,feet,,,,,1750188,2115530,33
293248,DepthScenes,duration_discrimination,discrim_jsons/d0_rotated_dr.json,http://54.173.234.186/DepthDuration/depth_discrimination_MTurk/DepthDiscrim_HTML.html#2,2,1920,937,1920,1080,6-19-2021,14-0-7,95,depth_discrimination_stimuli/002905_2014-06-03_18-04-43_094959634447_rgbf000151-resize_2/002905_2014-06-03_18-04-43_094959634447_rgbf000151-resize_2-target.png,depth_discrimination_stimuli/000740_2014-06-08_18-46-23_260595134347_rgbf000049-resize_6/000740_2014-06-08_18-46-23_260595134347_rgbf000049-resize_6-target.png,250,2.0295,1.687,1,1277,519,250,490,260,490,feet,,,,,1750188,2115530,33
293248,DepthScenes,duration_discrimination,discrim_jsons/d0_rotated_dr.json,http://54.173.234.186/DepthDuration/depth_discrimination_MTurk/DepthDiscrim_HTML.html#2,2,1920,937,1920,1080,6-19-2021,14-0-7,96,depth_discrimination_stimuli/002153_2014-06-25_21-27-18_260595134347_rgbf000038-resize_5/002153_2014-06-25_21-27-18_260595134347_rgbf000038-resize_5-target.png,depth_discrimination_stimuli/002725_2014-06-22_11-47-51_094959634447_rgbf000070-resize_1/002725_2014-06-22_11-47-51_094959634447_rgbf000070-resize_1-target.png,250,2.505,2.195,1,3296,513,240,510,240,500,feet,,,,,1750188,2115530,33
293248,DepthScenes,duration_discrimination,discrim_jsons/d0_rotated_dr.json,http://54.173.234.186/DepthDuration/depth_discrimination_MTurk/DepthDiscrim_HTML.html#2,2,1920,937,1920,1080,6-19-2021,14-0-7,96,,,,,,,3296,513,240,510,240,500,feet,,,,,1750188,2115530,33
293248,DepthScenes,duration_discrimination,discrim_jsons/d0_rotated_dr.json,http://54.173.234.186/DepthDuration/depth_discrimination_MTurk/DepthDiscrim_HTML.html#2,2,1903,937,1920,1080,6-19-2021,14-0-7,98,,,,,,,3296,513,240,510,240,500,feet,3,4,depth_discrimination_stimuli/000773_2014-06-08_22-24-54_260595134347_rgbf000093-resize_1/000773_2014-06-08_22-24-54_260595134347_rgbf000093-resize-original.jpg,19096,1750188,2115530,33
293248,DepthScenes,duration_discrimination,discrim_jsons/d0_rotated_dr.json,http://54.173.234.186/DepthDuration/depth_discrimination_MTurk/DepthDiscrim_HTML.html#2,2,1903,937,1920,1080,6-19-2021,14-0-7,99,,,,,,,3296,513,240,510,240,500,feet,2,4,depth_discrimination_stimuli/001650_2014-06-20_12-09-00_260595134347_rgbf000087-resize_3/001650_2014-06-20_12-09-00_260595134347_rgbf000087-resize-original.jpg,21456,1750188,2115530,33
293248,DepthScenes,duration_discrimination,discrim_jsons/d0_rotated_dr.json,http://54.173.234.186/DepthDuration/depth_discrimination_MTurk/DepthDiscrim_HTML.html#2,2,1903,937,1920,1080,6-19-2021,14-0-7,100,,,,,,,3296,513,240,510,240,500,feet,2,4,depth_discrimination_stimuli/000414_2014-06-04_19-49-13_260595134347_rgbf000044-resize_0/000414_2014-06-04_19-49-13_260595134347_rgbf000044-resize-original.jpg,9528,1750188,2115530,33
293248,DepthScenes,duration_discrimination,discrim_jsons/d0_rotated_dr.json,http://54.173.234.186/DepthDuration/depth_discrimination_MTurk/DepthDiscrim_HTML.html#2,2,1903,937,1920,1080,6-19-2021,14-0-7,101,,,,,,,3296,513,240,510,240,500,feet,3,5,depth_discrimination_stimuli/002445_2014-06-28_20-32-16_260595134347_rgbf000029-resize_4/002445_2014-06-28_20-32-16_260595134347_rgbf000029-resize-original.jpg,7339,1750188,2115530,33
293248,DepthScenes,duration_discrimination,discrim_jsons/d0_rotated_dr.json,http://54.173.234.186/DepthDuration/depth_discrimination_MTurk/DepthDiscrim_HTML.html#2,2,1903,937,1920,1080,6-19-2021,14-0-7,102,,,,,,,3296,513,240,510,240,500,feet,3,4,depth_discrimination_stimuli/001052_2014-06-08_18-24-54_260595134347_rgbf000130-resize_1/001052_2014-06-08_18-24-54_260595134347_rgbf000130-resize-original.jpg,18712,1750188,2115530,33
293248,DepthScenes,duration_discrimination,discrim_jsons/d0_rotated_dr.json,http://54.173.234.186/DepthDuration/depth_discrimination_MTurk/DepthDiscrim_HTML.html#2,2,1903,937,1920,1080,6-19-2021,14-0-7,103,,,,,,,3296,513,240,510,240,500,feet,2,3,depth_discrimination_stimuli/003129_2014-05-12_10-48-10_094959634447_rgbf000100-resize_0/003129_2014-05-12_10-48-10_094959634447_rgbf000100-resize-original.jpg,7912,1750188,2115530,33
293248,DepthScenes,duration_discrimination,discrim_jsons/d0_rotated_dr.json,http://54.173.234.186/DepthDuration/depth_discrimination_MTurk/DepthDiscrim_HTML.html#2,2,1903,937,1920,1080,6-19-2021,14-0-7,104,,,,,,,3296,513,240,510,240,500,feet,2,4,depth_discrimination_stimuli/002700_2014-06-22_11-27-02_094959634447_rgbf000124-resize_3/002700_2014-06-22_11-27-02_094959634447_rgbf000124-resize-original.jpg,14088,1750188,2115530,33
293248,DepthScenes,duration_discrimination,discrim_jsons/d0_rotated_dr.json,http://54.173.234.186/DepthDuration/depth_discrimination_MTurk/DepthDiscrim_HTML.html#2,2,1903,937,1920,1080,6-19-2021,14-0-7,105,,,,,,,3296,513,240,510,240,500,feet,2,2,depth_discrimination_stimuli/000740_2014-06-08_18-46-23_260595134347_rgbf000049-resize_6/000740_2014-06-08_18-46-23_260595134347_rgbf000049-resize-original.jpg,8392,1750188,2115530,33
293248,DepthScenes,duration_discrimination,discrim_jsons/d0_rotated_dr.json,http://54.173.234.186/DepthDuration/depth_discrimination_MTurk/DepthDiscrim_HTML.html#2,2,1903,937,1920,1080,6-19-2021,14-0-7,106,,,,,,,3296,513,240,510,240,500,feet,4,4,depth_discrimination_stimuli/000103_2014-05-14_22-01-17_260595134347_rgbf000152-resize_5/000103_2014-05-14_22-01-17_260595134347_rgbf000152-resize-original.jpg,7776,1750188,2115530,33
293248,DepthScenes,duration_discrimination,discrim_jsons/d0_rotated_dr.json,http://54.173.234.186/DepthDuration/depth_discrimination_MTurk/DepthDiscrim_HTML.html#2,2,1903,937,1920,1080,6-19-2021,14-0-7,107,,,,,,,3296,513,240,510,240,500,feet,1,3,depth_discrimination_stimuli/001289_2014-06-16_16-25-52_260595134347_rgbf000067-resize_1/001289_2014-06-16_16-25-52_260595134347_rgbf000067-resize-original.jpg,6350,1750188,2115530,33
293248,DepthScenes,duration_discrimination,discrim_jsons/d0_rotated_dr.json,http://54.173.234.186/DepthDuration/depth_discrimination_MTurk/DepthDiscrim_HTML.html#2,2,1903,937,1920,1080,6-19-2021,14-0-7,108,,,,,,,3296,513,240,510,240,500,feet,2,4,depth_discrimination_stimuli/001094_2014-06-15_17-36-00_260595134347_rgbf000205-resize_0/001094_2014-06-15_17-36-00_260595134347_rgbf000205-resize-original.jpg,11160,1750188,2115530,33
293248,DepthScenes,duration_discrimination,discrim_jsons/d0_rotated_dr.json,http://54.173.234.186/DepthDuration/depth_discrimination_MTurk/DepthDiscrim_HTML.html#2,2,1903,937,1920,1080,6-19-2021,14-0-7,109,,,,,,,3296,513,240,510,240,500,feet,3,4,depth_discrimination_stimuli/001417_2014-06-19_16-25-36_260595134347_rgbf000115-resize_5/001417_2014-06-19_16-25-36_260595134347_rgbf000115-resize-original.jpg,5920,1750188,2115530,33
293248,DepthScenes,duration_discrimination,discrim_jsons/d0_rotated_dr.json,http://54.173.234.186/DepthDuration/depth_discrimination_MTurk/DepthDiscrim_HTML.html#2,2,1903,937,1920,1080,6-19-2021,14-0-7,110,,,,,,,3296,513,240,510,240,500,feet,1,5,depth_discrimination_stimuli/002139_2014-06-25_21-19-37_260595134347_rgbf000124-resize_2/002139_2014-06-25_21-19-37_260595134347_rgbf000124-resize-original.jpg,4904,1750188,2115530,33
293248,DepthScenes,duration_discrimination,discrim_jsons/d0_rotated_dr.json,http://54.173.234.186/DepthDuration/depth_discrimination_MTurk/DepthDiscrim_HTML.html#2,2,1903,937,1920,1080,6-19-2021,14-0-7,111,,,,,,,3296,513,240,510,240,500,feet,3,5,depth_discrimination_stimuli/001181_2014-06-17_15-50-57_260595134347_rgbf000106-resize_4/001181_2014-06-17_15-50-57_260595134347_rgbf000106-resize-original.jpg,5351,1750188,2115530,33
293248,DepthScenes,duration_discrimination,discrim_jsons/d0_rotated_dr.json,http://54.173.234.186/DepthDuration/depth_discrimination_MTurk/DepthDiscrim_HTML.html#2,2,1903,937,1920,1080,6-19-2021,14-0-7,112,,,,,,,3296,513,240,510,240,500,feet,3,3,depth_discrimination_stimuli/003621_2014-05-23_18-06-08_094959634447_rgbf000101-resize_1/003621_2014-05-23_18-06-08_094959634447_rgbf000101-resize-original.jpg,6601,1750188,2115530,33
293248,DepthScenes,duration_discrimination,discrim_jsons/d0_rotated_dr.json,http://54.173.234.186/DepthDuration/depth_discrimination_MTurk/DepthDiscrim_HTML.html#2,2,1903,937,1920,1080,6-19-2021,14-0-7,113,,,,,,,3296,513,240,510,240,500,feet,3,5,depth_discrimination_stimuli/000502_2014-06-08_23-02-32_260595134347_rgbf000063-resize_4/000502_2014-06-08_23-02-32_260595134347_rgbf000063-resize-original.jpg,8128,1750188,2115530,33
293248,DepthScenes,duration_discrimination,discrim_jsons/d0_rotated_dr.json,http://54.173.234.186/DepthDuration/depth_discrimination_MTurk/DepthDiscrim_HTML.html#2,2,1903,937,1920,1080,6-19-2021,14-0-7,114,,,,,,,3296,513,240,510,240,500,feet,2,3,depth_discrimination_stimuli/002579_2014-06-24_14-08-03_094959634447_rgbf000061-resize_2/002579_2014-06-24_14-08-03_094959634447_rgbf000061-resize-original.jpg,7176,1750188,2115530,33
293248,DepthScenes,duration_discrimination,discrim_jsons/d0_rotated_dr.json,http://54.173.234.186/DepthDuration/depth_discrimination_MTurk/DepthDiscrim_HTML.html#2,2,1903,937,1920,1080,6-19-2021,14-0-7,115,,,,,,,3296,513,240,510,240,500,feet,2,2,depth_discrimination_stimuli/000665_2014-06-09_20-42-35_260595134347_rgbf000110-resize_1/000665_2014-06-09_20-42-35_260595134347_rgbf000110-resize-original.jpg,7504,1750188,2115530,33
293248,DepthScenes,duration_discrimination,discrim_jsons/d0_rotated_dr.json,http://54.173.234.186/DepthDuration/depth_discrimination_MTurk/DepthDiscrim_HTML.html#2,2,1903,937,1920,1080,6-19-2021,14-0-7,116,,,,,,,3296,513,240,510,240,500,feet,3,2,scene_property_catch_stimuli/sun_bpzzatthlcapxzol.jpg,7399,1750188,2115530,33
293248,DepthScenes,duration_discrimination,discrim_jsons/d0_rotated_dr.json,http://54.173.234.186/DepthDuration/depth_discrimination_MTurk/DepthDiscrim_HTML.html#2,2,1903,937,1920,1080,6-19-2021,14-0-7,117,,,,,,,3296,513,240,510,240,500,feet,3,3,depth_discrimination_stimuli/003228_2014-05-14_13-42-35_094959634447_rgbf000101-resize_1/003228_2014-05-14_13-42-35_094959634447_rgbf000101-resize-original.jpg,5392,1750188,2115530,33
293248,DepthScenes,duration_discrimination,discrim_jsons/d0_rotated_dr.json,http://54.173.234.186/DepthDuration/depth_discrimination_MTurk/DepthDiscrim_HTML.html#2,2,1903,937,1920,1080,6-19-2021,14-0-7,118,,,,,,,3296,513,240,510,240,500,feet,3,4,depth_discrimination_stimuli/000830_2014-06-04_19-49-31_260595134347_rgbf000096-resize_2/000830_2014-06-04_19-49-31_260595134347_rgbf000096-resize-original.jpg,8751,1750188,2115530,33
293248,DepthScenes,duration_discrimination,discrim_jsons/d0_rotated_dr.json,http://54.173.234.186/DepthDuration/depth_discrimination_MTurk/DepthDiscrim_HTML.html#2,2,1903,937,1920,1080,6-19-2021,14-0-7,119,,,,,,,3296,513,240,510,240,500,feet,1,2,depth_discrimination_stimuli/000682_2014-06-08_23-14-58_260595134347_rgbf000041-resize_5/000682_2014-06-08_23-14-58_260595134347_rgbf000041-resize-original.jpg,7976,1750188,2115530,33
293248,DepthScenes,duration_discrimination,discrim_jsons/d0_rotated_dr.json,http://54.173.234.186/DepthDuration/depth_discrimination_MTurk/DepthDiscrim_HTML.html#2,2,1903,937,1920,1080,6-19-2021,14-0-7,120,,,,,,,3296,513,240,510,240,500,feet,4,4,depth_discrimination_stimuli/000736_2014-06-08_18-24-15_260595134347_rgbf000206-resize_3/000736_2014-06-08_18-24-15_260595134347_rgbf000206-resize-original.jpg,11920,1750188,2115530,33
293248,DepthScenes,duration_discrimination,discrim_jsons/d0_rotated_dr.json,http://54.173.234.186/DepthDuration/depth_discrimination_MTurk/DepthDiscrim_HTML.html#2,2,1903,937,1920,1080,6-19-2021,14-0-7,121,,,,,,,3296,513,240,510,240,500,feet,2,3,depth_discrimination_stimuli/003092_2014-06-24_21-01-49_094959634447_rgbf000049-resize_2/003092_2014-06-24_21-01-49_094959634447_rgbf000049-resize-original.jpg,7215,1750188,2115530,33
293248,DepthScenes,duration_discrimination,discrim_jsons/d0_rotated_dr.json,http://54.173.234.186/DepthDuration/depth_discrimination_MTurk/DepthDiscrim_HTML.html#2,2,1903,937,1920,1080,6-19-2021,14-0-7,122,,,,,,,3296,513,240,510,240,500,feet,3,3,depth_discrimination_stimuli/000735_2014-06-08_18-23-50_260595134347_rgbf000163-resize_2/000735_2014-06-08_18-23-50_260595134347_rgbf000163-resize-original.jpg,5823,1750188,2115530,33
293248,DepthScenes,duration_discrimination,discrim_jsons/d0_rotated_dr.json,http://54.173.234.186/DepthDuration/depth_discrimination_MTurk/DepthDiscrim_HTML.html#2,2,1903,937,1920,1080,6-19-2021,14-0-7,123,,,,,,,3296,513,240,510,240,500,feet,1,4,depth_discrimination_stimuli/001244_2014-06-17_16-47-45_260595134347_rgbf000030-resize_4/001244_2014-06-17_16-47-45_260595134347_rgbf000030-resize-original.jpg,5720,1750188,2115530,33
293248,DepthScenes,duration_discrimination,discrim_jsons/d0_rotated_dr.json,http://54.173.234.186/DepthDuration/depth_discrimination_MTurk/DepthDiscrim_HTML.html#2,2,1903,937,1920,1080,6-19-2021,14-0-7,124,,,,,,,3296,513,240,510,240,500,feet,2,4,depth_discrimination_stimuli/001016_2014-06-09_16-16-10_260595134347_rgbf000112-resize_5/001016_2014-06-09_16-16-10_260595134347_rgbf000112-resize-original.jpg,8862,1750188,2115530,33
293248,DepthScenes,duration_discrimination,discrim_jsons/d0_rotated_dr.json,http://54.173.234.186/DepthDuration/depth_discrimination_MTurk/DepthDiscrim_HTML.html#2,2,1903,937,1920,1080,6-19-2021,14-0-7,125,,,,,,,3296,513,240,510,240,500,feet,3,5,depth_discrimination_stimuli/001188_2014-06-17_15-54-10_260595134347_rgbf000090-resize_2/001188_2014-06-17_15-54-10_260595134347_rgbf000090-resize-original.jpg,5440,1750188,2115530,33
293248,DepthScenes,duration_discrimination,discrim_jsons/d0_rotated_dr.json,http://54.173.234.186/DepthDuration/depth_discrimination_MTurk/DepthDiscrim_HTML.html#2,2,1903,937,1920,1080,6-19-2021,14-0-7,126,,,,,,,3296,513,240,510,240,500,feet,3,4,depth_discrimination_stimuli/003081_2014-06-15_15-19-16_094959634447_rgbf000150-resize_1/003081_2014-06-15_15-19-16_094959634447_rgbf000150-resize-original.jpg,6112,1750188,2115530,33
293248,DepthScenes,duration_discrimination,discrim_jsons/d0_rotated_dr.json,http://54.173.234.186/DepthDuration/depth_discrimination_MTurk/DepthDiscrim_HTML.html#2,2,1903,937,1920,1080,6-19-2021,14-0-7,127,,,,,,,3296,513,240,510,240,500,feet,2,4,depth_discrimination_stimuli/001584_2014-06-20_11-07-43_260595134347_rgbf000002-resize_1/001584_2014-06-20_11-07-43_260595134347_rgbf000002-resize-original.jpg,7745,1750188,2115530,33
293248,DepthScenes,duration_discrimination,discrim_jsons/d0_rotated_dr.json,http://54.173.234.186/DepthDuration/depth_discrimination_MTurk/DepthDiscrim_HTML.html#2,2,1903,937,1920,1080,6-19-2021,14-0-7,128,,,,,,,3296,513,240,510,240,500,feet,4,3,depth_discrimination_stimuli/000447_2014-06-08_16-15-46_260595134347_rgbf000130-resize_1/000447_2014-06-08_16-15-46_260595134347_rgbf000130-resize-original.jpg,8655,1750188,2115530,33
293248,DepthScenes,duration_discrimination,discrim_jsons/d0_rotated_dr.json,http://54.173.234.186/DepthDuration/depth_discrimination_MTurk/DepthDiscrim_HTML.html#2,2,1903,937,1920,1080,6-19-2021,14-0-7,129,,,,,,,3296,513,240,510,240,500,feet,3,3,depth_discrimination_stimuli/000436_2014-06-09_22-25-11_260595134347_rgbf000137-resize_1/000436_2014-06-09_22-25-11_260595134347_rgbf000137-resize-original.jpg,5672,1750188,2115530,33
293248,DepthScenes,duration_discrimination,discrim_jsons/d0_rotated_dr.json,http://54.173.234.186/DepthDuration/depth_discrimination_MTurk/DepthDiscrim_HTML.html#2,2,1903,937,1920,1080,6-19-2021,14-0-7,130,,,,,,,3296,513,240,510,240,500,feet,4,5,depth_discrimination_stimuli/002570_2014-06-24_13-59-54_094959634447_rgbf000059-resize_0/002570_2014-06-24_13-59-54_094959634447_rgbf000059-resize-original.jpg,4704,1750188,2115530,33
293248,DepthScenes,duration_discrimination,discrim_jsons/d0_rotated_dr.json,http://54.173.234.186/DepthDuration/depth_discrimination_MTurk/DepthDiscrim_HTML.html#2,2,1903,937,1920,1080,6-19-2021,14-0-7,131,,,,,,,3296,513,240,510,240,500,feet,3,4,depth_discrimination_stimuli/001092_2014-06-15_17-34-58_260595134347_rgbf000171-resize_3/001092_2014-06-15_17-34-58_260595134347_rgbf000171-resize-original.jpg,7447,1750188,2115530,33
293248,DepthScenes,duration_discrimination,discrim_jsons/d0_rotated_dr.json,http://54.173.234.186/DepthDuration/depth_discrimination_MTurk/DepthDiscrim_HTML.html#2,2,1903,937,1920,1080,6-19-2021,14-0-7,132,,,,,,,3296,513,240,510,240,500,feet,4,4,depth_discrimination_stimuli/000549_2014-06-08_22-10-24_260595134347_rgbf000247-resize_3/000549_2014-06-08_22-10-24_260595134347_rgbf000247-resize-original.jpg,5608,1750188,2115530,33
293248,DepthScenes,duration_discrimination,discrim_jsons/d0_rotated_dr.json,http://54.173.234.186/DepthDuration/depth_discrimination_MTurk/DepthDiscrim_HTML.html#2,2,1903,937,1920,1080,6-19-2021,14-0-7,133,,,,,,,3296,513,240,510,240,500,feet,2,4,depth_discrimination_stimuli/000636_2014-06-08_16-39-02_260595134347_rgbf000108-resize_4/000636_2014-06-08_16-39-02_260595134347_rgbf000108-resize-original.jpg,5361,1750188,2115530,33
293248,DepthScenes,duration_discrimination,discrim_jsons/d0_rotated_dr.json,http://54.173.234.186/DepthDuration/depth_discrimination_MTurk/DepthDiscrim_HTML.html#2,2,1903,937,1920,1080,6-19-2021,14-0-7,134,,,,,,,3296,513,240,510,240,500,feet,2,3,depth_discrimination_stimuli/001532_2014-06-20_16-50-41_260595134347_rgbf000081-resize_4/001532_2014-06-20_16-50-41_260595134347_rgbf000081-resize-original.jpg,8945,1750188,2115530,33
293248,DepthScenes,duration_discrimination,discrim_jsons/d0_rotated_dr.json,http://54.173.234.186/DepthDuration/depth_discrimination_MTurk/DepthDiscrim_HTML.html#2,2,1903,937,1920,1080,6-19-2021,14-0-7,135,,,,,,,3296,513,240,510,240,500,feet,3,4,depth_discrimination_stimuli/002213_2014-06-28_18-37-58_260595134347_rgbf000055-resize_1/002213_2014-06-28_18-37-58_260595134347_rgbf000055-resize-original.jpg,7543,1750188,2115530,33
293248,DepthScenes,duration_discrimination,discrim_jsons/d0_rotated_dr.json,http://54.173.234.186/DepthDuration/depth_discrimination_MTurk/DepthDiscrim_HTML.html#2,2,1903,937,1920,1080,6-19-2021,14-0-7,136,,,,,,,3296,513,240,510,240,500,feet,3,3,depth_discrimination_stimuli/001150_2014-06-17_15-27-34_260595134347_rgbf000108-resize_2/001150_2014-06-17_15-27-34_260595134347_rgbf000108-resize-original.jpg,9560,1750188,2115530,33
293248,DepthScenes,duration_discrimination,discrim_jsons/d0_rotated_dr.json,http://54.173.234.186/DepthDuration/depth_discrimination_MTurk/DepthDiscrim_HTML.html#2,2,1903,937,1920,1080,6-19-2021,14-0-7,137,,,,,,,3296,513,240,510,240,500,feet,2,3,depth_discrimination_stimuli/002953_2014-06-08_17-32-18_094959634447_rgbf000059-resize_5/002953_2014-06-08_17-32-18_094959634447_rgbf000059-resize-original.jpg,5567,1750188,2115530,33
293248,DepthScenes,duration_discrimination,discrim_jsons/d0_rotated_dr.json,http://54.173.234.186/DepthDuration/depth_discrimination_MTurk/DepthDiscrim_HTML.html#2,2,1903,937,1920,1080,6-19-2021,14-0-7,138,,,,,,,3296,513,240,510,240,500,feet,4,3,depth_discrimination_stimuli/000521_2014-06-08_13-34-35_260595134347_rgbf000191-resize_2/000521_2014-06-08_13-34-35_260595134347_rgbf000191-resize-original.jpg,7888,1750188,2115530,33
293248,DepthScenes,duration_discrimination,discrim_jsons/d0_rotated_dr.json,http://54.173.234.186/DepthDuration/depth_discrimination_MTurk/DepthDiscrim_HTML.html#2,2,1903,937,1920,1080,6-19-2021,14-0-7,139,,,,,,,3296,513,240,510,240,500,feet,2,4,depth_discrimination_stimuli/001450_2014-06-19_17-02-03_260595134347_rgbf000203-resize_4/001450_2014-06-19_17-02-03_260595134347_rgbf000203-resize-original.jpg,4897,1750188,2115530,33
293248,DepthScenes,duration_discrimination,discrim_jsons/d0_rotated_dr.json,http://54.173.234.186/DepthDuration/depth_discrimination_MTurk/DepthDiscrim_HTML.html#2,2,1903,937,1920,1080,6-19-2021,14-0-7,140,,,,,,,3296,513,240,510,240,500,feet,3,4,depth_discrimination_stimuli/003069_2014-06-15_14-57-50_094959634447_rgbf000150-resize_4/003069_2014-06-15_14-57-50_094959634447_rgbf000150-resize-original.jpg,5727,1750188,2115530,33
293248,DepthScenes,duration_discrimination,discrim_jsons/d0_rotated_dr.json,http://54.173.234.186/DepthDuration/depth_discrimination_MTurk/DepthDiscrim_HTML.html#2,2,1903,937,1920,1080,6-19-2021,14-0-7,141,,,,,,,3296,513,240,510,240,500,feet,3,3,depth_discrimination_stimuli/002460_2014-06-28_20-35-43_260595134347_rgbf000028-resize_4/002460_2014-06-28_20-35-43_260595134347_rgbf000028-resize-original.jpg,12543,1750188,2115530,33
293248,DepthScenes,duration_discrimination,discrim_jsons/d0_rotated_dr.json,http://54.173.234.186/DepthDuration/depth_discrimination_MTurk/DepthDiscrim_HTML.html#2,2,1903,937,1920,1080,6-19-2021,14-0-7,142,,,,,,,3296,513,240,510,240,500,feet,3,4,depth_discrimination_stimuli/002989_2014-06-15_12-25-03_094959634447_rgbf000150-resize_3/002989_2014-06-15_12-25-03_094959634447_rgbf000150-resize-original.jpg,9840,1750188,2115530,33
293248,DepthScenes,duration_discrimination,discrim_jsons/d0_rotated_dr.json,http://54.173.234.186/DepthDuration/depth_discrimination_MTurk/DepthDiscrim_HTML.html#2,2,1903,937,1920,1080,6-19-2021,14-0-7,143,,,,,,,3296,513,240,510,240,500,feet,2,2,depth_discrimination_stimuli/002988_2014-06-15_12-24-20_094959634447_rgbf000150-resize_1/002988_2014-06-15_12-24-20_094959634447_rgbf000150-resize-original.jpg,6681,1750188,2115530,33
293248,DepthScenes,duration_discrimination,discrim_jsons/d0_rotated_dr.json,http://54.173.234.186/DepthDuration/depth_discrimination_MTurk/DepthDiscrim_HTML.html#2,2,1903,937,1920,1080,6-19-2021,14-0-7,144,,,,,,,3296,513,240,510,240,500,feet,3,5,depth_discrimination_stimuli/002103_2014-06-25_20-00-40_260595134347_rgbf000049-resize_0/002103_2014-06-25_20-00-40_260595134347_rgbf000049-resize-original.jpg,6335,1750188,2115530,33
293248,DepthScenes,duration_discrimination,discrim_jsons/d0_rotated_dr.json,http://54.173.234.186/DepthDuration/depth_discrimination_MTurk/DepthDiscrim_HTML.html#2,2,1903,937,1920,1080,6-19-2021,14-0-7,145,,,,,,,3296,513,240,510,240,500,feet,2,4,depth_discrimination_stimuli/001164_2014-06-17_15-35-46_260595134347_rgbf000085-resize_3/001164_2014-06-17_15-35-46_260595134347_rgbf000085-resize-original.jpg,6785,1750188,2115530,33
293248,DepthScenes,duration_discrimination,discrim_jsons/d0_rotated_dr.json,http://54.173.234.186/DepthDuration/depth_discrimination_MTurk/DepthDiscrim_HTML.html#2,2,1903,937,1920,1080,6-19-2021,14-0-7,146,,,,,,,3296,513,240,510,240,500,feet,3,3,depth_discrimination_stimuli/000758_2014-06-08_22-05-08_260595134347_rgbf000085-resize_0/000758_2014-06-08_22-05-08_260595134347_rgbf000085-resize-original.jpg,7295,1750188,2115530,33
293248,DepthScenes,duration_discrimination,discrim_jsons/d0_rotated_dr.json,http://54.173.234.186/DepthDuration/depth_discrimination_MTurk/DepthDiscrim_HTML.html#2,2,1903,937,1920,1080,6-19-2021,14-0-7,147,,,,,,,3296,513,240,510,240,500,feet,2,2,depth_discrimination_stimuli/002964_2014-06-08_17-46-11_094959634447_rgbf000091-resize_4/002964_2014-06-08_17-46-11_094959634447_rgbf000091-resize-original.jpg,6920,1750188,2115530,33
293248,DepthScenes,duration_discrimination,discrim_jsons/d0_rotated_dr.json,http://54.173.234.186/DepthDuration/depth_discrimination_MTurk/DepthDiscrim_HTML.html#2,2,1903,937,1920,1080,6-19-2021,14-0-7,148,,,,,,,3296,513,240,510,240,500,feet,2,3,depth_discrimination_stimuli/002425_2014-06-28_20-27-29_260595134347_rgbf000031-resize_8/002425_2014-06-28_20-27-29_260595134347_rgbf000031-resize-original.jpg,5784,1750188,2115530,33
293248,DepthScenes,duration_discrimination,discrim_jsons/d0_rotated_dr.json,http://54.173.234.186/DepthDuration/depth_discrimination_MTurk/DepthDiscrim_HTML.html#2,2,1903,937,1920,1080,6-19-2021,14-0-7,149,,,,,,,3296,513,240,510,240,500,feet,2,4,depth_discrimination_stimuli/000691_2014-06-08_13-08-50_260595134347_rgbf000132-resize_3/000691_2014-06-08_13-08-50_260595134347_rgbf000132-resize-original.jpg,8136,1750188,2115530,33
293248,DepthScenes,duration_discrimination,discrim_jsons/d0_rotated_dr.json,http://54.173.234.186/DepthDuration/depth_discrimination_MTurk/DepthDiscrim_HTML.html#2,2,1903,937,1920,1080,6-19-2021,14-0-7,150,,,,,,,3296,513,240,510,240,500,feet,2,3,depth_discrimination_stimuli/002340_2014-06-28_20-05-46_260595134347_rgbf000113-resize_0/002340_2014-06-28_20-05-46_260595134347_rgbf000113-resize-original.jpg,5865,1750188,2115530,33
293248,DepthScenes,duration_discrimination,discrim_jsons/d0_rotated_dr.json,http://54.173.234.186/DepthDuration/depth_discrimination_MTurk/DepthDiscrim_HTML.html#2,2,1903,937,1920,1080,6-19-2021,14-0-7,151,,,,,,,3296,513,240,510,240,500,feet,1,4,depth_discrimination_stimuli/001516_2014-06-20_16-25-09_260595134347_rgbf000076-resize_2/001516_2014-06-20_16-25-09_260595134347_rgbf000076-resize-original.jpg,8671,1750188,2115530,33
293248,DepthScenes,duration_discrimination,discrim_jsons/d0_rotated_dr.json,http://54.173.234.186/DepthDuration/depth_discrimination_MTurk/DepthDiscrim_HTML.html#2,2,1903,937,1920,1080,6-19-2021,14-0-7,152,,,,,,,3296,513,240,510,240,500,feet,4,4,depth_discrimination_stimuli/001815_2014-06-26_20-52-55_260595134347_rgbf000020-resize_0/001815_2014-06-26_20-52-55_260595134347_rgbf000020-resize-original.jpg,7103,1750188,2115530,33
293248,DepthScenes,duration_discrimination,discrim_jsons/d0_rotated_dr.json,http://54.173.234.186/DepthDuration/depth_discrimination_MTurk/DepthDiscrim_HTML.html#2,2,1903,937,1920,1080,6-19-2021,14-0-7,153,,,,,,,3296,513,240,510,240,500,feet,3,3,depth_discrimination_stimuli/000917_2014-06-09_22-45-29_260595134347_rgbf000149-resize_3/000917_2014-06-09_22-45-29_260595134347_rgbf000149-resize-original.jpg,6343,1750188,2115530,33
293248,DepthScenes,duration_discrimination,discrim_jsons/d0_rotated_dr.json,http://54.173.234.186/DepthDuration/depth_discrimination_MTurk/DepthDiscrim_HTML.html#2,2,1903,937,1920,1080,6-19-2021,14-0-7,154,,,,,,,3296,513,240,510,240,500,feet,4,2,depth_discrimination_stimuli/003423_2014-05-21_10-23-26_094959634447_rgbf002665-resize_2/003423_2014-05-21_10-23-26_094959634447_rgbf002665-resize-original.jpg,8176,1750188,2115530,33
293248,DepthScenes,duration_discrimination,discrim_jsons/d0_rotated_dr.json,http://54.173.234.186/DepthDuration/depth_discrimination_MTurk/DepthDiscrim_HTML.html#2,2,1903,937,1920,1080,6-19-2021,14-0-7,155,,,,,,,3296,513,240,510,240,500,feet,3,3,depth_discrimination_stimuli/001235_2014-06-17_16-37-36_260595134347_rgbf000084-resize_4/001235_2014-06-17_16-37-36_260595134347_rgbf000084-resize-original.jpg,7496,1750188,2115530,33
293248,DepthScenes,duration_discrimination,discrim_jsons/d0_rotated_dr.json,http://54.173.234.186/DepthDuration/depth_discrimination_MTurk/DepthDiscrim_HTML.html#2,2,1903,937,1920,1080,6-19-2021,14-0-7,156,,,,,,,3296,513,240,510,240,500,feet,3,4,depth_discrimination_stimuli/001828_2014-06-26_21-40-03_260595134347_rgbf000024-resize_0/001828_2014-06-26_21-40-03_260595134347_rgbf000024-resize-original.jpg,5720,1750188,2115530,33
293248,DepthScenes,duration_discrimination,discrim_jsons/d0_rotated_dr.json,http://54.173.234.186/DepthDuration/depth_discrimination_MTurk/DepthDiscrim_HTML.html#2,2,1903,937,1920,1080,6-19-2021,14-0-7,157,,,,,,,3296,513,240,510,240,500,feet,2,4,depth_discrimination_stimuli/003010_2014-06-15_12-54-35_094959634447_rgbf000112-resize_0/003010_2014-06-15_12-54-35_094959634447_rgbf000112-resize-original.jpg,6320,1750188,2115530,33
293248,DepthScenes,duration_discrimination,discrim_jsons/d0_rotated_dr.json,http://54.173.234.186/DepthDuration/depth_discrimination_MTurk/DepthDiscrim_HTML.html#2,2,1903,937,1920,1080,6-19-2021,14-0-7,158,,,,,,,3296,513,240,510,240,500,feet,4,4,depth_discrimination_stimuli/002305_2014-06-28_19-56-50_260595134347_rgbf000102-resize_7/002305_2014-06-28_19-56-50_260595134347_rgbf000102-resize-original.jpg,9024,1750188,2115530,33
293248,DepthScenes,duration_discrimination,discrim_jsons/d0_rotated_dr.json,http://54.173.234.186/DepthDuration/depth_discrimination_MTurk/DepthDiscrim_HTML.html#2,2,1903,937,1920,1080,6-19-2021,14-0-7,159,,,,,,,3296,513,240,510,240,500,feet,3,4,depth_discrimination_stimuli/000486_2014-06-09_20-47-20_260595134347_rgbf000143-resize_2/000486_2014-06-09_20-47-20_260595134347_rgbf000143-resize-original.jpg,7576,1750188,2115530,33
293248,DepthScenes,duration_discrimination,discrim_jsons/d0_rotated_dr.json,http://54.173.234.186/DepthDuration/depth_discrimination_MTurk/DepthDiscrim_HTML.html#2,2,1903,937,1920,1080,6-19-2021,14-0-7,160,,,,,,,3296,513,240,510,240,500,feet,2,3,depth_discrimination_stimuli/002788_2014-06-22_19-36-03_094959634447_rgbf000088-resize_2/002788_2014-06-22_19-36-03_094959634447_rgbf000088-resize-original.jpg,4759,1750188,2115530,33
293248,DepthScenes,duration_discrimination,discrim_jsons/d0_rotated_dr.json,http://54.173.234.186/DepthDuration/depth_discrimination_MTurk/DepthDiscrim_HTML.html#2,2,1903,937,1920,1080,6-19-2021,14-0-7,161,,,,,,,3296,513,240,510,240,500,feet,3,4,depth_discrimination_stimuli/001570_2014-06-20_17-21-09_260595134347_rgbf000135-resize_4/001570_2014-06-20_17-21-09_260595134347_rgbf000135-resize-original.jpg,7696,1750188,2115530,33
293248,DepthScenes,duration_discrimination,discrim_jsons/d0_rotated_dr.json,http://54.173.234.186/DepthDuration/depth_discrimination_MTurk/DepthDiscrim_HTML.html#2,2,1903,937,1920,1080,6-19-2021,14-0-7,162,,,,,,,3296,513,240,510,240,500,feet,4,3,depth_discrimination_stimuli/000556_2014-06-09_22-42-56_260595134347_rgbf000214-resize_1/000556_2014-06-09_22-42-56_260595134347_rgbf000214-resize-original.jpg,5568,1750188,2115530,33
293248,DepthScenes,duration_discrimination,discrim_jsons/d0_rotated_dr.json,http://54.173.234.186/DepthDuration/depth_discrimination_MTurk/DepthDiscrim_HTML.html#2,2,1903,937,1920,1080,6-19-2021,14-0-7,163,,,,,,,3296,513,240,510,240,500,feet,2,3,depth_discrimination_stimuli/000493_2014-06-09_21-01-18_260595134347_rgbf000196-resize_3/000493_2014-06-09_21-01-18_260595134347_rgbf000196-resize-original.jpg,7680,1750188,2115530,33
293248,DepthScenes,duration_discrimination,discrim_jsons/d0_rotated_dr.json,http://54.173.234.186/DepthDuration/depth_discrimination_MTurk/DepthDiscrim_HTML.html#2,2,1903,937,1920,1080,6-19-2021,14-0-7,164,,,,,,,3296,513,240,510,240,500,feet,2,5,depth_discrimination_stimuli/003079_2014-06-15_15-18-20_094959634447_rgbf000152-resize_8/003079_2014-06-15_15-18-20_094959634447_rgbf000152-resize-original.jpg,8040,1750188,2115530,33
293248,DepthScenes,duration_discrimination,discrim_jsons/d0_rotated_dr.json,http://54.173.234.186/DepthDuration/depth_discrimination_MTurk/DepthDiscrim_HTML.html#2,2,1903,937,1920,1080,6-19-2021,14-0-7,165,,,,,,,3296,513,240,510,240,500,feet,2,4,depth_discrimination_stimuli/000749_2014-06-08_21-55-06_260595134347_rgbf000070-resize_2/000749_2014-06-08_21-55-06_260595134347_rgbf000070-resize-original.jpg,8768,1750188,2115530,33
293248,DepthScenes,duration_discrimination,discrim_jsons/d0_rotated_dr.json,http://54.173.234.186/DepthDuration/depth_discrimination_MTurk/DepthDiscrim_HTML.html#2,2,1903,937,1920,1080,6-19-2021,14-0-7,166,,,,,,,3296,513,240,510,240,500,feet,1,3,scene_property_catch_stimuli/000675_2014-06-08_22-59-18_260595134347_rgbf000096-resize.jpg,6896,1750188,2115530,33
293248,DepthScenes,duration_discrimination,discrim_jsons/d0_rotated_dr.json,http://54.173.234.186/DepthDuration/depth_discrimination_MTurk/DepthDiscrim_HTML.html#2,2,1903,937,1920,1080,6-19-2021,14-0-7,167,,,,,,,3296,513,240,510,240,500,feet,2,4,depth_discrimination_stimuli/000469_2014-06-09_19-42-10_260595134347_rgbf000081-resize_1/000469_2014-06-09_19-42-10_260595134347_rgbf000081-resize-original.jpg,7993,1750188,2115530,33
293248,DepthScenes,duration_discrimination,discrim_jsons/d0_rotated_dr.json,http://54.173.234.186/DepthDuration/depth_discrimination_MTurk/DepthDiscrim_HTML.html#2,2,1903,937,1920,1080,6-19-2021,14-0-7,168,,,,,,,3296,513,240,510,240,500,feet,2,5,depth_discrimination_stimuli/002784_2014-06-22_19-26-30_094959634447_rgbf000083-resize_3/002784_2014-06-22_19-26-30_094959634447_rgbf000083-resize-original.jpg,6008,1750188,2115530,33
293248,DepthScenes,duration_discrimination,discrim_jsons/d0_rotated_dr.json,http://54.173.234.186/DepthDuration/depth_discrimination_MTurk/DepthDiscrim_HTML.html#2,2,1903,937,1920,1080,6-19-2021,14-0-7,169,,,,,,,3296,513,240,510,240,500,feet,3,3,depth_discrimination_stimuli/003048_2014-06-15_13-49-43_094959634447_rgbf000150-resize_1/003048_2014-06-15_13-49-43_094959634447_rgbf000150-resize-original.jpg,7919,1750188,2115530,33
293248,DepthScenes,duration_discrimination,discrim_jsons/d0_rotated_dr.json,http://54.173.234.186/DepthDuration/depth_discrimination_MTurk/DepthDiscrim_HTML.html#2,2,1903,937,1920,1080,6-19-2021,14-0-7,170,,,,,,,3296,513,240,510,240,500,feet,1,3,depth_discrimination_stimuli/000878_2014-06-08_22-52-45_260595134347_rgbf000045-resize_2/000878_2014-06-08_22-52-45_260595134347_rgbf000045-resize-original.jpg,8832,1750188,2115530,33
293248,DepthScenes,duration_discrimination,discrim_jsons/d0_rotated_dr.json,http://54.173.234.186/DepthDuration/depth_discrimination_MTurk/DepthDiscrim_HTML.html#2,2,1903,937,1920,1080,6-19-2021,14-0-7,171,,,,,,,3296,513,240,510,240,500,feet,4,4,depth_discrimination_stimuli/000009_2014-05-26_14-32-05_260595134347_rgbf000034-resize_3/000009_2014-05-26_14-32-05_260595134347_rgbf000034-resize-original.jpg,6680,1750188,2115530,33
293248,DepthScenes,duration_discrimination,discrim_jsons/d0_rotated_dr.json,http://54.173.234.186/DepthDuration/depth_discrimination_MTurk/DepthDiscrim_HTML.html#2,2,1903,937,1920,1080,6-19-2021,14-0-7,172,,,,,,,3296,513,240,510,240,500,feet,2,3,depth_discrimination_stimuli/000692_2014-06-08_13-09-42_260595134347_rgbf000199-resize_2/000692_2014-06-08_13-09-42_260595134347_rgbf000199-resize-original.jpg,4919,1750188,2115530,33
293248,DepthScenes,duration_discrimination,discrim_jsons/d0_rotated_dr.json,http://54.173.234.186/DepthDuration/depth_discrimination_MTurk/DepthDiscrim_HTML.html#2,2,1903,937,1920,1080,6-19-2021,14-0-7,173,,,,,,,3296,513,240,510,240,500,feet,3,2,depth_discrimination_stimuli/003490_2014-05-21_15-50-11_094959634447_rgbf000101-resize_3/003490_2014-05-21_15-50-11_094959634447_rgbf000101-resize-original.jpg,5648,1750188,2115530,33
293248,DepthScenes,duration_discrimination,discrim_jsons/d0_rotated_dr.json,http://54.173.234.186/DepthDuration/depth_discrimination_MTurk/DepthDiscrim_HTML.html#2,2,1903,937,1920,1080,6-19-2021,14-0-7,174,,,,,,,3296,513,240,510,240,500,feet,4,3,depth_discrimination_stimuli/002663_2014-06-13_15-50-26_094959634447_rgbf000075-resize_1/002663_2014-06-13_15-50-26_094959634447_rgbf000075-resize-original.jpg,8695,1750188,2115530,33
293248,DepthScenes,duration_discrimination,discrim_jsons/d0_rotated_dr.json,http://54.173.234.186/DepthDuration/depth_discrimination_MTurk/DepthDiscrim_HTML.html#2,2,1903,937,1920,1080,6-19-2021,14-0-7,175,,,,,,,3296,513,240,510,240,500,feet,5,3,scene_property_catch_stimuli/sun_aatxlublfjchvvzu.jpg,7273,1750188,2115530,33
293248,DepthScenes,duration_discrimination,discrim_jsons/d0_rotated_dr.json,http://54.173.234.186/DepthDuration/depth_discrimination_MTurk/DepthDiscrim_HTML.html#2,2,1903,937,1920,1080,6-19-2021,14-0-7,176,,,,,,,3296,513,240,510,240,500,feet,4,3,depth_discrimination_stimuli/002375_2014-06-28_20-13-44_260595134347_rgbf000032-resize_1/002375_2014-06-28_20-13-44_260595134347_rgbf000032-resize-original.jpg,12199,1750188,2115530,33
293248,DepthScenes,duration_discrimination,discrim_jsons/d0_rotated_dr.json,http://54.173.234.186/DepthDuration/depth_discrimination_MTurk/DepthDiscrim_HTML.html#2,2,1903,937,1920,1080,6-19-2021,14-0-7,177,,,,,,,3296,513,240,510,240,500,feet,2,4,depth_discrimination_stimuli/003587_2014-05-23_16-48-02_094959634447_rgbf002384-resize_2/003587_2014-05-23_16-48-02_094959634447_rgbf002384-resize-original.jpg,8881,1750188,2115530,33
293248,DepthScenes,duration_discrimination,discrim_jsons/d0_rotated_dr.json,http://54.173.234.186/DepthDuration/depth_discrimination_MTurk/DepthDiscrim_HTML.html#2,2,1903,937,1920,1080,6-19-2021,14-0-7,178,,,,,,,3296,513,240,510,240,500,feet,3,4,depth_discrimination_stimuli/001810_2014-06-26_20-51-35_260595134347_rgbf000040-resize_3/001810_2014-06-26_20-51-35_260595134347_rgbf000040-resize-original.jpg,4832,1750188,2115530,33
293248,DepthScenes,duration_discrimination,discrim_jsons/d0_rotated_dr.json,http://54.173.234.186/DepthDuration/depth_discrimination_MTurk/DepthDiscrim_HTML.html#2,2,1903,937,1920,1080,6-19-2021,14-0-7,179,,,,,,,3296,513,240,510,240,500,feet,2,3,depth_discrimination_stimuli/003070_2014-06-15_14-58-27_094959634447_rgbf000150-resize_3/003070_2014-06-15_14-58-27_094959634447_rgbf000150-resize-original.jpg,3368,1750188,2115530,33
293248,DepthScenes,duration_discrimination,discrim_jsons/d0_rotated_dr.json,http://54.173.234.186/DepthDuration/depth_discrimination_MTurk/DepthDiscrim_HTML.html#2,2,1903,937,1920,1080,6-19-2021,14-0-7,180,,,,,,,3296,513,240,510,240,500,feet,2,2,depth_discrimination_stimuli/002272_2014-06-28_18-53-56_260595134347_rgbf000067-resize_2/002272_2014-06-28_18-53-56_260595134347_rgbf000067-resize-original.jpg,4071,1750188,2115530,33
293248,DepthScenes,duration_discrimination,discrim_jsons/d0_rotated_dr.json,http://54.173.234.186/DepthDuration/depth_discrimination_MTurk/DepthDiscrim_HTML.html#2,2,1903,937,1920,1080,6-19-2021,14-0-7,181,,,,,,,3296,513,240,510,240,500,feet,3,4,depth_discrimination_stimuli/000788_2014-06-08_22-34-36_260595134347_rgbf000131-resize_1/000788_2014-06-08_22-34-36_260595134347_rgbf000131-resize-original.jpg,3864,1750188,2115530,33
293248,DepthScenes,duration_discrimination,discrim_jsons/d0_rotated_dr.json,http://54.173.234.186/DepthDuration/depth_discrimination_MTurk/DepthDiscrim_HTML.html#2,2,1903,937,1920,1080,6-19-2021,14-0-7,182,,,,,,,3296,513,240,510,240,500,feet,3,2,depth_discrimination_stimuli/000677_2014-06-08_23-10-32_260595134347_rgbf000158-resize_6/000677_2014-06-08_23-10-32_260595134347_rgbf000158-resize-original.jpg,5065,1750188,2115530,33
293248,DepthScenes,duration_discrimination,discrim_jsons/d0_rotated_dr.json,http://54.173.234.186/DepthDuration/depth_discrimination_MTurk/DepthDiscrim_HTML.html#2,2,1903,937,1920,1080,6-19-2021,14-0-7,183,,,,,,,3296,513,240,510,240,500,feet,4,1,depth_discrimination_stimuli/002509_2014-06-24_13-19-22_094959634447_rgbf000077-resize_0/002509_2014-06-24_13-19-22_094959634447_rgbf000077-resize-original.jpg,10648,1750188,2115530,33
293248,DepthScenes,duration_discrimination,discrim_jsons/d0_rotated_dr.json,http://54.173.234.186/DepthDuration/depth_discrimination_MTurk/DepthDiscrim_HTML.html#2,2,1903,937,1920,1080,6-19-2021,14-0-7,184,,,,,,,3296,513,240,510,240,500,feet,2,3,depth_discrimination_stimuli/001555_2014-06-20_17-12-10_260595134347_rgbf000065-resize_4/001555_2014-06-20_17-12-10_260595134347_rgbf000065-resize-original.jpg,5215,1750188,2115530,33
293248,DepthScenes,duration_discrimination,discrim_jsons/d0_rotated_dr.json,http://54.173.234.186/DepthDuration/depth_discrimination_MTurk/DepthDiscrim_HTML.html#2,2,1903,937,1920,1080,6-19-2021,14-0-7,185,,,,,,,3296,513,240,510,240,500,feet,3,3,depth_discrimination_stimuli/000742_2014-06-08_18-48-09_260595134347_rgbf000164-resize_4/000742_2014-06-08_18-48-09_260595134347_rgbf000164-resize-original.jpg,5888,1750188,2115530,33
293248,DepthScenes,duration_discrimination,discrim_jsons/d0_rotated_dr.json,http://54.173.234.186/DepthDuration/depth_discrimination_MTurk/DepthDiscrim_HTML.html#2,2,1903,937,1920,1080,6-19-2021,14-0-7,186,,,,,,,3296,513,240,510,240,500,feet,2,4,depth_discrimination_stimuli/002905_2014-06-03_18-04-43_094959634447_rgbf000151-resize_2/002905_2014-06-03_18-04-43_094959634447_rgbf000151-resize-original.jpg,3368,1750188,2115530,33
293248,DepthScenes,duration_discrimination,discrim_jsons/d0_rotated_dr.json,http://54.173.234.186/DepthDuration/depth_discrimination_MTurk/DepthDiscrim_HTML.html#2,2,1903,937,1920,1080,6-19-2021,14-0-7,187,,,,,,,3296,513,240,510,240,500,feet,4,3,depth_discrimination_stimuli/002414_2014-06-28_20-24-58_260595134347_rgbf000067-resize_4/002414_2014-06-28_20-24-58_260595134347_rgbf000067-resize-original.jpg,5040,1750188,2115530,33
293248,DepthScenes,duration_discrimination,discrim_jsons/d0_rotated_dr.json,http://54.173.234.186/DepthDuration/depth_discrimination_MTurk/DepthDiscrim_HTML.html#2,2,1903,937,1920,1080,6-19-2021,14-0-7,188,,,,,,,3296,513,240,510,240,500,feet,3,2,depth_discrimination_stimuli/003292_2014-05-14_21-53-49_094959634447_rgbf000100-resize_2/003292_2014-05-14_21-53-49_094959634447_rgbf000100-resize-original.jpg,4768,1750188,2115530,33
293248,DepthScenes,duration_discrimination,discrim_jsons/d0_rotated_dr.json,http://54.173.234.186/DepthDuration/depth_discrimination_MTurk/DepthDiscrim_HTML.html#2,2,1903,937,1920,1080,6-19-2021,14-0-7,189,,,,,,,3296,513,240,510,240,500,feet,3,3,depth_discrimination_stimuli/001158_2014-06-17_15-32-16_260595134347_rgbf000138-resize_2/001158_2014-06-17_15-32-16_260595134347_rgbf000138-resize-original.jpg,3744,1750188,2115530,33
293248,DepthScenes,duration_discrimination,discrim_jsons/d0_rotated_dr.json,http://54.173.234.186/DepthDuration/depth_discrimination_MTurk/DepthDiscrim_HTML.html#2,2,1903,937,1920,1080,6-19-2021,14-0-7,190,,,,,,,3296,513,240,510,240,500,feet,3,3,depth_discrimination_stimuli/000506_2014-06-08_23-21-00_260595134347_rgbf000070-resize_7/000506_2014-06-08_23-21-00_260595134347_rgbf000070-resize-original.jpg,8256,1750188,2115530,33
293248,DepthScenes,duration_discrimination,discrim_jsons/d0_rotated_dr.json,http://54.173.234.186/DepthDuration/depth_discrimination_MTurk/DepthDiscrim_HTML.html#2,2,1903,937,1920,1080,6-19-2021,14-0-7,191,,,,,,,3296,513,240,510,240,500,feet,2,4,depth_discrimination_stimuli/002549_2014-06-24_13-41-39_094959634447_rgbf000022-resize_3/002549_2014-06-24_13-41-39_094959634447_rgbf000022-resize-original.jpg,6200,1750188,2115530,33
293248,DepthScenes,duration_discrimination,discrim_jsons/d0_rotated_dr.json,http://54.173.234.186/DepthDuration/depth_discrimination_MTurk/DepthDiscrim_HTML.html#2,2,1903,937,1920,1080,6-19-2021,14-0-7,192,,,,,,,3296,513,240,510,240,500,feet,2,4,depth_discrimination_stimuli/000869_2014-06-09_20-50-18_260595134347_rgbf000060-resize_3/000869_2014-06-09_20-50-18_260595134347_rgbf000060-resize-original.jpg,5040,1750188,2115530,33
293248,DepthScenes,duration_discrimination,discrim_jsons/d0_rotated_dr.json,http://54.173.234.186/DepthDuration/depth_discrimination_MTurk/DepthDiscrim_HTML.html#2,2,1903,937,1920,1080,6-19-2021,14-0-7,193,,,,,,,3296,513,240,510,240,500,feet,3,3,depth_discrimination_stimuli/002995_2014-06-15_12-31-26_094959634447_rgbf000150-resize_1/002995_2014-06-15_12-31-26_094959634447_rgbf000150-resize-original.jpg,7224,1750188,2115530,33
293248,DepthScenes,duration_discrimination,discrim_jsons/d0_rotated_dr.json,http://54.173.234.186/DepthDuration/depth_discrimination_MTurk/DepthDiscrim_HTML.html#2,2,1903,937,1920,1080,6-19-2021,14-0-7,194,,,,,,,3296,513,240,510,240,500,feet,3,4,depth_discrimination_stimuli/002043_2014-06-24_20-29-38_260595134347_rgbf000039-resize_4/002043_2014-06-24_20-29-38_260595134347_rgbf000039-resize-original.jpg,4399,1750188,2115530,33
