subjID,experimentName,versionName,sequenceName,url,selected_row,windowWidth,windowHeight,screenWidth,screenHeight,startDate,startTime,trial,stimulus_0,stimulus_1,duration,actual_depth_0,actual_depth_1,discrim_choice,trial_RT,log_fixation,log_sceneDuration1,log_mask1,log_sceneDuration2,log_mask2,unitSelection,meanDepth_rating,navigability_rating,rated_stimulus,rating_RT,experimentTime,totalTime,age
741541,DepthScenes,duration_discrimination,discrim_jsons/d0_rotated.json,http://54.173.234.186/DepthDuration/depth_discrimination_MTurk/DepthDiscrim_HTML.html#3,3,1536,754,1536,864,6-19-2021,14-40-5,1,depth_discrimination_stimuli/001175_2014-06-17_15-45-55_260595134347_rgbf000129-resize_4/001175_2014-06-17_15-45-55_260595134347_rgbf000129-resize_4-target.png,depth_discrimination_stimuli/002467_2014-06-28_20-38-07_260595134347_rgbf000026-resize_2/002467_2014-06-28_20-38-07_260595134347_rgbf000026-resize_2-target.png,1000,4.255,4.742,1,1825,513,988,502,1003,495,feet,,,,,1230851,1614254,46
741541,DepthScenes,duration_discrimination,discrim_jsons/d0_rotated.json,http://54.173.234.186/DepthDuration/depth_discrimination_MTurk/DepthDiscrim_HTML.html#3,3,1536,754,1536,864,6-19-2021,14-40-5,2,depth_discrimination_stimuli/000709_2014-06-08_13-51-55_260595134347_rgbf000068-resize_3/000709_2014-06-08_13-51-55_260595134347_rgbf000068-resize_3-target.png,depth_discrimination_stimuli/003587_2014-05-23_16-48-02_094959634447_rgbf002384-resize_2/003587_2014-05-23_16-48-02_094959634447_rgbf002384-resize_2-target.png,250,1.803,1.357,0,1656,503,253,495,249,515,feet,,,,,1230851,1614254,46
741541,DepthScenes,duration_discrimination,discrim_jsons/d0_rotated.json,http://54.173.234.186/DepthDuration/depth_discrimination_MTurk/DepthDiscrim_HTML.html#3,3,1536,754,1536,864,6-19-2021,14-40-5,3,depth_discrimination_stimuli/000943_2014-06-09_19-31-07_260595134347_rgbf000128-resize_1/000943_2014-06-09_19-31-07_260595134347_rgbf000128-resize_1-target.png,depth_discrimination_stimuli/001555_2014-06-20_17-12-10_260595134347_rgbf000065-resize_4/001555_2014-06-20_17-12-10_260595134347_rgbf000065-resize_4-target.png,1000,1.9765,1.633,1,4113,516,1000,500,987,498,feet,,,,,1230851,1614254,46
741541,DepthScenes,duration_discrimination,discrim_jsons/d0_rotated.json,http://54.173.234.186/DepthDuration/depth_discrimination_MTurk/DepthDiscrim_HTML.html#3,3,1536,754,1536,864,6-19-2021,14-40-5,4,depth_discrimination_stimuli/002344_2014-06-28_20-06-29_260595134347_rgbf000030-resize_1/002344_2014-06-28_20-06-29_260595134347_rgbf000030-resize_1-target.png,depth_discrimination_stimuli/002509_2014-06-24_13-19-22_094959634447_rgbf000077-resize_0/002509_2014-06-24_13-19-22_094959634447_rgbf000077-resize_0-target.png,250,1.5795,1.3065,0,1335,513,250,491,254,505,feet,,,,,1230851,1614254,46
741541,DepthScenes,duration_discrimination,discrim_jsons/d0_rotated.json,http://54.173.234.186/DepthDuration/depth_discrimination_MTurk/DepthDiscrim_HTML.html#3,3,1536,754,1536,864,6-19-2021,14-40-5,5,depth_discrimination_stimuli/002949_2014-06-26_15-57-42_094959634447_rgbf000079-resize_1/002949_2014-06-26_15-57-42_094959634447_rgbf000079-resize_1-target.png,depth_discrimination_stimuli/002279_2014-06-28_18-55-32_260595134347_rgbf000040-resize_5/002279_2014-06-28_18-55-32_260595134347_rgbf000040-resize_5-target.png,1000,1.8915,1.5043333333333,1,1767,507,1000,493,1003,504,feet,,,,,1230851,1614254,46
741541,DepthScenes,duration_discrimination,discrim_jsons/d0_rotated.json,http://54.173.234.186/DepthDuration/depth_discrimination_MTurk/DepthDiscrim_HTML.html#3,3,1536,754,1536,864,6-19-2021,14-40-5,6,depth_discrimination_stimuli/002630_2014-06-24_14-47-50_094959634447_rgbf000055-resize_1/002630_2014-06-24_14-47-50_094959634447_rgbf000055-resize_1-target.png,depth_discrimination_stimuli/001449_2014-06-19_17-01-27_260595134347_rgbf000116-resize_2/001449_2014-06-19_17-01-27_260595134347_rgbf000116-resize_2-target.png,250,3.0095,3.452,1,1452,511,251,502,249,488,feet,,,,,1230851,1614254,46
741541,DepthScenes,duration_discrimination,discrim_jsons/d0_rotated.json,http://54.173.234.186/DepthDuration/depth_discrimination_MTurk/DepthDiscrim_HTML.html#3,3,1536,754,1536,864,6-19-2021,14-40-5,7,depth_discrimination_stimuli/002039_2014-06-24_20-22-38_260595134347_rgbf000084-resize_1/002039_2014-06-24_20-22-38_260595134347_rgbf000084-resize_1-target.png,depth_discrimination_stimuli/001450_2014-06-19_17-02-03_260595134347_rgbf000203-resize_4/001450_2014-06-19_17-02-03_260595134347_rgbf000203-resize_4-target.png,250,4.408,4.0106666666667,0,2128,501,253,502,244,500,feet,,,,,1230851,1614254,46
741541,DepthScenes,duration_discrimination,discrim_jsons/d0_rotated.json,http://54.173.234.186/DepthDuration/depth_discrimination_MTurk/DepthDiscrim_HTML.html#3,3,1536,754,1536,864,6-19-2021,14-40-5,8,depth_discrimination_stimuli/002103_2014-06-25_20-00-40_260595134347_rgbf000049-resize_0/002103_2014-06-25_20-00-40_260595134347_rgbf000049-resize_0-target.png,depth_discrimination_stimuli/000692_2014-06-08_13-09-42_260595134347_rgbf000199-resize_2/000692_2014-06-08_13-09-42_260595134347_rgbf000199-resize_2-target.png,250,4.105,3.661,0,1607,513,242,503,242,501,feet,,,,,1230851,1614254,46
741541,DepthScenes,duration_discrimination,discrim_jsons/d0_rotated.json,http://54.173.234.186/DepthDuration/depth_discrimination_MTurk/DepthDiscrim_HTML.html#3,3,1536,754,1536,864,6-19-2021,14-40-5,9,depth_discrimination_stimuli/001148_2014-06-17_15-26-42_260595134347_rgbf000129-resize_0/001148_2014-06-17_15-26-42_260595134347_rgbf000129-resize_0-target.png,depth_discrimination_stimuli/000734_2014-06-08_17-39-11_260595134347_rgbf000128-resize_2/000734_2014-06-08_17-39-11_260595134347_rgbf000128-resize_2-target.png,250,4.368,4.098,1,1515,512,239,503,252,499,feet,,,,,1230851,1614254,46
741541,DepthScenes,duration_discrimination,discrim_jsons/d0_rotated.json,http://54.173.234.186/DepthDuration/depth_discrimination_MTurk/DepthDiscrim_HTML.html#3,3,1536,754,1536,864,6-19-2021,14-40-5,10,depth_discrimination_stimuli/002043_2014-06-24_20-29-38_260595134347_rgbf000039-resize_4/002043_2014-06-24_20-29-38_260595134347_rgbf000039-resize_4-target.png,depth_discrimination_stimuli/002445_2014-06-28_20-32-16_260595134347_rgbf000029-resize_4/002445_2014-06-28_20-32-16_260595134347_rgbf000029-resize_4-target.png,250,2.8435,2.5315,1,1557,503,250,508,242,504,feet,,,,,1230851,1614254,46
741541,DepthScenes,duration_discrimination,discrim_jsons/d0_rotated.json,http://54.173.234.186/DepthDuration/depth_discrimination_MTurk/DepthDiscrim_HTML.html#3,3,1536,754,1536,864,6-19-2021,14-40-5,11,depth_discrimination_stimuli/002545_2014-06-24_13-38-53_094959634447_rgbf000080-resize_4/002545_2014-06-24_13-38-53_094959634447_rgbf000080-resize_4-target.png,depth_discrimination_stimuli/002549_2014-06-24_13-41-39_094959634447_rgbf000022-resize_3/002549_2014-06-24_13-41-39_094959634447_rgbf000022-resize_3-target.png,250,1.9205,1.476,1,1346,506,251,501,243,503,feet,,,,,1230851,1614254,46
741541,DepthScenes,duration_discrimination,discrim_jsons/d0_rotated.json,http://54.173.234.186/DepthDuration/depth_discrimination_MTurk/DepthDiscrim_HTML.html#3,3,1536,754,1536,864,6-19-2021,14-40-5,12,depth_discrimination_stimuli/000137_2014-05-20_17-04-49_260595134347_rgbf000120-resize_1/000137_2014-05-20_17-04-49_260595134347_rgbf000120-resize_1-target.png,depth_discrimination_stimuli/000691_2014-06-08_13-08-50_260595134347_rgbf000132-resize_3/000691_2014-06-08_13-08-50_260595134347_rgbf000132-resize_3-target.png,250,3.786,4.153,1,1270,514,251,491,245,514,feet,,,,,1230851,1614254,46
741541,DepthScenes,duration_discrimination,discrim_jsons/d0_rotated.json,http://54.173.234.186/DepthDuration/depth_discrimination_MTurk/DepthDiscrim_HTML.html#3,3,1536,754,1536,864,6-19-2021,14-40-5,13,depth_discrimination_stimuli/003395_2014-05-20_15-39-18_094959634447_rgbf000101-resize_0/003395_2014-05-20_15-39-18_094959634447_rgbf000101-resize_0-target.png,depth_discrimination_stimuli/001540_2014-06-20_17-01-05_260595134347_rgbf000086-resize_2/001540_2014-06-20_17-01-05_260595134347_rgbf000086-resize_2-target.png,250,4.835,1.459,1,911,515,237,506,249,508,feet,,,,,1230851,1614254,46
741541,DepthScenes,duration_discrimination,discrim_jsons/d0_rotated.json,http://54.173.234.186/DepthDuration/depth_discrimination_MTurk/DepthDiscrim_HTML.html#3,3,1536,754,1536,864,6-19-2021,14-40-5,14,depth_discrimination_stimuli/001806_2014-06-26_20-50-20_260595134347_rgbf000091-resize_1/001806_2014-06-26_20-50-20_260595134347_rgbf000091-resize_1-target.png,depth_discrimination_stimuli/002460_2014-06-28_20-35-43_260595134347_rgbf000028-resize_4/002460_2014-06-28_20-35-43_260595134347_rgbf000028-resize_4-target.png,1000,2.7305,2.269,1,1508,505,1005,491,1006,500,feet,,,,,1230851,1614254,46
741541,DepthScenes,duration_discrimination,discrim_jsons/d0_rotated.json,http://54.173.234.186/DepthDuration/depth_discrimination_MTurk/DepthDiscrim_HTML.html#3,3,1536,754,1536,864,6-19-2021,14-40-5,15,depth_discrimination_stimuli/001132_2014-06-17_14-48-54_260595134347_rgbf000100-resize_2/001132_2014-06-17_14-48-54_260595134347_rgbf000100-resize_2-target.png,depth_discrimination_stimuli/002639_2014-06-24_14-51-37_094959634447_rgbf000074-resize_4/002639_2014-06-24_14-51-37_094959634447_rgbf000074-resize_4-target.png,1000,3.753,4.0375,0,1676,503,1008,500,998,493,feet,,,,,1230851,1614254,46
741541,DepthScenes,duration_discrimination,discrim_jsons/d0_rotated.json,http://54.173.234.186/DepthDuration/depth_discrimination_MTurk/DepthDiscrim_HTML.html#3,3,1536,754,1536,864,6-19-2021,14-40-5,16,depth_discrimination_stimuli/003621_2014-05-23_18-06-08_094959634447_rgbf000101-resize_1/003621_2014-05-23_18-06-08_094959634447_rgbf000101-resize_1-target.png,depth_discrimination_stimuli/001808_2014-06-26_20-50-58_260595134347_rgbf000029-resize_1/001808_2014-06-26_20-50-58_260595134347_rgbf000029-resize_1-target.png,250,3.9835,4.249,0,1231,506,245,502,251,504,feet,,,,,1230851,1614254,46
741541,DepthScenes,duration_discrimination,discrim_jsons/d0_rotated.json,http://54.173.234.186/DepthDuration/depth_discrimination_MTurk/DepthDiscrim_HTML.html#3,3,1536,754,1536,864,6-19-2021,14-40-5,17,depth_discrimination_stimuli/001516_2014-06-20_16-25-09_260595134347_rgbf000076-resize_2/001516_2014-06-20_16-25-09_260595134347_rgbf000076-resize_2-target.png,depth_discrimination_stimuli/000635_2014-06-08_16-38-42_260595134347_rgbf000106-resize_1/000635_2014-06-08_16-38-42_260595134347_rgbf000106-resize_1-target.png,1000,1.7445,2.074,1,2083,500,1008,504,998,494,feet,,,,,1230851,1614254,46
741541,DepthScenes,duration_discrimination,discrim_jsons/d0_rotated.json,http://54.173.234.186/DepthDuration/depth_discrimination_MTurk/DepthDiscrim_HTML.html#3,3,1536,754,1536,864,6-19-2021,14-40-5,18,depth_discrimination_stimuli/002464_2014-06-28_20-36-57_260595134347_rgbf000029-resize_0/002464_2014-06-28_20-36-57_260595134347_rgbf000029-resize_0-target.png,depth_discrimination_stimuli/000409_2014-06-04_19-23-33_260595134347_rgbf000067-resize_0/000409_2014-06-04_19-23-33_260595134347_rgbf000067-resize_0-target.png,1000,3.9525,3.7335,1,1936,504,999,501,1011,501,feet,,,,,1230851,1614254,46
741541,DepthScenes,duration_discrimination,discrim_jsons/d0_rotated.json,http://54.173.234.186/DepthDuration/depth_discrimination_MTurk/DepthDiscrim_HTML.html#3,3,1536,754,1536,864,6-19-2021,14-40-5,19,depth_discrimination_stimuli/003048_2014-06-15_13-49-43_094959634447_rgbf000150-resize_1/003048_2014-06-15_13-49-43_094959634447_rgbf000150-resize_1-target.png,depth_discrimination_stimuli/002444_2014-06-28_20-32-08_260595134347_rgbf000027-resize_0/002444_2014-06-28_20-32-08_260595134347_rgbf000027-resize_0-target.png,1000,4.0035,4.389,1,2904,513,992,495,1005,505,feet,,,,,1230851,1614254,46
741541,DepthScenes,duration_discrimination,discrim_jsons/d0_rotated.json,http://54.173.234.186/DepthDuration/depth_discrimination_MTurk/DepthDiscrim_HTML.html#3,3,1536,754,1536,864,6-19-2021,14-40-5,20,depth_discrimination_stimuli/002136_2014-06-25_21-18-03_260595134347_rgbf000109-resize_3/002136_2014-06-25_21-18-03_260595134347_rgbf000109-resize_3-target.png,depth_discrimination_stimuli/000469_2014-06-09_19-42-10_260595134347_rgbf000081-resize_1/000469_2014-06-09_19-42-10_260595134347_rgbf000081-resize_1-target.png,250,1.957,1.652,1,1110,501,252,506,242,500,feet,,,,,1230851,1614254,46
741541,DepthScenes,duration_discrimination,discrim_jsons/d0_rotated.json,http://54.173.234.186/DepthDuration/depth_discrimination_MTurk/DepthDiscrim_HTML.html#3,3,1536,754,1536,864,6-19-2021,14-40-5,21,depth_discrimination_stimuli/002131_2014-06-25_21-12-01_260595134347_rgbf000083-resize_0/002131_2014-06-25_21-12-01_260595134347_rgbf000083-resize_0-target.png,depth_discrimination_stimuli/001100_2014-06-15_17-46-26_260595134347_rgbf000225-resize_2/001100_2014-06-15_17-46-26_260595134347_rgbf000225-resize_2-target.png,1000,1.7685,2.24,1,2763,510,1001,490,1009,493,feet,,,,,1230851,1614254,46
741541,DepthScenes,duration_discrimination,discrim_jsons/d0_rotated.json,http://54.173.234.186/DepthDuration/depth_discrimination_MTurk/DepthDiscrim_HTML.html#3,3,1536,754,1536,864,6-19-2021,14-40-5,22,depth_discrimination_stimuli/002468_2014-06-28_20-38-39_260595134347_rgbf000045-resize_1/002468_2014-06-28_20-38-39_260595134347_rgbf000045-resize_1-target.png,depth_discrimination_stimuli/002579_2014-06-24_14-08-03_094959634447_rgbf000061-resize_2/002579_2014-06-24_14-08-03_094959634447_rgbf000061-resize_2-target.png,250,1.956,2.223125,1,1252,503,248,510,249,491,feet,,,,,1230851,1614254,46
741541,DepthScenes,duration_discrimination,discrim_jsons/d0_rotated.json,http://54.173.234.186/DepthDuration/depth_discrimination_MTurk/DepthDiscrim_HTML.html#3,3,1536,754,1536,864,6-19-2021,14-40-5,23,depth_discrimination_stimuli/000454_2014-06-08_16-37-28_260595134347_rgbf000048-resize_2/000454_2014-06-08_16-37-28_260595134347_rgbf000048-resize_2-target.png,depth_discrimination_stimuli/000375_2014-06-08_11-17-29_260595134347_rgbf000133-resize_2/000375_2014-06-08_11-17-29_260595134347_rgbf000133-resize_2-target.png,1000,1.213,4.718,0,1568,514,986,515,999,486,feet,,,,,1230851,1614254,46
741541,DepthScenes,duration_discrimination,discrim_jsons/d0_rotated.json,http://54.173.234.186/DepthDuration/depth_discrimination_MTurk/DepthDiscrim_HTML.html#3,3,1536,754,1536,864,6-19-2021,14-40-5,24,depth_discrimination_stimuli/001532_2014-06-20_16-50-41_260595134347_rgbf000081-resize_4/001532_2014-06-20_16-50-41_260595134347_rgbf000081-resize_4-target.png,depth_discrimination_stimuli/002784_2014-06-22_19-26-30_094959634447_rgbf000083-resize_3/002784_2014-06-22_19-26-30_094959634447_rgbf000083-resize_3-target.png,1000,1.5758333333333,1.8046666666667,0,2037,501,1006,503,999,499,feet,,,,,1230851,1614254,46
741541,DepthScenes,duration_discrimination,discrim_jsons/d0_rotated.json,http://54.173.234.186/DepthDuration/depth_discrimination_MTurk/DepthDiscrim_HTML.html#3,3,1536,754,1536,864,6-19-2021,14-40-5,25,depth_discrimination_stimuli/000542_2014-06-08_18-27-08_260595134347_rgbf000118-resize_1/000542_2014-06-08_18-27-08_260595134347_rgbf000118-resize_1-target.png,depth_discrimination_stimuli/002118_2014-06-25_20-32-08_260595134347_rgbf000078-resize_1/002118_2014-06-25_20-32-08_260595134347_rgbf000078-resize_1-target.png,1000,3,2.646,0,1944,514,996,491,1011,501,feet,,,,,1230851,1614254,46
741541,DepthScenes,duration_discrimination,discrim_jsons/d0_rotated.json,http://54.173.234.186/DepthDuration/depth_discrimination_MTurk/DepthDiscrim_HTML.html#3,3,1536,754,1536,864,6-19-2021,14-40-5,26,depth_discrimination_stimuli/002272_2014-06-28_18-53-56_260595134347_rgbf000067-resize_2/002272_2014-06-28_18-53-56_260595134347_rgbf000067-resize_2-target.png,depth_discrimination_stimuli/003534_2014-05-22_15-06-10_094959634447_rgbf000102-resize_4/003534_2014-05-22_15-06-10_094959634447_rgbf000102-resize_4-target.png,1000,1.138,1.426,1,2708,507,1001,493,1007,503,feet,,,,,1230851,1614254,46
741541,DepthScenes,duration_discrimination,discrim_jsons/d0_rotated.json,http://54.173.234.186/DepthDuration/depth_discrimination_MTurk/DepthDiscrim_HTML.html#3,3,1536,754,1536,864,6-19-2021,14-40-5,27,depth_discrimination_stimuli/002748_2014-06-22_19-07-22_094959634447_rgbf000078-resize_1/002748_2014-06-22_19-07-22_094959634447_rgbf000078-resize_1-target.png,depth_discrimination_stimuli/002657_2014-06-13_15-29-54_094959634447_rgbf000150-resize_1/002657_2014-06-13_15-29-54_094959634447_rgbf000150-resize_1-target.png,250,4.6705,4.919,0,984,504,253,508,235,504,feet,,,,,1230851,1614254,46
741541,DepthScenes,duration_discrimination,discrim_jsons/d0_rotated.json,http://54.173.234.186/DepthDuration/depth_discrimination_MTurk/DepthDiscrim_HTML.html#3,3,1536,754,1536,864,6-19-2021,14-40-5,28,depth_discrimination_stimuli/002365_2014-06-28_20-11-21_260595134347_rgbf000102-resize_1/002365_2014-06-28_20-11-21_260595134347_rgbf000102-resize_1-target.png,depth_discrimination_stimuli/000457_2014-06-08_16-52-43_260595134347_rgbf000199-resize_1/000457_2014-06-08_16-52-43_260595134347_rgbf000199-resize_1-target.png,1000,4.013,3.649,1,2515,507,1007,490,1004,507,feet,,,,,1230851,1614254,46
741541,DepthScenes,duration_discrimination,discrim_jsons/d0_rotated.json,http://54.173.234.186/DepthDuration/depth_discrimination_MTurk/DepthDiscrim_HTML.html#3,3,1536,754,1536,864,6-19-2021,14-40-5,29,depth_discrimination_stimuli/000736_2014-06-08_18-24-15_260595134347_rgbf000206-resize_3/000736_2014-06-08_18-24-15_260595134347_rgbf000206-resize_3-target.png,depth_discrimination_stimuli/002323_2014-06-28_20-01-54_260595134347_rgbf000051-resize_4/002323_2014-06-28_20-01-54_260595134347_rgbf000051-resize_4-target.png,250,3.515,3.731,0,1473,512,250,501,251,502,feet,,,,,1230851,1614254,46
741541,DepthScenes,duration_discrimination,discrim_jsons/d0_rotated.json,http://54.173.234.186/DepthDuration/depth_discrimination_MTurk/DepthDiscrim_HTML.html#3,3,1536,754,1536,864,6-19-2021,14-40-5,30,depth_discrimination_stimuli/000522_2014-06-08_13-35-06_260595134347_rgbf000244-resize_1/000522_2014-06-08_13-35-06_260595134347_rgbf000244-resize_1-target.png,depth_discrimination_stimuli/001092_2014-06-15_17-34-58_260595134347_rgbf000171-resize_3/001092_2014-06-15_17-34-58_260595134347_rgbf000171-resize_3-target.png,250,2.3715,2.6935,0,1196,506,245,513,237,499,feet,,,,,1230851,1614254,46
741541,DepthScenes,duration_discrimination,discrim_jsons/d0_rotated.json,http://54.173.234.186/DepthDuration/depth_discrimination_MTurk/DepthDiscrim_HTML.html#3,3,1536,754,1536,864,6-19-2021,14-40-5,31,depth_discrimination_stimuli/002995_2014-06-15_12-31-26_094959634447_rgbf000150-resize_1/002995_2014-06-15_12-31-26_094959634447_rgbf000150-resize_1-target.png,depth_discrimination_stimuli/000739_2014-06-08_18-45-58_260595134347_rgbf000068-resize_1/000739_2014-06-08_18-45-58_260595134347_rgbf000068-resize_1-target.png,1000,3.836,3.534,1,2300,501,1014,486,1007,493,feet,,,,,1230851,1614254,46
741541,DepthScenes,duration_discrimination,discrim_jsons/d0_rotated.json,http://54.173.234.186/DepthDuration/depth_discrimination_MTurk/DepthDiscrim_HTML.html#3,3,1536,754,1536,864,6-19-2021,14-40-5,32,depth_discrimination_stimuli/001571_2014-06-20_17-21-32_260595134347_rgbf000089-resize_1/001571_2014-06-20_17-21-32_260595134347_rgbf000089-resize_1-target.png,depth_discrimination_stimuli/002953_2014-06-08_17-32-18_094959634447_rgbf000059-resize_5/002953_2014-06-08_17-32-18_094959634447_rgbf000059-resize_5-target.png,1000,1.86,1.551,1,2351,502,1000,498,1015,500,feet,,,,,1230851,1614254,46
741541,DepthScenes,duration_discrimination,discrim_jsons/d0_rotated.json,http://54.173.234.186/DepthDuration/depth_discrimination_MTurk/DepthDiscrim_HTML.html#3,3,1536,754,1536,864,6-19-2021,14-40-5,33,depth_discrimination_stimuli/001724_2014-06-26_19-28-50_260595134347_rgbf000037-resize_7/001724_2014-06-26_19-28-50_260595134347_rgbf000037-resize_7-target.png,depth_discrimination_stimuli/002989_2014-06-15_12-25-03_094959634447_rgbf000150-resize_3/002989_2014-06-15_12-25-03_094959634447_rgbf000150-resize_3-target.png,1000,3.827,4.1975,0,1995,506,1007,491,1007,492,feet,,,,,1230851,1614254,46
741541,DepthScenes,duration_discrimination,discrim_jsons/d0_rotated.json,http://54.173.234.186/DepthDuration/depth_discrimination_MTurk/DepthDiscrim_HTML.html#3,3,1536,754,1536,864,6-19-2021,14-40-5,34,depth_discrimination_stimuli/001170_2014-06-17_15-43-44_260595134347_rgbf000096-resize_6/001170_2014-06-17_15-43-44_260595134347_rgbf000096-resize_6-target.png,depth_discrimination_stimuli/002364_2014-06-28_20-11-05_260595134347_rgbf000042-resize_0/002364_2014-06-28_20-11-05_260595134347_rgbf000042-resize_0-target.png,1000,1.191,4.682,0,2069,505,1003,492,1014,487,feet,,,,,1230851,1614254,46
741541,DepthScenes,duration_discrimination,discrim_jsons/d0_rotated.json,http://54.173.234.186/DepthDuration/depth_discrimination_MTurk/DepthDiscrim_HTML.html#3,3,1536,754,1536,864,6-19-2021,14-40-5,35,depth_discrimination_stimuli/003228_2014-05-14_13-42-35_094959634447_rgbf000101-resize_1/003228_2014-05-14_13-42-35_094959634447_rgbf000101-resize_1-target.png,depth_discrimination_stimuli/001164_2014-06-17_15-35-46_260595134347_rgbf000085-resize_3/001164_2014-06-17_15-35-46_260595134347_rgbf000085-resize_3-target.png,250,1.968,2.354,0,1668,508,244,511,238,512,feet,,,,,1230851,1614254,46
741541,DepthScenes,duration_discrimination,discrim_jsons/d0_rotated.json,http://54.173.234.186/DepthDuration/depth_discrimination_MTurk/DepthDiscrim_HTML.html#3,3,1536,754,1536,864,6-19-2021,14-40-5,36,depth_discrimination_stimuli/000906_2014-06-08_13-35-43_260595134347_rgbf000155-resize_1/000906_2014-06-08_13-35-43_260595134347_rgbf000155-resize_1-target.png,depth_discrimination_stimuli/001059_2014-06-08_21-53-27_260595134347_rgbf000061-resize_4/001059_2014-06-08_21-53-27_260595134347_rgbf000061-resize_4-target.png,250,2.849,2.4185,1,1219,503,248,508,242,500,feet,,,,,1230851,1614254,46
741541,DepthScenes,duration_discrimination,discrim_jsons/d0_rotated.json,http://54.173.234.186/DepthDuration/depth_discrimination_MTurk/DepthDiscrim_HTML.html#3,3,1536,754,1536,864,6-19-2021,14-40-5,37,depth_discrimination_stimuli/000866_2014-06-09_20-45-42_260595134347_rgbf000139-resize_1/000866_2014-06-09_20-45-42_260595134347_rgbf000139-resize_1-target.png,depth_discrimination_stimuli/000682_2014-06-08_23-14-58_260595134347_rgbf000041-resize_5/000682_2014-06-08_23-14-58_260595134347_rgbf000041-resize_5-target.png,250,3.2155,2.724,1,1453,515,236,513,251,488,feet,,,,,1230851,1614254,46
741541,DepthScenes,duration_discrimination,discrim_jsons/d0_rotated.json,http://54.173.234.186/DepthDuration/depth_discrimination_MTurk/DepthDiscrim_HTML.html#3,3,1536,754,1536,864,6-19-2021,14-40-5,38,depth_discrimination_stimuli/001214_2014-06-17_16-13-55_260595134347_rgbf000111-resize_0/001214_2014-06-17_16-13-55_260595134347_rgbf000111-resize_0-target.png,depth_discrimination_stimuli/000665_2014-06-09_20-42-35_260595134347_rgbf000110-resize_1/000665_2014-06-09_20-42-35_260595134347_rgbf000110-resize_1-target.png,250,2.6505,3.057,0,1161,516,235,502,253,503,feet,,,,,1230851,1614254,46
741541,DepthScenes,duration_discrimination,discrim_jsons/d0_rotated.json,http://54.173.234.186/DepthDuration/depth_discrimination_MTurk/DepthDiscrim_HTML.html#3,3,1536,754,1536,864,6-19-2021,14-40-5,39,depth_discrimination_stimuli/001570_2014-06-20_17-21-09_260595134347_rgbf000135-resize_4/001570_2014-06-20_17-21-09_260595134347_rgbf000135-resize_4-target.png,depth_discrimination_stimuli/002375_2014-06-28_20-13-44_260595134347_rgbf000032-resize_1/002375_2014-06-28_20-13-44_260595134347_rgbf000032-resize_1-target.png,250,4.467,4.0175,1,1169,505,246,505,251,507,feet,,,,,1230851,1614254,46
741541,DepthScenes,duration_discrimination,discrim_jsons/d0_rotated.json,http://54.173.234.186/DepthDuration/depth_discrimination_MTurk/DepthDiscrim_HTML.html#3,3,1536,754,1536,864,6-19-2021,14-40-5,40,depth_discrimination_stimuli/003288_2014-05-14_21-50-30_094959634447_rgbf000028-resize_3/003288_2014-05-14_21-50-30_094959634447_rgbf000028-resize_3-target.png,depth_discrimination_stimuli/000735_2014-06-08_18-23-50_260595134347_rgbf000163-resize_2/000735_2014-06-08_18-23-50_260595134347_rgbf000163-resize_2-target.png,250,3.877,4.1695,0,906,502,249,513,249,488,feet,,,,,1230851,1614254,46
741541,DepthScenes,duration_discrimination,discrim_jsons/d0_rotated.json,http://54.173.234.186/DepthDuration/depth_discrimination_MTurk/DepthDiscrim_HTML.html#3,3,1536,754,1536,864,6-19-2021,14-40-5,41,depth_discrimination_stimuli/001618_2014-06-20_11-37-31_260595134347_rgbf000027-resize_3/001618_2014-06-20_11-37-31_260595134347_rgbf000027-resize_3-target.png,depth_discrimination_stimuli/001016_2014-06-09_16-16-10_260595134347_rgbf000112-resize_5/001016_2014-06-09_16-16-10_260595134347_rgbf000112-resize_5-target.png,250,1.8725,1.6565,0,745,510,241,512,250,491,feet,,,,,1230851,1614254,46
741541,DepthScenes,duration_discrimination,discrim_jsons/d0_rotated.json,http://54.173.234.186/DepthDuration/depth_discrimination_MTurk/DepthDiscrim_HTML.html#3,3,1536,754,1536,864,6-19-2021,14-40-5,42,depth_discrimination_stimuli/002340_2014-06-28_20-05-46_260595134347_rgbf000113-resize_0/002340_2014-06-28_20-05-46_260595134347_rgbf000113-resize_0-target.png,depth_discrimination_stimuli/001264_2014-06-16_16-10-23_260595134347_rgbf000109-resize_1/001264_2014-06-16_16-10-23_260595134347_rgbf000109-resize_1-target.png,1000,2.4735,2.9665,1,2628,502,1007,492,1009,500,feet,,,,,1230851,1614254,46
741541,DepthScenes,duration_discrimination,discrim_jsons/d0_rotated.json,http://54.173.234.186/DepthDuration/depth_discrimination_MTurk/DepthDiscrim_HTML.html#3,3,1536,754,1536,864,6-19-2021,14-40-5,43,depth_discrimination_stimuli/000447_2014-06-08_16-15-46_260595134347_rgbf000130-resize_1/000447_2014-06-08_16-15-46_260595134347_rgbf000130-resize_1-target.png,depth_discrimination_stimuli/002988_2014-06-15_12-24-20_094959634447_rgbf000150-resize_1/002988_2014-06-15_12-24-20_094959634447_rgbf000150-resize_1-target.png,1000,4.479,4.767,0,1943,513,990,498,1000,500,feet,,,,,1230851,1614254,46
741541,DepthScenes,duration_discrimination,discrim_jsons/d0_rotated.json,http://54.173.234.186/DepthDuration/depth_discrimination_MTurk/DepthDiscrim_HTML.html#3,3,1536,754,1536,864,6-19-2021,14-40-5,44,depth_discrimination_stimuli/000800_2014-06-08_22-42-09_260595134347_rgbf000095-resize_3/000800_2014-06-08_22-42-09_260595134347_rgbf000095-resize_3-target.png,depth_discrimination_stimuli/002700_2014-06-22_11-27-02_094959634447_rgbf000124-resize_3/002700_2014-06-22_11-27-02_094959634447_rgbf000124-resize_3-target.png,1000,2.8,3.301,1,1576,505,996,500,1009,506,feet,,,,,1230851,1614254,46
741541,DepthScenes,duration_discrimination,discrim_jsons/d0_rotated.json,http://54.173.234.186/DepthDuration/depth_discrimination_MTurk/DepthDiscrim_HTML.html#3,3,1536,754,1536,864,6-19-2021,14-40-5,45,depth_discrimination_stimuli/000917_2014-06-09_22-45-29_260595134347_rgbf000149-resize_3/000917_2014-06-09_22-45-29_260595134347_rgbf000149-resize_3-target.png,depth_discrimination_stimuli/003081_2014-06-15_15-19-16_094959634447_rgbf000150-resize_1/003081_2014-06-15_15-19-16_094959634447_rgbf000150-resize_1-target.png,250,4.1865,3.9125,1,1480,510,241,500,263,500,feet,,,,,1230851,1614254,46
741541,DepthScenes,duration_discrimination,discrim_jsons/d0_rotated.json,http://54.173.234.186/DepthDuration/depth_discrimination_MTurk/DepthDiscrim_HTML.html#3,3,1536,754,1536,864,6-19-2021,14-40-5,46,depth_discrimination_stimuli/003010_2014-06-15_12-54-35_094959634447_rgbf000112-resize_0/003010_2014-06-15_12-54-35_094959634447_rgbf000112-resize_0-target.png,depth_discrimination_stimuli/003546_2014-05-22_15-48-53_094959634447_rgbf004816-resize_3/003546_2014-05-22_15-48-53_094959634447_rgbf004816-resize_3-target.png,1000,3.1185,2.62625,1,2012,505,1009,487,1010,490,feet,,,,,1230851,1614254,46
741541,DepthScenes,duration_discrimination,discrim_jsons/d0_rotated.json,http://54.173.234.186/DepthDuration/depth_discrimination_MTurk/DepthDiscrim_HTML.html#3,3,1536,754,1536,864,6-19-2021,14-40-5,47,depth_discrimination_stimuli/000569_2014-06-09_22-51-47_260595134347_rgbf000141-resize_3/000569_2014-06-09_22-51-47_260595134347_rgbf000141-resize_3-target.png,depth_discrimination_stimuli/000868_2014-06-09_20-49-52_260595134347_rgbf000064-resize_4/000868_2014-06-09_20-49-52_260595134347_rgbf000064-resize_4-target.png,250,4.512,1.2815,1,1114,503,248,513,237,499,feet,,,,,1230851,1614254,46
741541,DepthScenes,duration_discrimination,discrim_jsons/d0_rotated.json,http://54.173.234.186/DepthDuration/depth_discrimination_MTurk/DepthDiscrim_HTML.html#3,3,1536,754,1536,864,6-19-2021,14-40-5,48,depth_discrimination_stimuli/002875_2014-06-01_15-19-00_094959634447_rgbf000151-resize_1/002875_2014-06-01_15-19-00_094959634447_rgbf000151-resize_1-target.png,depth_discrimination_stimuli/000749_2014-06-08_21-55-06_260595134347_rgbf000070-resize_2/000749_2014-06-08_21-55-06_260595134347_rgbf000070-resize_2-target.png,250,1.9675,2.331,1,1167,511,239,509,242,511,feet,,,,,1230851,1614254,46
741541,DepthScenes,duration_discrimination,discrim_jsons/d0_rotated.json,http://54.173.234.186/DepthDuration/depth_discrimination_MTurk/DepthDiscrim_HTML.html#3,3,1536,754,1536,864,6-19-2021,14-40-5,49,depth_discrimination_stimuli/000830_2014-06-04_19-49-31_260595134347_rgbf000096-resize_2/000830_2014-06-04_19-49-31_260595134347_rgbf000096-resize_2-target.png,depth_discrimination_stimuli/000929_2014-06-09_16-33-19_260595134347_rgbf000139-resize_0/000929_2014-06-09_16-33-19_260595134347_rgbf000139-resize_0-target.png,250,2.6353333333333,2.868,0,1392,511,240,503,250,497,feet,,,,,1230851,1614254,46
741541,DepthScenes,duration_discrimination,discrim_jsons/d0_rotated.json,http://54.173.234.186/DepthDuration/depth_discrimination_MTurk/DepthDiscrim_HTML.html#3,3,1536,754,1536,864,6-19-2021,14-40-5,50,depth_discrimination_stimuli/000953_2014-06-08_11-42-19_260595134347_rgbf000083-resize_0/000953_2014-06-08_11-42-19_260595134347_rgbf000083-resize_0-target.png,depth_discrimination_stimuli/000787_2014-06-08_22-33-53_260595134347_rgbf000175-resize_1/000787_2014-06-08_22-33-53_260595134347_rgbf000175-resize_1-target.png,1000,1.369,4.784,0,3274,515,999,487,1000,508,feet,,,,,1230851,1614254,46
741541,DepthScenes,duration_discrimination,discrim_jsons/d0_rotated.json,http://54.173.234.186/DepthDuration/depth_discrimination_MTurk/DepthDiscrim_HTML.html#3,3,1536,754,1536,864,6-19-2021,14-40-5,51,depth_discrimination_stimuli/001136_2014-06-17_15-19-41_260595134347_rgbf000076-resize_3/001136_2014-06-17_15-19-41_260595134347_rgbf000076-resize_3-target.png,depth_discrimination_stimuli/000869_2014-06-09_20-50-18_260595134347_rgbf000060-resize_3/000869_2014-06-09_20-50-18_260595134347_rgbf000060-resize_3-target.png,250,1.8655,2.266,1,858,512,250,493,250,497,feet,,,,,1230851,1614254,46
741541,DepthScenes,duration_discrimination,discrim_jsons/d0_rotated.json,http://54.173.234.186/DepthDuration/depth_discrimination_MTurk/DepthDiscrim_HTML.html#3,3,1536,754,1536,864,6-19-2021,14-40-5,52,depth_discrimination_stimuli/001815_2014-06-26_20-52-55_260595134347_rgbf000020-resize_0/001815_2014-06-26_20-52-55_260595134347_rgbf000020-resize_0-target.png,depth_discrimination_stimuli/000642_2014-06-08_16-59-25_260595134347_rgbf000098-resize_2/000642_2014-06-08_16-59-25_260595134347_rgbf000098-resize_2-target.png,1000,3.3865,2.8815,1,1548,516,986,499,1006,502,feet,,,,,1230851,1614254,46
741541,DepthScenes,duration_discrimination,discrim_jsons/d0_rotated.json,http://54.173.234.186/DepthDuration/depth_discrimination_MTurk/DepthDiscrim_HTML.html#3,3,1536,754,1536,864,6-19-2021,14-40-5,53,depth_discrimination_stimuli/000368_2014-06-09_15-53-01_260595134347_rgbf000155-resize_2/000368_2014-06-09_15-53-01_260595134347_rgbf000155-resize_2-target.png,depth_discrimination_stimuli/002199_2014-06-28_18-33-56_260595134347_rgbf000074-resize_0/002199_2014-06-28_18-33-56_260595134347_rgbf000074-resize_0-target.png,250,2.486,1.996,1,1140,502,261,488,266,499,feet,,,,,1230851,1614254,46
741541,DepthScenes,duration_discrimination,discrim_jsons/d0_rotated.json,http://54.173.234.186/DepthDuration/depth_discrimination_MTurk/DepthDiscrim_HTML.html#3,3,1536,754,1536,864,6-19-2021,14-40-5,54,depth_discrimination_stimuli/002788_2014-06-22_19-36-03_094959634447_rgbf000088-resize_2/002788_2014-06-22_19-36-03_094959634447_rgbf000088-resize_2-target.png,depth_discrimination_stimuli/001289_2014-06-16_16-25-52_260595134347_rgbf000067-resize_1/001289_2014-06-16_16-25-52_260595134347_rgbf000067-resize_1-target.png,1000,1.6465,1.8835,1,2457,512,990,511,992,501,feet,,,,,1230851,1614254,46
741541,DepthScenes,duration_discrimination,discrim_jsons/d0_rotated.json,http://54.173.234.186/DepthDuration/depth_discrimination_MTurk/DepthDiscrim_HTML.html#3,3,1536,754,1536,864,6-19-2021,14-40-5,55,depth_discrimination_stimuli/000191_2014-05-12_17-07-38_260595134347_rgbf000199-resize_0/000191_2014-05-12_17-07-38_260595134347_rgbf000199-resize_0-target.png,depth_discrimination_stimuli/000780_2014-06-08_22-28-29_260595134347_rgbf000126-resize_1/000780_2014-06-08_22-28-29_260595134347_rgbf000126-resize_1-target.png,1000,3.7995,3.3825,1,1649,514,990,501,1010,486,feet,,,,,1230851,1614254,46
741541,DepthScenes,duration_discrimination,discrim_jsons/d0_rotated.json,http://54.173.234.186/DepthDuration/depth_discrimination_MTurk/DepthDiscrim_HTML.html#3,3,1536,754,1536,864,6-19-2021,14-40-5,56,depth_discrimination_stimuli/003495_2014-05-21_16-01-51_094959634447_rgbf000100-resize_3/003495_2014-05-21_16-01-51_094959634447_rgbf000100-resize_3-target.png,depth_discrimination_stimuli/001167_2014-06-17_15-38-07_260595134347_rgbf000108-resize_0/001167_2014-06-17_15-38-07_260595134347_rgbf000108-resize_0-target.png,250,1.6255,1.8505,1,1223,510,241,504,246,500,feet,,,,,1230851,1614254,46
741541,DepthScenes,duration_discrimination,discrim_jsons/d0_rotated.json,http://54.173.234.186/DepthDuration/depth_discrimination_MTurk/DepthDiscrim_HTML.html#3,3,1536,754,1536,864,6-19-2021,14-40-5,57,depth_discrimination_stimuli/001498_2014-06-19_17-45-14_260595134347_rgbf000129-resize_4/001498_2014-06-19_17-45-14_260595134347_rgbf000129-resize_4-target.png,depth_discrimination_stimuli/003125_2014-05-12_10-39-22_094959634447_rgbf000100-resize_0/003125_2014-05-12_10-39-22_094959634447_rgbf000100-resize_0-target.png,250,1.4075,4.8655,0,1380,506,251,494,252,513,feet,,,,,1230851,1614254,46
741541,DepthScenes,duration_discrimination,discrim_jsons/d0_rotated.json,http://54.173.234.186/DepthDuration/depth_discrimination_MTurk/DepthDiscrim_HTML.html#3,3,1536,754,1536,864,6-19-2021,14-40-5,58,depth_discrimination_stimuli/001181_2014-06-17_15-50-57_260595134347_rgbf000106-resize_4/001181_2014-06-17_15-50-57_260595134347_rgbf000106-resize_4-target.png,depth_discrimination_stimuli/002425_2014-06-28_20-27-29_260595134347_rgbf000031-resize_8/002425_2014-06-28_20-27-29_260595134347_rgbf000031-resize_8-target.png,250,4.149,3.896,1,1265,505,246,511,240,499,feet,,,,,1230851,1614254,46
741541,DepthScenes,duration_discrimination,discrim_jsons/d0_rotated.json,http://54.173.234.186/DepthDuration/depth_discrimination_MTurk/DepthDiscrim_HTML.html#3,3,1536,754,1536,864,6-19-2021,14-40-5,59,depth_discrimination_stimuli/002805_2014-06-22_19-54-03_094959634447_rgbf000079-resize_1/002805_2014-06-22_19-54-03_094959634447_rgbf000079-resize_1-target.png,depth_discrimination_stimuli/003292_2014-05-14_21-53-49_094959634447_rgbf000100-resize_2/003292_2014-05-14_21-53-49_094959634447_rgbf000100-resize_2-target.png,1000,3.144,3.4815,1,1510,513,988,500,1000,507,feet,,,,,1230851,1614254,46
741541,DepthScenes,duration_discrimination,discrim_jsons/d0_rotated.json,http://54.173.234.186/DepthDuration/depth_discrimination_MTurk/DepthDiscrim_HTML.html#3,3,1536,754,1536,864,6-19-2021,14-40-5,60,depth_discrimination_stimuli/002637_2014-06-24_14-51-13_094959634447_rgbf000066-resize_4/002637_2014-06-24_14-51-13_094959634447_rgbf000066-resize_4-target.png,depth_discrimination_stimuli/000720_2014-06-08_18-37-27_260595134347_rgbf000203-resize_4/000720_2014-06-08_18-37-27_260595134347_rgbf000203-resize_4-target.png,1000,1.9955,1.558,1,3223,502,1000,506,994,504,feet,,,,,1230851,1614254,46
741541,DepthScenes,duration_discrimination,discrim_jsons/d0_rotated.json,http://54.173.234.186/DepthDuration/depth_discrimination_MTurk/DepthDiscrim_HTML.html#3,3,1536,754,1536,864,6-19-2021,14-40-5,61,depth_discrimination_stimuli/003083_2014-06-15_15-21-03_094959634447_rgbf000063-resize_1/003083_2014-06-15_15-21-03_094959634447_rgbf000063-resize_1-target.png,depth_discrimination_stimuli/001417_2014-06-19_16-25-36_260595134347_rgbf000115-resize_5/001417_2014-06-19_16-25-36_260595134347_rgbf000115-resize_5-target.png,250,4.1405,4.6255,1,988,516,236,506,252,497,feet,,,,,1230851,1614254,46
741541,DepthScenes,duration_discrimination,discrim_jsons/d0_rotated.json,http://54.173.234.186/DepthDuration/depth_discrimination_MTurk/DepthDiscrim_HTML.html#3,3,1536,754,1536,864,6-19-2021,14-40-5,62,depth_discrimination_stimuli/000788_2014-06-08_22-34-36_260595134347_rgbf000131-resize_1/000788_2014-06-08_22-34-36_260595134347_rgbf000131-resize_1-target.png,depth_discrimination_stimuli/000521_2014-06-08_13-34-35_260595134347_rgbf000191-resize_2/000521_2014-06-08_13-34-35_260595134347_rgbf000191-resize_2-target.png,250,3.359,3.0385,1,1261,515,238,498,250,500,feet,,,,,1230851,1614254,46
741541,DepthScenes,duration_discrimination,discrim_jsons/d0_rotated.json,http://54.173.234.186/DepthDuration/depth_discrimination_MTurk/DepthDiscrim_HTML.html#3,3,1536,754,1536,864,6-19-2021,14-40-5,63,depth_discrimination_stimuli/003092_2014-06-24_21-01-49_094959634447_rgbf000049-resize_2/003092_2014-06-24_21-01-49_094959634447_rgbf000049-resize_2-target.png,depth_discrimination_stimuli/000753_2014-06-08_21-57-44_260595134347_rgbf000123-resize_3/000753_2014-06-08_21-57-44_260595134347_rgbf000123-resize_3-target.png,1000,1.666,1.916,1,2789,504,997,500,1005,502,feet,,,,,1230851,1614254,46
741541,DepthScenes,duration_discrimination,discrim_jsons/d0_rotated.json,http://54.173.234.186/DepthDuration/depth_discrimination_MTurk/DepthDiscrim_HTML.html#3,3,1536,754,1536,864,6-19-2021,14-40-5,64,depth_discrimination_stimuli/003338_2014-05-20_11-01-23_094959634447_rgbf000051-resize_6/003338_2014-05-20_11-01-23_094959634447_rgbf000051-resize_6-target.png,depth_discrimination_stimuli/000878_2014-06-08_22-52-45_260595134347_rgbf000045-resize_2/000878_2014-06-08_22-52-45_260595134347_rgbf000045-resize_2-target.png,1000,1.693,2.092,0,2933,501,1014,495,999,499,feet,,,,,1230851,1614254,46
741541,DepthScenes,duration_discrimination,discrim_jsons/d0_rotated.json,http://54.173.234.186/DepthDuration/depth_discrimination_MTurk/DepthDiscrim_HTML.html#3,3,1536,754,1536,864,6-19-2021,14-40-5,65,depth_discrimination_stimuli/000636_2014-06-08_16-39-02_260595134347_rgbf000108-resize_4/000636_2014-06-08_16-39-02_260595134347_rgbf000108-resize_4-target.png,depth_discrimination_stimuli/002568_2014-06-24_13-59-21_094959634447_rgbf000062-resize_4/002568_2014-06-24_13-59-21_094959634447_rgbf000062-resize_4-target.png,250,2.682,3.015,0,1377,501,252,500,248,506,feet,,,,,1230851,1614254,46
741541,DepthScenes,duration_discrimination,discrim_jsons/d0_rotated.json,http://54.173.234.186/DepthDuration/depth_discrimination_MTurk/DepthDiscrim_HTML.html#3,3,1536,754,1536,864,6-19-2021,14-40-5,66,depth_discrimination_stimuli/003423_2014-05-21_10-23-26_094959634447_rgbf002665-resize_2/003423_2014-05-21_10-23-26_094959634447_rgbf002665-resize_2-target.png,depth_discrimination_stimuli/001235_2014-06-17_16-37-36_260595134347_rgbf000084-resize_4/001235_2014-06-17_16-37-36_260595134347_rgbf000084-resize_4-target.png,1000,3.2575,3.6605,1,2376,508,1000,495,1004,500,feet,,,,,1230851,1614254,46
741541,DepthScenes,duration_discrimination,discrim_jsons/d0_rotated.json,http://54.173.234.186/DepthDuration/depth_discrimination_MTurk/DepthDiscrim_HTML.html#3,3,1536,754,1536,864,6-19-2021,14-40-5,67,depth_discrimination_stimuli/000927_2014-06-09_16-32-30_260595134347_rgbf000123-resize_3/000927_2014-06-09_16-32-30_260595134347_rgbf000123-resize_3-target.png,depth_discrimination_stimuli/001810_2014-06-26_20-51-35_260595134347_rgbf000040-resize_3/001810_2014-06-26_20-51-35_260595134347_rgbf000040-resize_3-target.png,250,2.6785,2.2525,1,1493,506,245,512,239,503,feet,,,,,1230851,1614254,46
741541,DepthScenes,duration_discrimination,discrim_jsons/d0_rotated.json,http://54.173.234.186/DepthDuration/depth_discrimination_MTurk/DepthDiscrim_HTML.html#3,3,1536,754,1536,864,6-19-2021,14-40-5,68,depth_discrimination_stimuli/000758_2014-06-08_22-05-08_260595134347_rgbf000085-resize_0/000758_2014-06-08_22-05-08_260595134347_rgbf000085-resize_0-target.png,depth_discrimination_stimuli/003070_2014-06-15_14-58-27_094959634447_rgbf000150-resize_3/003070_2014-06-15_14-58-27_094959634447_rgbf000150-resize_3-target.png,1000,3.381,2.9415,1,2381,513,998,492,1002,507,feet,,,,,1230851,1614254,46
741541,DepthScenes,duration_discrimination,discrim_jsons/d0_rotated.json,http://54.173.234.186/DepthDuration/depth_discrimination_MTurk/DepthDiscrim_HTML.html#3,3,1536,754,1536,864,6-19-2021,14-40-5,69,depth_discrimination_stimuli/002139_2014-06-25_21-19-37_260595134347_rgbf000124-resize_2/002139_2014-06-25_21-19-37_260595134347_rgbf000124-resize_2-target.png,depth_discrimination_stimuli/000549_2014-06-08_22-10-24_260595134347_rgbf000247-resize_3/000549_2014-06-08_22-10-24_260595134347_rgbf000247-resize_3-target.png,250,2.107,1.841,0,1276,507,243,504,246,501,feet,,,,,1230851,1614254,46
741541,DepthScenes,duration_discrimination,discrim_jsons/d0_rotated.json,http://54.173.234.186/DepthDuration/depth_discrimination_MTurk/DepthDiscrim_HTML.html#3,3,1536,754,1536,864,6-19-2021,14-40-5,70,depth_discrimination_stimuli/001029_2014-06-08_13-17-57_260595134347_rgbf000065-resize_1/001029_2014-06-08_13-17-57_260595134347_rgbf000065-resize_1-target.png,depth_discrimination_stimuli/001199_2014-06-17_16-03-48_260595134347_rgbf000077-resize_0/001199_2014-06-17_16-03-48_260595134347_rgbf000077-resize_0-target.png,250,3.0835,3.4375,0,1657,510,254,490,247,506,feet,,,,,1230851,1614254,46
741541,DepthScenes,duration_discrimination,discrim_jsons/d0_rotated.json,http://54.173.234.186/DepthDuration/depth_discrimination_MTurk/DepthDiscrim_HTML.html#3,3,1536,754,1536,864,6-19-2021,14-40-5,71,depth_discrimination_stimuli/001133_2014-06-17_14-49-16_260595134347_rgbf000100-resize_0/001133_2014-06-17_14-49-16_260595134347_rgbf000100-resize_0-target.png,depth_discrimination_stimuli/001617_2014-06-20_11-35-32_260595134347_rgbf000066-resize_1/001617_2014-06-20_11-35-32_260595134347_rgbf000066-resize_1-target.png,1000,4.2115,3.791,1,2468,507,998,504,992,505,feet,,,,,1230851,1614254,46
741541,DepthScenes,duration_discrimination,discrim_jsons/d0_rotated.json,http://54.173.234.186/DepthDuration/depth_discrimination_MTurk/DepthDiscrim_HTML.html#3,3,1536,754,1536,864,6-19-2021,14-40-5,72,depth_discrimination_stimuli/000009_2014-05-26_14-32-05_260595134347_rgbf000034-resize_3/000009_2014-05-26_14-32-05_260595134347_rgbf000034-resize_3-target.png,depth_discrimination_stimuli/002660_2014-06-13_15-44-18_094959634447_rgbf001878-resize_2/002660_2014-06-13_15-44-18_094959634447_rgbf001878-resize_2-target.png,1000,3.8715,3.576,1,2157,508,996,496,1004,505,feet,,,,,1230851,1614254,46
741541,DepthScenes,duration_discrimination,discrim_jsons/d0_rotated.json,http://54.173.234.186/DepthDuration/depth_discrimination_MTurk/DepthDiscrim_HTML.html#3,3,1536,754,1536,864,6-19-2021,14-40-5,73,depth_discrimination_stimuli/001150_2014-06-17_15-27-34_260595134347_rgbf000108-resize_2/001150_2014-06-17_15-27-34_260595134347_rgbf000108-resize_2-target.png,depth_discrimination_stimuli/000677_2014-06-08_23-10-32_260595134347_rgbf000158-resize_6/000677_2014-06-08_23-10-32_260595134347_rgbf000158-resize_6-target.png,250,4.0325,3.556,1,1197,503,249,501,252,506,feet,,,,,1230851,1614254,46
741541,DepthScenes,duration_discrimination,discrim_jsons/d0_rotated.json,http://54.173.234.186/DepthDuration/depth_discrimination_MTurk/DepthDiscrim_HTML.html#3,3,1536,754,1536,864,6-19-2021,14-40-5,74,depth_discrimination_stimuli/002663_2014-06-13_15-50-26_094959634447_rgbf000075-resize_1/002663_2014-06-13_15-50-26_094959634447_rgbf000075-resize_1-target.png,depth_discrimination_stimuli/000414_2014-06-04_19-49-13_260595134347_rgbf000044-resize_0/000414_2014-06-04_19-49-13_260595134347_rgbf000044-resize_0-target.png,1000,4.7495,4.329,0,1715,503,1008,505,990,504,feet,,,,,1230851,1614254,46
741541,DepthScenes,duration_discrimination,discrim_jsons/d0_rotated.json,http://54.173.234.186/DepthDuration/depth_discrimination_MTurk/DepthDiscrim_HTML.html#3,3,1536,754,1536,864,6-19-2021,14-40-5,75,depth_discrimination_stimuli/002964_2014-06-08_17-46-11_094959634447_rgbf000091-resize_4/002964_2014-06-08_17-46-11_094959634447_rgbf000091-resize_4-target.png,depth_discrimination_stimuli/000483_2014-06-09_20-41-45_260595134347_rgbf000116-resize_4/000483_2014-06-09_20-41-45_260595134347_rgbf000116-resize_4-target.png,250,1.691,1.337,1,1129,511,250,490,253,498,feet,,,,,1230851,1614254,46
741541,DepthScenes,duration_discrimination,discrim_jsons/d0_rotated.json,http://54.173.234.186/DepthDuration/depth_discrimination_MTurk/DepthDiscrim_HTML.html#3,3,1536,754,1536,864,6-19-2021,14-40-5,76,depth_discrimination_stimuli/002057_2014-06-24_21-00-13_260595134347_rgbf000120-resize_1/002057_2014-06-24_21-00-13_260595134347_rgbf000120-resize_1-target.png,depth_discrimination_stimuli/000505_2014-06-08_23-03-23_260595134347_rgbf000091-resize_0/000505_2014-06-08_23-03-23_260595134347_rgbf000091-resize_0-target.png,1000,2.967,3.3105,1,1904,514,997,503,987,500,feet,,,,,1230851,1614254,46
741541,DepthScenes,duration_discrimination,discrim_jsons/d0_rotated.json,http://54.173.234.186/DepthDuration/depth_discrimination_MTurk/DepthDiscrim_HTML.html#3,3,1536,754,1536,864,6-19-2021,14-40-5,77,depth_discrimination_stimuli/001188_2014-06-17_15-54-10_260595134347_rgbf000090-resize_2/001188_2014-06-17_15-54-10_260595134347_rgbf000090-resize_2-target.png,depth_discrimination_stimuli/002750_2014-06-22_19-08-03_094959634447_rgbf000094-resize_4/002750_2014-06-22_19-08-03_094959634447_rgbf000094-resize_4-target.png,250,2.744,2.354,1,1028,508,243,500,250,513,feet,,,,,1230851,1614254,46
741541,DepthScenes,duration_discrimination,discrim_jsons/d0_rotated.json,http://54.173.234.186/DepthDuration/depth_discrimination_MTurk/DepthDiscrim_HTML.html#3,3,1536,754,1536,864,6-19-2021,14-40-5,78,depth_discrimination_stimuli/002072_2014-06-24_21-48-06_260595134347_rgbf000115-resize_0/002072_2014-06-24_21-48-06_260595134347_rgbf000115-resize_0-target.png,depth_discrimination_stimuli/001012_2014-06-08_23-19-38_260595134347_rgbf000057-resize_0/001012_2014-06-08_23-19-38_260595134347_rgbf000057-resize_0-target.png,250,4.702,1.38325,1,1159,512,251,487,256,502,feet,,,,,1230851,1614254,46
741541,DepthScenes,duration_discrimination,discrim_jsons/d0_rotated.json,http://54.173.234.186/DepthDuration/depth_discrimination_MTurk/DepthDiscrim_HTML.html#3,3,1536,754,1536,864,6-19-2021,14-40-5,79,depth_discrimination_stimuli/000555_2014-06-09_22-42-23_260595134347_rgbf000037-resize_4/000555_2014-06-09_22-42-23_260595134347_rgbf000037-resize_4-target.png,depth_discrimination_stimuli/001110_2014-06-15_17-25-28_260595134347_rgbf000150-resize_1/001110_2014-06-15_17-25-28_260595134347_rgbf000150-resize_1-target.png,250,1.9765,1.7115,1,803,510,252,494,256,504,feet,,,,,1230851,1614254,46
741541,DepthScenes,duration_discrimination,discrim_jsons/d0_rotated.json,http://54.173.234.186/DepthDuration/depth_discrimination_MTurk/DepthDiscrim_HTML.html#3,3,1536,754,1536,864,6-19-2021,14-40-5,80,depth_discrimination_stimuli/002763_2014-06-22_19-13-10_094959634447_rgbf000075-resize_4/002763_2014-06-22_19-13-10_094959634447_rgbf000075-resize_4-target.png,depth_discrimination_stimuli/001244_2014-06-17_16-47-45_260595134347_rgbf000030-resize_4/001244_2014-06-17_16-47-45_260595134347_rgbf000030-resize_4-target.png,1000,1.68375,2.0425,1,1614,511,999,502,991,503,feet,,,,,1230851,1614254,46
741541,DepthScenes,duration_discrimination,discrim_jsons/d0_rotated.json,http://54.173.234.186/DepthDuration/depth_discrimination_MTurk/DepthDiscrim_HTML.html#3,3,1536,754,1536,864,6-19-2021,14-40-5,81,depth_discrimination_stimuli/003492_2014-05-21_15-50-55_094959634447_rgbf000828-resize_1/003492_2014-05-21_15-50-55_094959634447_rgbf000828-resize_1-target.png,depth_discrimination_stimuli/001158_2014-06-17_15-32-16_260595134347_rgbf000138-resize_2/001158_2014-06-17_15-32-16_260595134347_rgbf000138-resize_2-target.png,250,4.06875,4.5315,0,1121,508,244,499,250,505,feet,,,,,1230851,1614254,46
741541,DepthScenes,duration_discrimination,discrim_jsons/d0_rotated.json,http://54.173.234.186/DepthDuration/depth_discrimination_MTurk/DepthDiscrim_HTML.html#3,3,1536,754,1536,864,6-19-2021,14-40-5,82,depth_discrimination_stimuli/001584_2014-06-20_11-07-43_260595134347_rgbf000002-resize_1/001584_2014-06-20_11-07-43_260595134347_rgbf000002-resize_1-target.png,depth_discrimination_stimuli/002570_2014-06-24_13-59-54_094959634447_rgbf000059-resize_0/002570_2014-06-24_13-59-54_094959634447_rgbf000059-resize_0-target.png,250,3.53,4.037,1,882,510,250,503,251,500,feet,,,,,1230851,1614254,46
741541,DepthScenes,duration_discrimination,discrim_jsons/d0_rotated.json,http://54.173.234.186/DepthDuration/depth_discrimination_MTurk/DepthDiscrim_HTML.html#3,3,1536,754,1536,864,6-19-2021,14-40-5,83,depth_discrimination_stimuli/000742_2014-06-08_18-48-09_260595134347_rgbf000164-resize_4/000742_2014-06-08_18-48-09_260595134347_rgbf000164-resize_4-target.png,depth_discrimination_stimuli/000773_2014-06-08_22-24-54_260595134347_rgbf000093-resize_1/000773_2014-06-08_22-24-54_260595134347_rgbf000093-resize_1-target.png,250,4.632,4.973,0,927,500,250,514,237,515,feet,,,,,1230851,1614254,46
741541,DepthScenes,duration_discrimination,discrim_jsons/d0_rotated.json,http://54.173.234.186/DepthDuration/depth_discrimination_MTurk/DepthDiscrim_HTML.html#3,3,1536,754,1536,864,6-19-2021,14-40-5,84,depth_discrimination_stimuli/002987_2014-06-08_18-48-20_094959634447_rgbf000022-resize_0/002987_2014-06-08_18-48-20_094959634447_rgbf000022-resize_0-target.png,depth_discrimination_stimuli/000502_2014-06-08_23-02-32_260595134347_rgbf000063-resize_4/000502_2014-06-08_23-02-32_260595134347_rgbf000063-resize_4-target.png,1000,2.6775,2.431,1,2189,507,1000,502,1004,498,feet,,,,,1230851,1614254,46
741541,DepthScenes,duration_discrimination,discrim_jsons/d0_rotated.json,http://54.173.234.186/DepthDuration/depth_discrimination_MTurk/DepthDiscrim_HTML.html#3,3,1536,754,1536,864,6-19-2021,14-40-5,85,depth_discrimination_stimuli/002905_2014-06-03_18-04-43_094959634447_rgbf000151-resize_2/002905_2014-06-03_18-04-43_094959634447_rgbf000151-resize_2-target.png,depth_discrimination_stimuli/000740_2014-06-08_18-46-23_260595134347_rgbf000049-resize_6/000740_2014-06-08_18-46-23_260595134347_rgbf000049-resize_6-target.png,1000,2.0295,1.687,1,1922,507,1002,493,1012,486,feet,,,,,1230851,1614254,46
741541,DepthScenes,duration_discrimination,discrim_jsons/d0_rotated.json,http://54.173.234.186/DepthDuration/depth_discrimination_MTurk/DepthDiscrim_HTML.html#3,3,1536,754,1536,864,6-19-2021,14-40-5,86,depth_discrimination_stimuli/002675_2014-06-13_16-08-49_094959634447_rgbf000151-resize_2/002675_2014-06-13_16-08-49_094959634447_rgbf000151-resize_2-target.png,depth_discrimination_stimuli/001222_2014-06-17_16-24-06_260595134347_rgbf000073-resize_0/001222_2014-06-17_16-24-06_260595134347_rgbf000073-resize_0-target.png,1000,4.5065,1.4385,1,1844,501,1008,492,1000,514,feet,,,,,1230851,1614254,46
741541,DepthScenes,duration_discrimination,discrim_jsons/d0_rotated.json,http://54.173.234.186/DepthDuration/depth_discrimination_MTurk/DepthDiscrim_HTML.html#3,3,1536,754,1536,864,6-19-2021,14-40-5,87,depth_discrimination_stimuli/000109_2014-05-14_23-41-52_260595134347_rgbf000035-resize_9/000109_2014-05-14_23-41-52_260595134347_rgbf000035-resize_9-target.png,depth_discrimination_stimuli/000470_2014-06-09_19-42-40_260595134347_rgbf000094-resize_1/000470_2014-06-09_19-42-40_260595134347_rgbf000094-resize_1-target.png,1000,1.3545,1.831,1,2182,505,1000,501,996,507,feet,,,,,1230851,1614254,46
741541,DepthScenes,duration_discrimination,discrim_jsons/d0_rotated.json,http://54.173.234.186/DepthDuration/depth_discrimination_MTurk/DepthDiscrim_HTML.html#3,3,1536,754,1536,864,6-19-2021,14-40-5,88,depth_discrimination_stimuli/003079_2014-06-15_15-18-20_094959634447_rgbf000152-resize_8/003079_2014-06-15_15-18-20_094959634447_rgbf000152-resize_8-target.png,depth_discrimination_stimuli/001056_2014-06-08_18-46-44_260595134347_rgbf000068-resize_0/001056_2014-06-08_18-46-44_260595134347_rgbf000068-resize_0-target.png,250,2.8775,2.6625,1,1175,501,256,509,236,499,feet,,,,,1230851,1614254,46
741541,DepthScenes,duration_discrimination,discrim_jsons/d0_rotated.json,http://54.173.234.186/DepthDuration/depth_discrimination_MTurk/DepthDiscrim_HTML.html#3,3,1536,754,1536,864,6-19-2021,14-40-5,89,depth_discrimination_stimuli/002153_2014-06-25_21-27-18_260595134347_rgbf000038-resize_5/002153_2014-06-25_21-27-18_260595134347_rgbf000038-resize_5-target.png,depth_discrimination_stimuli/002725_2014-06-22_11-47-51_094959634447_rgbf000070-resize_1/002725_2014-06-22_11-47-51_094959634447_rgbf000070-resize_1-target.png,1000,2.505,2.195,0,1807,510,991,501,1009,489,feet,,,,,1230851,1614254,46
741541,DepthScenes,duration_discrimination,discrim_jsons/d0_rotated.json,http://54.173.234.186/DepthDuration/depth_discrimination_MTurk/DepthDiscrim_HTML.html#3,3,1536,754,1536,864,6-19-2021,14-40-5,90,depth_discrimination_stimuli/001828_2014-06-26_21-40-03_260595134347_rgbf000024-resize_0/001828_2014-06-26_21-40-03_260595134347_rgbf000024-resize_0-target.png,depth_discrimination_stimuli/002414_2014-06-28_20-24-58_260595134347_rgbf000067-resize_4/002414_2014-06-28_20-24-58_260595134347_rgbf000067-resize_4-target.png,1000,4.826,4.363,0,2243,501,1003,496,1006,502,feet,,,,,1230851,1614254,46
741541,DepthScenes,duration_discrimination,discrim_jsons/d0_rotated.json,http://54.173.234.186/DepthDuration/depth_discrimination_MTurk/DepthDiscrim_HTML.html#3,3,1536,754,1536,864,6-19-2021,14-40-5,91,depth_discrimination_stimuli/003490_2014-05-21_15-50-11_094959634447_rgbf000101-resize_3/003490_2014-05-21_15-50-11_094959634447_rgbf000101-resize_3-target.png,depth_discrimination_stimuli/001392_2014-06-19_16-07-59_260595134347_rgbf000046-resize_1/001392_2014-06-19_16-07-59_260595134347_rgbf000046-resize_1-target.png,1000,3.6445,4.135,0,2078,511,1002,491,1005,500,feet,,,,,1230851,1614254,46
741541,DepthScenes,duration_discrimination,discrim_jsons/d0_rotated.json,http://54.173.234.186/DepthDuration/depth_discrimination_MTurk/DepthDiscrim_HTML.html#3,3,1536,754,1536,864,6-19-2021,14-40-5,92,depth_discrimination_stimuli/002678_2014-06-13_16-15-32_094959634447_rgbf000151-resize_6/002678_2014-06-13_16-15-32_094959634447_rgbf000151-resize_6-target.png,depth_discrimination_stimuli/001011_2014-06-08_23-18-54_260595134347_rgbf000044-resize_4/001011_2014-06-08_23-18-54_260595134347_rgbf000044-resize_4-target.png,1000,2.183,2.473,1,2369,513,989,505,997,500,feet,,,,,1230851,1614254,46
741541,DepthScenes,duration_discrimination,discrim_jsons/d0_rotated.json,http://54.173.234.186/DepthDuration/depth_discrimination_MTurk/DepthDiscrim_HTML.html#3,3,1536,754,1536,864,6-19-2021,14-40-5,93,depth_discrimination_stimuli/002758_2014-06-22_19-11-20_094959634447_rgbf000128-resize_1/002758_2014-06-22_19-11-20_094959634447_rgbf000128-resize_1-target.png,depth_discrimination_stimuli/000854_2014-06-09_19-43-13_260595134347_rgbf000066-resize_0/000854_2014-06-09_19-43-13_260595134347_rgbf000066-resize_0-target.png,1000,2.555,3.068,1,2425,503,1004,503,994,498,feet,,,,,1230851,1614254,46
741541,DepthScenes,duration_discrimination,discrim_jsons/d0_rotated.json,http://54.173.234.186/DepthDuration/depth_discrimination_MTurk/DepthDiscrim_HTML.html#3,3,1536,754,1536,864,6-19-2021,14-40-5,94,depth_discrimination_stimuli/000810_2014-06-08_17-20-01_260595134347_rgbf000105-resize_0/000810_2014-06-08_17-20-01_260595134347_rgbf000105-resize_0-target.png,depth_discrimination_stimuli/000103_2014-05-14_22-01-17_260595134347_rgbf000152-resize_5/000103_2014-05-14_22-01-17_260595134347_rgbf000152-resize_5-target.png,1000,1.4865,1.993,1,1913,504,1004,494,1009,497,feet,,,,,1230851,1614254,46
741541,DepthScenes,duration_discrimination,discrim_jsons/d0_rotated.json,http://54.173.234.186/DepthDuration/depth_discrimination_MTurk/DepthDiscrim_HTML.html#3,3,1536,754,1536,864,6-19-2021,14-40-5,95,depth_discrimination_stimuli/002790_2014-06-22_19-36-35_094959634447_rgbf000074-resize_4/002790_2014-06-22_19-36-35_094959634447_rgbf000074-resize_4-target.png,depth_discrimination_stimuli/001032_2014-06-08_13-23-17_260595134347_rgbf000021-resize_3/001032_2014-06-08_13-23-17_260595134347_rgbf000021-resize_3-target.png,1000,3.512,3.2725,1,2135,513,988,515,992,494,feet,,,,,1230851,1614254,46
741541,DepthScenes,duration_discrimination,discrim_jsons/d0_rotated.json,http://54.173.234.186/DepthDuration/depth_discrimination_MTurk/DepthDiscrim_HTML.html#3,3,1536,754,1536,864,6-19-2021,14-40-5,96,depth_discrimination_stimuli/002209_2014-06-28_18-36-10_260595134347_rgbf000051-resize_1/002209_2014-06-28_18-36-10_260595134347_rgbf000051-resize_1-target.png,depth_discrimination_stimuli/001055_2014-06-08_18-45-35_260595134347_rgbf000111-resize_4/001055_2014-06-08_18-45-35_260595134347_rgbf000111-resize_4-target.png,250,2.057,2.429,0,997,511,240,500,254,504,feet,,,,,1230851,1614254,46
741541,DepthScenes,duration_discrimination,discrim_jsons/d0_rotated.json,http://54.173.234.186/DepthDuration/depth_discrimination_MTurk/DepthDiscrim_HTML.html#3,3,1536,754,1536,864,6-19-2021,14-40-5,96,,,,,,,997,511,240,500,254,504,feet,,,,,1230851,1614254,46
741541,DepthScenes,duration_discrimination,discrim_jsons/d0_rotated.json,http://54.173.234.186/DepthDuration/depth_discrimination_MTurk/DepthDiscrim_HTML.html#3,3,1519,754,1536,864,6-19-2021,14-40-5,98,,,,,,,997,511,240,500,254,504,feet,1,4,depth_discrimination_stimuli/000457_2014-06-08_16-52-43_260595134347_rgbf000199-resize_1/000457_2014-06-08_16-52-43_260595134347_rgbf000199-resize-original.jpg,8470,1230851,1614254,46
741541,DepthScenes,duration_discrimination,discrim_jsons/d0_rotated.json,http://54.173.234.186/DepthDuration/depth_discrimination_MTurk/DepthDiscrim_HTML.html#3,3,1519,754,1536,864,6-19-2021,14-40-5,99,,,,,,,997,511,240,500,254,504,feet,2,3,depth_discrimination_stimuli/003079_2014-06-15_15-18-20_094959634447_rgbf000152-resize_8/003079_2014-06-15_15-18-20_094959634447_rgbf000152-resize-original.jpg,6898,1230851,1614254,46
741541,DepthScenes,duration_discrimination,discrim_jsons/d0_rotated.json,http://54.173.234.186/DepthDuration/depth_discrimination_MTurk/DepthDiscrim_HTML.html#3,3,1519,754,1536,864,6-19-2021,14-40-5,100,,,,,,,997,511,240,500,254,504,feet,2,3,depth_discrimination_stimuli/001199_2014-06-17_16-03-48_260595134347_rgbf000077-resize_0/001199_2014-06-17_16-03-48_260595134347_rgbf000077-resize-original.jpg,6802,1230851,1614254,46
741541,DepthScenes,duration_discrimination,discrim_jsons/d0_rotated.json,http://54.173.234.186/DepthDuration/depth_discrimination_MTurk/DepthDiscrim_HTML.html#3,3,1519,754,1536,864,6-19-2021,14-40-5,101,,,,,,,997,511,240,500,254,504,feet,3,3,depth_discrimination_stimuli/002657_2014-06-13_15-29-54_094959634447_rgbf000150-resize_1/002657_2014-06-13_15-29-54_094959634447_rgbf000150-resize-original.jpg,9830,1230851,1614254,46
741541,DepthScenes,duration_discrimination,discrim_jsons/d0_rotated.json,http://54.173.234.186/DepthDuration/depth_discrimination_MTurk/DepthDiscrim_HTML.html#3,3,1519,754,1536,864,6-19-2021,14-40-5,102,,,,,,,997,511,240,500,254,504,feet,2,2,depth_discrimination_stimuli/002323_2014-06-28_20-01-54_260595134347_rgbf000051-resize_4/002323_2014-06-28_20-01-54_260595134347_rgbf000051-resize-original.jpg,8157,1230851,1614254,46
741541,DepthScenes,duration_discrimination,discrim_jsons/d0_rotated.json,http://54.173.234.186/DepthDuration/depth_discrimination_MTurk/DepthDiscrim_HTML.html#3,3,1519,754,1536,864,6-19-2021,14-40-5,103,,,,,,,997,511,240,500,254,504,feet,3,5,depth_discrimination_stimuli/001181_2014-06-17_15-50-57_260595134347_rgbf000106-resize_4/001181_2014-06-17_15-50-57_260595134347_rgbf000106-resize-original.jpg,4663,1230851,1614254,46
741541,DepthScenes,duration_discrimination,discrim_jsons/d0_rotated.json,http://54.173.234.186/DepthDuration/depth_discrimination_MTurk/DepthDiscrim_HTML.html#3,3,1519,754,1536,864,6-19-2021,14-40-5,104,,,,,,,997,511,240,500,254,504,feet,2,1,depth_discrimination_stimuli/002663_2014-06-13_15-50-26_094959634447_rgbf000075-resize_1/002663_2014-06-13_15-50-26_094959634447_rgbf000075-resize-original.jpg,6376,1230851,1614254,46
741541,DepthScenes,duration_discrimination,discrim_jsons/d0_rotated.json,http://54.173.234.186/DepthDuration/depth_discrimination_MTurk/DepthDiscrim_HTML.html#3,3,1519,754,1536,864,6-19-2021,14-40-5,105,,,,,,,997,511,240,500,254,504,feet,4,4,depth_discrimination_stimuli/000486_2014-06-09_20-47-20_260595134347_rgbf000143-resize_2/000486_2014-06-09_20-47-20_260595134347_rgbf000143-resize-original.jpg,5767,1230851,1614254,46
741541,DepthScenes,duration_discrimination,discrim_jsons/d0_rotated.json,http://54.173.234.186/DepthDuration/depth_discrimination_MTurk/DepthDiscrim_HTML.html#3,3,1519,754,1536,864,6-19-2021,14-40-5,106,,,,,,,997,511,240,500,254,504,feet,1,3,depth_discrimination_stimuli/002139_2014-06-25_21-19-37_260595134347_rgbf000124-resize_2/002139_2014-06-25_21-19-37_260595134347_rgbf000124-resize-original.jpg,4806,1230851,1614254,46
741541,DepthScenes,duration_discrimination,discrim_jsons/d0_rotated.json,http://54.173.234.186/DepthDuration/depth_discrimination_MTurk/DepthDiscrim_HTML.html#3,3,1519,754,1536,864,6-19-2021,14-40-5,107,,,,,,,997,511,240,500,254,504,feet,1,1,depth_discrimination_stimuli/001029_2014-06-08_13-17-57_260595134347_rgbf000065-resize_1/001029_2014-06-08_13-17-57_260595134347_rgbf000065-resize-original.jpg,3607,1230851,1614254,46
741541,DepthScenes,duration_discrimination,discrim_jsons/d0_rotated.json,http://54.173.234.186/DepthDuration/depth_discrimination_MTurk/DepthDiscrim_HTML.html#3,3,1519,754,1536,864,6-19-2021,14-40-5,108,,,,,,,997,511,240,500,254,504,feet,4,5,depth_discrimination_stimuli/001392_2014-06-19_16-07-59_260595134347_rgbf000046-resize_1/001392_2014-06-19_16-07-59_260595134347_rgbf000046-resize-original.jpg,5919,1230851,1614254,46
741541,DepthScenes,duration_discrimination,discrim_jsons/d0_rotated.json,http://54.173.234.186/DepthDuration/depth_discrimination_MTurk/DepthDiscrim_HTML.html#3,3,1519,754,1536,864,6-19-2021,14-40-5,109,,,,,,,997,511,240,500,254,504,feet,3,3,depth_discrimination_stimuli/000493_2014-06-09_21-01-18_260595134347_rgbf000196-resize_3/000493_2014-06-09_21-01-18_260595134347_rgbf000196-resize-original.jpg,4165,1230851,1614254,46
741541,DepthScenes,duration_discrimination,discrim_jsons/d0_rotated.json,http://54.173.234.186/DepthDuration/depth_discrimination_MTurk/DepthDiscrim_HTML.html#3,3,1519,754,1536,864,6-19-2021,14-40-5,110,,,,,,,997,511,240,500,254,504,feet,2,1,depth_discrimination_stimuli/002989_2014-06-15_12-25-03_094959634447_rgbf000150-resize_3/002989_2014-06-15_12-25-03_094959634447_rgbf000150-resize-original.jpg,3983,1230851,1614254,46
741541,DepthScenes,duration_discrimination,discrim_jsons/d0_rotated.json,http://54.173.234.186/DepthDuration/depth_discrimination_MTurk/DepthDiscrim_HTML.html#3,3,1519,754,1536,864,6-19-2021,14-40-5,111,,,,,,,997,511,240,500,254,504,feet,4,3,depth_discrimination_stimuli/000368_2014-06-09_15-53-01_260595134347_rgbf000155-resize_2/000368_2014-06-09_15-53-01_260595134347_rgbf000155-resize-original.jpg,5369,1230851,1614254,46
741541,DepthScenes,duration_discrimination,discrim_jsons/d0_rotated.json,http://54.173.234.186/DepthDuration/depth_discrimination_MTurk/DepthDiscrim_HTML.html#3,3,1519,754,1536,864,6-19-2021,14-40-5,112,,,,,,,997,511,240,500,254,504,feet,3,3,depth_discrimination_stimuli/003492_2014-05-21_15-50-55_094959634447_rgbf000828-resize_1/003492_2014-05-21_15-50-55_094959634447_rgbf000828-resize-original.jpg,3652,1230851,1614254,46
741541,DepthScenes,duration_discrimination,discrim_jsons/d0_rotated.json,http://54.173.234.186/DepthDuration/depth_discrimination_MTurk/DepthDiscrim_HTML.html#3,3,1519,754,1536,864,6-19-2021,14-40-5,113,,,,,,,997,511,240,500,254,504,feet,4,5,depth_discrimination_stimuli/000502_2014-06-08_23-02-32_260595134347_rgbf000063-resize_4/000502_2014-06-08_23-02-32_260595134347_rgbf000063-resize-original.jpg,9557,1230851,1614254,46
741541,DepthScenes,duration_discrimination,discrim_jsons/d0_rotated.json,http://54.173.234.186/DepthDuration/depth_discrimination_MTurk/DepthDiscrim_HTML.html#3,3,1519,754,1536,864,6-19-2021,14-40-5,114,,,,,,,997,511,240,500,254,504,feet,1,1,depth_discrimination_stimuli/002988_2014-06-15_12-24-20_094959634447_rgbf000150-resize_1/002988_2014-06-15_12-24-20_094959634447_rgbf000150-resize-original.jpg,3803,1230851,1614254,46
741541,DepthScenes,duration_discrimination,discrim_jsons/d0_rotated.json,http://54.173.234.186/DepthDuration/depth_discrimination_MTurk/DepthDiscrim_HTML.html#3,3,1519,754,1536,864,6-19-2021,14-40-5,115,,,,,,,997,511,240,500,254,504,feet,4,2,depth_discrimination_stimuli/002445_2014-06-28_20-32-16_260595134347_rgbf000029-resize_4/002445_2014-06-28_20-32-16_260595134347_rgbf000029-resize-original.jpg,4704,1230851,1614254,46
741541,DepthScenes,duration_discrimination,discrim_jsons/d0_rotated.json,http://54.173.234.186/DepthDuration/depth_discrimination_MTurk/DepthDiscrim_HTML.html#3,3,1519,754,1536,864,6-19-2021,14-40-5,116,,,,,,,997,511,240,500,254,504,feet,2,2,depth_discrimination_stimuli/000742_2014-06-08_18-48-09_260595134347_rgbf000164-resize_4/000742_2014-06-08_18-48-09_260595134347_rgbf000164-resize-original.jpg,4086,1230851,1614254,46
741541,DepthScenes,duration_discrimination,discrim_jsons/d0_rotated.json,http://54.173.234.186/DepthDuration/depth_discrimination_MTurk/DepthDiscrim_HTML.html#3,3,1519,754,1536,864,6-19-2021,14-40-5,117,,,,,,,997,511,240,500,254,504,feet,2,1,depth_discrimination_stimuli/001056_2014-06-08_18-46-44_260595134347_rgbf000068-resize_0/001056_2014-06-08_18-46-44_260595134347_rgbf000068-resize-original.jpg,2865,1230851,1614254,46
741541,DepthScenes,duration_discrimination,discrim_jsons/d0_rotated.json,http://54.173.234.186/DepthDuration/depth_discrimination_MTurk/DepthDiscrim_HTML.html#3,3,1519,754,1536,864,6-19-2021,14-40-5,118,,,,,,,997,511,240,500,254,504,feet,2,4,depth_discrimination_stimuli/001244_2014-06-17_16-47-45_260595134347_rgbf000030-resize_4/001244_2014-06-17_16-47-45_260595134347_rgbf000030-resize-original.jpg,6210,1230851,1614254,46
741541,DepthScenes,duration_discrimination,discrim_jsons/d0_rotated.json,http://54.173.234.186/DepthDuration/depth_discrimination_MTurk/DepthDiscrim_HTML.html#3,3,1519,754,1536,864,6-19-2021,14-40-5,119,,,,,,,997,511,240,500,254,504,feet,4,3,depth_discrimination_stimuli/003010_2014-06-15_12-54-35_094959634447_rgbf000112-resize_0/003010_2014-06-15_12-54-35_094959634447_rgbf000112-resize-original.jpg,6168,1230851,1614254,46
741541,DepthScenes,duration_discrimination,discrim_jsons/d0_rotated.json,http://54.173.234.186/DepthDuration/depth_discrimination_MTurk/DepthDiscrim_HTML.html#3,3,1519,754,1536,864,6-19-2021,14-40-5,120,,,,,,,997,511,240,500,254,504,feet,2,5,depth_discrimination_stimuli/002725_2014-06-22_11-47-51_094959634447_rgbf000070-resize_1/002725_2014-06-22_11-47-51_094959634447_rgbf000070-resize-original.jpg,6625,1230851,1614254,46
741541,DepthScenes,duration_discrimination,discrim_jsons/d0_rotated.json,http://54.173.234.186/DepthDuration/depth_discrimination_MTurk/DepthDiscrim_HTML.html#3,3,1519,754,1536,864,6-19-2021,14-40-5,121,,,,,,,997,511,240,500,254,504,feet,1,2,depth_discrimination_stimuli/001158_2014-06-17_15-32-16_260595134347_rgbf000138-resize_2/001158_2014-06-17_15-32-16_260595134347_rgbf000138-resize-original.jpg,5536,1230851,1614254,46
741541,DepthScenes,duration_discrimination,discrim_jsons/d0_rotated.json,http://54.173.234.186/DepthDuration/depth_discrimination_MTurk/DepthDiscrim_HTML.html#3,3,1519,754,1536,864,6-19-2021,14-40-5,122,,,,,,,997,511,240,500,254,504,feet,4,2,depth_discrimination_stimuli/003081_2014-06-15_15-19-16_094959634447_rgbf000150-resize_1/003081_2014-06-15_15-19-16_094959634447_rgbf000150-resize-original.jpg,9950,1230851,1614254,46
741541,DepthScenes,duration_discrimination,discrim_jsons/d0_rotated.json,http://54.173.234.186/DepthDuration/depth_discrimination_MTurk/DepthDiscrim_HTML.html#3,3,1519,754,1536,864,6-19-2021,14-40-5,123,,,,,,,997,511,240,500,254,504,feet,4,2,depth_discrimination_stimuli/002660_2014-06-13_15-44-18_094959634447_rgbf001878-resize_2/002660_2014-06-13_15-44-18_094959634447_rgbf001878-resize-original.jpg,6562,1230851,1614254,46
741541,DepthScenes,duration_discrimination,discrim_jsons/d0_rotated.json,http://54.173.234.186/DepthDuration/depth_discrimination_MTurk/DepthDiscrim_HTML.html#3,3,1519,754,1536,864,6-19-2021,14-40-5,124,,,,,,,997,511,240,500,254,504,feet,4,2,depth_discrimination_stimuli/002545_2014-06-24_13-38-53_094959634447_rgbf000080-resize_4/002545_2014-06-24_13-38-53_094959634447_rgbf000080-resize-original.jpg,6170,1230851,1614254,46
741541,DepthScenes,duration_discrimination,discrim_jsons/d0_rotated.json,http://54.173.234.186/DepthDuration/depth_discrimination_MTurk/DepthDiscrim_HTML.html#3,3,1519,754,1536,864,6-19-2021,14-40-5,125,,,,,,,997,511,240,500,254,504,feet,3,2,depth_discrimination_stimuli/000414_2014-06-04_19-49-13_260595134347_rgbf000044-resize_0/000414_2014-06-04_19-49-13_260595134347_rgbf000044-resize-original.jpg,6111,1230851,1614254,46
741541,DepthScenes,duration_discrimination,discrim_jsons/d0_rotated.json,http://54.173.234.186/DepthDuration/depth_discrimination_MTurk/DepthDiscrim_HTML.html#3,3,1519,754,1536,864,6-19-2021,14-40-5,126,,,,,,,997,511,240,500,254,504,feet,5,5,depth_discrimination_stimuli/003083_2014-06-15_15-21-03_094959634447_rgbf000063-resize_1/003083_2014-06-15_15-21-03_094959634447_rgbf000063-resize-original.jpg,6376,1230851,1614254,46
741541,DepthScenes,duration_discrimination,discrim_jsons/d0_rotated.json,http://54.173.234.186/DepthDuration/depth_discrimination_MTurk/DepthDiscrim_HTML.html#3,3,1519,754,1536,864,6-19-2021,14-40-5,127,,,,,,,997,511,240,500,254,504,feet,2,3,depth_discrimination_stimuli/000734_2014-06-08_17-39-11_260595134347_rgbf000128-resize_2/000734_2014-06-08_17-39-11_260595134347_rgbf000128-resize-original.jpg,4565,1230851,1614254,46
741541,DepthScenes,duration_discrimination,discrim_jsons/d0_rotated.json,http://54.173.234.186/DepthDuration/depth_discrimination_MTurk/DepthDiscrim_HTML.html#3,3,1519,754,1536,864,6-19-2021,14-40-5,128,,,,,,,997,511,240,500,254,504,feet,4,1,depth_discrimination_stimuli/003546_2014-05-22_15-48-53_094959634447_rgbf004816-resize_3/003546_2014-05-22_15-48-53_094959634447_rgbf004816-resize-original.jpg,5747,1230851,1614254,46
741541,DepthScenes,duration_discrimination,discrim_jsons/d0_rotated.json,http://54.173.234.186/DepthDuration/depth_discrimination_MTurk/DepthDiscrim_HTML.html#3,3,1519,754,1536,864,6-19-2021,14-40-5,129,,,,,,,997,511,240,500,254,504,feet,4,4,depth_discrimination_stimuli/002414_2014-06-28_20-24-58_260595134347_rgbf000067-resize_4/002414_2014-06-28_20-24-58_260595134347_rgbf000067-resize-original.jpg,5615,1230851,1614254,46
741541,DepthScenes,duration_discrimination,discrim_jsons/d0_rotated.json,http://54.173.234.186/DepthDuration/depth_discrimination_MTurk/DepthDiscrim_HTML.html#3,3,1519,754,1536,864,6-19-2021,14-40-5,130,,,,,,,997,511,240,500,254,504,feet,2,3,depth_discrimination_stimuli/003495_2014-05-21_16-01-51_094959634447_rgbf000100-resize_3/003495_2014-05-21_16-01-51_094959634447_rgbf000100-resize-original.jpg,5184,1230851,1614254,46
741541,DepthScenes,duration_discrimination,discrim_jsons/d0_rotated.json,http://54.173.234.186/DepthDuration/depth_discrimination_MTurk/DepthDiscrim_HTML.html#3,3,1519,754,1536,864,6-19-2021,14-40-5,131,,,,,,,997,511,240,500,254,504,feet,4,1,depth_discrimination_stimuli/003069_2014-06-15_14-57-50_094959634447_rgbf000150-resize_4/003069_2014-06-15_14-57-50_094959634447_rgbf000150-resize-original.jpg,4017,1230851,1614254,46
741541,DepthScenes,duration_discrimination,discrim_jsons/d0_rotated.json,http://54.173.234.186/DepthDuration/depth_discrimination_MTurk/DepthDiscrim_HTML.html#3,3,1519,754,1536,864,6-19-2021,14-40-5,132,,,,,,,997,511,240,500,254,504,feet,4,2,depth_discrimination_stimuli/000009_2014-05-26_14-32-05_260595134347_rgbf000034-resize_3/000009_2014-05-26_14-32-05_260595134347_rgbf000034-resize-original.jpg,4161,1230851,1614254,46
741541,DepthScenes,duration_discrimination,discrim_jsons/d0_rotated.json,http://54.173.234.186/DepthDuration/depth_discrimination_MTurk/DepthDiscrim_HTML.html#3,3,1519,754,1536,864,6-19-2021,14-40-5,133,,,,,,,997,511,240,500,254,504,feet,5,5,depth_discrimination_stimuli/002375_2014-06-28_20-13-44_260595134347_rgbf000032-resize_1/002375_2014-06-28_20-13-44_260595134347_rgbf000032-resize-original.jpg,4937,1230851,1614254,46
741541,DepthScenes,duration_discrimination,discrim_jsons/d0_rotated.json,http://54.173.234.186/DepthDuration/depth_discrimination_MTurk/DepthDiscrim_HTML.html#3,3,1519,754,1536,864,6-19-2021,14-40-5,134,,,,,,,997,511,240,500,254,504,feet,4,2,depth_discrimination_stimuli/003048_2014-06-15_13-49-43_094959634447_rgbf000150-resize_1/003048_2014-06-15_13-49-43_094959634447_rgbf000150-resize-original.jpg,5432,1230851,1614254,46
741541,DepthScenes,duration_discrimination,discrim_jsons/d0_rotated.json,http://54.173.234.186/DepthDuration/depth_discrimination_MTurk/DepthDiscrim_HTML.html#3,3,1519,754,1536,864,6-19-2021,14-40-5,135,,,,,,,997,511,240,500,254,504,feet,4,5,depth_discrimination_stimuli/002103_2014-06-25_20-00-40_260595134347_rgbf000049-resize_0/002103_2014-06-25_20-00-40_260595134347_rgbf000049-resize-original.jpg,4373,1230851,1614254,46
741541,DepthScenes,duration_discrimination,discrim_jsons/d0_rotated.json,http://54.173.234.186/DepthDuration/depth_discrimination_MTurk/DepthDiscrim_HTML.html#3,3,1519,754,1536,864,6-19-2021,14-40-5,136,,,,,,,997,511,240,500,254,504,feet,4,3,depth_discrimination_stimuli/002748_2014-06-22_19-07-22_094959634447_rgbf000078-resize_1/002748_2014-06-22_19-07-22_094959634447_rgbf000078-resize-original.jpg,4358,1230851,1614254,46
741541,DepthScenes,duration_discrimination,discrim_jsons/d0_rotated.json,http://54.173.234.186/DepthDuration/depth_discrimination_MTurk/DepthDiscrim_HTML.html#3,3,1519,754,1536,864,6-19-2021,14-40-5,137,,,,,,,997,511,240,500,254,504,feet,4,2,depth_discrimination_stimuli/002209_2014-06-28_18-36-10_260595134347_rgbf000051-resize_1/002209_2014-06-28_18-36-10_260595134347_rgbf000051-resize-original.jpg,3372,1230851,1614254,46
741541,DepthScenes,duration_discrimination,discrim_jsons/d0_rotated.json,http://54.173.234.186/DepthDuration/depth_discrimination_MTurk/DepthDiscrim_HTML.html#3,3,1519,754,1536,864,6-19-2021,14-40-5,138,,,,,,,997,511,240,500,254,504,feet,5,2,depth_discrimination_stimuli/000522_2014-06-08_13-35-06_260595134347_rgbf000244-resize_1/000522_2014-06-08_13-35-06_260595134347_rgbf000244-resize-original.jpg,3462,1230851,1614254,46
741541,DepthScenes,duration_discrimination,discrim_jsons/d0_rotated.json,http://54.173.234.186/DepthDuration/depth_discrimination_MTurk/DepthDiscrim_HTML.html#3,3,1519,754,1536,864,6-19-2021,14-40-5,139,,,,,,,997,511,240,500,254,504,feet,5,2,depth_discrimination_stimuli/002305_2014-06-28_19-56-50_260595134347_rgbf000102-resize_7/002305_2014-06-28_19-56-50_260595134347_rgbf000102-resize-original.jpg,5534,1230851,1614254,46
741541,DepthScenes,duration_discrimination,discrim_jsons/d0_rotated.json,http://54.173.234.186/DepthDuration/depth_discrimination_MTurk/DepthDiscrim_HTML.html#3,3,1519,754,1536,864,6-19-2021,14-40-5,140,,,,,,,997,511,240,500,254,504,feet,3,3,depth_discrimination_stimuli/000906_2014-06-08_13-35-43_260595134347_rgbf000155-resize_1/000906_2014-06-08_13-35-43_260595134347_rgbf000155-resize-original.jpg,3886,1230851,1614254,46
741541,DepthScenes,duration_discrimination,discrim_jsons/d0_rotated.json,http://54.173.234.186/DepthDuration/depth_discrimination_MTurk/DepthDiscrim_HTML.html#3,3,1519,754,1536,864,6-19-2021,14-40-5,141,,,,,,,997,511,240,500,254,504,feet,5,5,depth_discrimination_stimuli/002600_2014-06-24_14-27-04_094959634447_rgbf000074-resize_2/002600_2014-06-24_14-27-04_094959634447_rgbf000074-resize-original.jpg,4030,1230851,1614254,46
741541,DepthScenes,duration_discrimination,discrim_jsons/d0_rotated.json,http://54.173.234.186/DepthDuration/depth_discrimination_MTurk/DepthDiscrim_HTML.html#3,3,1519,754,1536,864,6-19-2021,14-40-5,142,,,,,,,997,511,240,500,254,504,feet,1,1,depth_discrimination_stimuli/001289_2014-06-16_16-25-52_260595134347_rgbf000067-resize_1/001289_2014-06-16_16-25-52_260595134347_rgbf000067-resize-original.jpg,2724,1230851,1614254,46
741541,DepthScenes,duration_discrimination,discrim_jsons/d0_rotated.json,http://54.173.234.186/DepthDuration/depth_discrimination_MTurk/DepthDiscrim_HTML.html#3,3,1519,754,1536,864,6-19-2021,14-40-5,143,,,,,,,997,511,240,500,254,504,feet,5,5,depth_discrimination_stimuli/003129_2014-05-12_10-48-10_094959634447_rgbf000100-resize_0/003129_2014-05-12_10-48-10_094959634447_rgbf000100-resize-original.jpg,3276,1230851,1614254,46
741541,DepthScenes,duration_discrimination,discrim_jsons/d0_rotated.json,http://54.173.234.186/DepthDuration/depth_discrimination_MTurk/DepthDiscrim_HTML.html#3,3,1519,754,1536,864,6-19-2021,14-40-5,144,,,,,,,997,511,240,500,254,504,feet,2,2,depth_discrimination_stimuli/001094_2014-06-15_17-36-00_260595134347_rgbf000205-resize_0/001094_2014-06-15_17-36-00_260595134347_rgbf000205-resize-original.jpg,4134,1230851,1614254,46
741541,DepthScenes,duration_discrimination,discrim_jsons/d0_rotated.json,http://54.173.234.186/DepthDuration/depth_discrimination_MTurk/DepthDiscrim_HTML.html#3,3,1519,754,1536,864,6-19-2021,14-40-5,145,,,,,,,997,511,240,500,254,504,feet,3,3,depth_discrimination_stimuli/001175_2014-06-17_15-45-55_260595134347_rgbf000129-resize_4/001175_2014-06-17_15-45-55_260595134347_rgbf000129-resize-original.jpg,4262,1230851,1614254,46
741541,DepthScenes,duration_discrimination,discrim_jsons/d0_rotated.json,http://54.173.234.186/DepthDuration/depth_discrimination_MTurk/DepthDiscrim_HTML.html#3,3,1519,754,1536,864,6-19-2021,14-40-5,146,,,,,,,997,511,240,500,254,504,feet,2,2,depth_discrimination_stimuli/001164_2014-06-17_15-35-46_260595134347_rgbf000085-resize_3/001164_2014-06-17_15-35-46_260595134347_rgbf000085-resize-original.jpg,4584,1230851,1614254,46
741541,DepthScenes,duration_discrimination,discrim_jsons/d0_rotated.json,http://54.173.234.186/DepthDuration/depth_discrimination_MTurk/DepthDiscrim_HTML.html#3,3,1519,754,1536,864,6-19-2021,14-40-5,147,,,,,,,997,511,240,500,254,504,feet,1,1,depth_discrimination_stimuli/002875_2014-06-01_15-19-00_094959634447_rgbf000151-resize_1/002875_2014-06-01_15-19-00_094959634447_rgbf000151-resize-original.jpg,3036,1230851,1614254,46
741541,DepthScenes,duration_discrimination,discrim_jsons/d0_rotated.json,http://54.173.234.186/DepthDuration/depth_discrimination_MTurk/DepthDiscrim_HTML.html#3,3,1519,754,1536,864,6-19-2021,14-40-5,148,,,,,,,997,511,240,500,254,504,feet,4,5,depth_discrimination_stimuli/000927_2014-06-09_16-32-30_260595134347_rgbf000123-resize_3/000927_2014-06-09_16-32-30_260595134347_rgbf000123-resize-original.jpg,3494,1230851,1614254,46
741541,DepthScenes,duration_discrimination,discrim_jsons/d0_rotated.json,http://54.173.234.186/DepthDuration/depth_discrimination_MTurk/DepthDiscrim_HTML.html#3,3,1519,754,1536,864,6-19-2021,14-40-5,149,,,,,,,997,511,240,500,254,504,feet,3,2,depth_discrimination_stimuli/003092_2014-06-24_21-01-49_094959634447_rgbf000049-resize_2/003092_2014-06-24_21-01-49_094959634447_rgbf000049-resize-original.jpg,3428,1230851,1614254,46
741541,DepthScenes,duration_discrimination,discrim_jsons/d0_rotated.json,http://54.173.234.186/DepthDuration/depth_discrimination_MTurk/DepthDiscrim_HTML.html#3,3,1519,754,1536,864,6-19-2021,14-40-5,150,,,,,,,997,511,240,500,254,504,feet,4,4,depth_discrimination_stimuli/003423_2014-05-21_10-23-26_094959634447_rgbf002665-resize_2/003423_2014-05-21_10-23-26_094959634447_rgbf002665-resize-original.jpg,3806,1230851,1614254,46
741541,DepthScenes,duration_discrimination,discrim_jsons/d0_rotated.json,http://54.173.234.186/DepthDuration/depth_discrimination_MTurk/DepthDiscrim_HTML.html#3,3,1519,754,1536,864,6-19-2021,14-40-5,151,,,,,,,997,511,240,500,254,504,feet,2,1,depth_discrimination_stimuli/000677_2014-06-08_23-10-32_260595134347_rgbf000158-resize_6/000677_2014-06-08_23-10-32_260595134347_rgbf000158-resize-original.jpg,3933,1230851,1614254,46
741541,DepthScenes,duration_discrimination,discrim_jsons/d0_rotated.json,http://54.173.234.186/DepthDuration/depth_discrimination_MTurk/DepthDiscrim_HTML.html#3,3,1519,754,1536,864,6-19-2021,14-40-5,152,,,,,,,997,511,240,500,254,504,feet,4,4,depth_discrimination_stimuli/001570_2014-06-20_17-21-09_260595134347_rgbf000135-resize_4/001570_2014-06-20_17-21-09_260595134347_rgbf000135-resize-original.jpg,5082,1230851,1614254,46
741541,DepthScenes,duration_discrimination,discrim_jsons/d0_rotated.json,http://54.173.234.186/DepthDuration/depth_discrimination_MTurk/DepthDiscrim_HTML.html#3,3,1519,754,1536,864,6-19-2021,14-40-5,153,,,,,,,997,511,240,500,254,504,feet,4,1,scene_property_catch_stimuli/sun_bpzzatthlcapxzol.jpg,3468,1230851,1614254,46
741541,DepthScenes,duration_discrimination,discrim_jsons/d0_rotated.json,http://54.173.234.186/DepthDuration/depth_discrimination_MTurk/DepthDiscrim_HTML.html#3,3,1519,754,1536,864,6-19-2021,14-40-5,154,,,,,,,997,511,240,500,254,504,feet,4,3,depth_discrimination_stimuli/000505_2014-06-08_23-03-23_260595134347_rgbf000091-resize_0/000505_2014-06-08_23-03-23_260595134347_rgbf000091-resize-original.jpg,3316,1230851,1614254,46
741541,DepthScenes,duration_discrimination,discrim_jsons/d0_rotated.json,http://54.173.234.186/DepthDuration/depth_discrimination_MTurk/DepthDiscrim_HTML.html#3,3,1519,754,1536,864,6-19-2021,14-40-5,155,,,,,,,997,511,240,500,254,504,feet,5,2,depth_discrimination_stimuli/001133_2014-06-17_14-49-16_260595134347_rgbf000100-resize_0/001133_2014-06-17_14-49-16_260595134347_rgbf000100-resize-original.jpg,4326,1230851,1614254,46
741541,DepthScenes,duration_discrimination,discrim_jsons/d0_rotated.json,http://54.173.234.186/DepthDuration/depth_discrimination_MTurk/DepthDiscrim_HTML.html#3,3,1519,754,1536,864,6-19-2021,14-40-5,156,,,,,,,997,511,240,500,254,504,feet,5,4,depth_discrimination_stimuli/001052_2014-06-08_18-24-54_260595134347_rgbf000130-resize_1/001052_2014-06-08_18-24-54_260595134347_rgbf000130-resize-original.jpg,5720,1230851,1614254,46
741541,DepthScenes,duration_discrimination,discrim_jsons/d0_rotated.json,http://54.173.234.186/DepthDuration/depth_discrimination_MTurk/DepthDiscrim_HTML.html#3,3,1519,754,1536,864,6-19-2021,14-40-5,157,,,,,,,997,511,240,500,254,504,feet,4,1,depth_discrimination_stimuli/000447_2014-06-08_16-15-46_260595134347_rgbf000130-resize_1/000447_2014-06-08_16-15-46_260595134347_rgbf000130-resize-original.jpg,3798,1230851,1614254,46
741541,DepthScenes,duration_discrimination,discrim_jsons/d0_rotated.json,http://54.173.234.186/DepthDuration/depth_discrimination_MTurk/DepthDiscrim_HTML.html#3,3,1519,754,1536,864,6-19-2021,14-40-5,158,,,,,,,997,511,240,500,254,504,feet,4,1,depth_discrimination_stimuli/002344_2014-06-28_20-06-29_260595134347_rgbf000030-resize_1/002344_2014-06-28_20-06-29_260595134347_rgbf000030-resize-original.jpg,4774,1230851,1614254,46
741541,DepthScenes,duration_discrimination,discrim_jsons/d0_rotated.json,http://54.173.234.186/DepthDuration/depth_discrimination_MTurk/DepthDiscrim_HTML.html#3,3,1519,754,1536,864,6-19-2021,14-40-5,159,,,,,,,997,511,240,500,254,504,feet,5,2,depth_discrimination_stimuli/001724_2014-06-26_19-28-50_260595134347_rgbf000037-resize_7/001724_2014-06-26_19-28-50_260595134347_rgbf000037-resize-original.jpg,5882,1230851,1614254,46
741541,DepthScenes,duration_discrimination,discrim_jsons/d0_rotated.json,http://54.173.234.186/DepthDuration/depth_discrimination_MTurk/DepthDiscrim_HTML.html#3,3,1519,754,1536,864,6-19-2021,14-40-5,160,,,,,,,997,511,240,500,254,504,feet,2,2,depth_discrimination_stimuli/000682_2014-06-08_23-14-58_260595134347_rgbf000041-resize_5/000682_2014-06-08_23-14-58_260595134347_rgbf000041-resize-original.jpg,5173,1230851,1614254,46
741541,DepthScenes,duration_discrimination,discrim_jsons/d0_rotated.json,http://54.173.234.186/DepthDuration/depth_discrimination_MTurk/DepthDiscrim_HTML.html#3,3,1519,754,1536,864,6-19-2021,14-40-5,161,,,,,,,997,511,240,500,254,504,feet,2,4,depth_discrimination_stimuli/001618_2014-06-20_11-37-31_260595134347_rgbf000027-resize_3/001618_2014-06-20_11-37-31_260595134347_rgbf000027-resize-original.jpg,5400,1230851,1614254,46
741541,DepthScenes,duration_discrimination,discrim_jsons/d0_rotated.json,http://54.173.234.186/DepthDuration/depth_discrimination_MTurk/DepthDiscrim_HTML.html#3,3,1519,754,1536,864,6-19-2021,14-40-5,162,,,,,,,997,511,240,500,254,504,feet,2,2,depth_discrimination_stimuli/000878_2014-06-08_22-52-45_260595134347_rgbf000045-resize_2/000878_2014-06-08_22-52-45_260595134347_rgbf000045-resize-original.jpg,3652,1230851,1614254,46
741541,DepthScenes,duration_discrimination,discrim_jsons/d0_rotated.json,http://54.173.234.186/DepthDuration/depth_discrimination_MTurk/DepthDiscrim_HTML.html#3,3,1519,754,1536,864,6-19-2021,14-40-5,163,,,,,,,997,511,240,500,254,504,feet,4,2,depth_discrimination_stimuli/002964_2014-06-08_17-46-11_094959634447_rgbf000091-resize_4/002964_2014-06-08_17-46-11_094959634447_rgbf000091-resize-original.jpg,4632,1230851,1614254,46
741541,DepthScenes,duration_discrimination,discrim_jsons/d0_rotated.json,http://54.173.234.186/DepthDuration/depth_discrimination_MTurk/DepthDiscrim_HTML.html#3,3,1519,754,1536,864,6-19-2021,14-40-5,164,,,,,,,997,511,240,500,254,504,feet,4,2,depth_discrimination_stimuli/000542_2014-06-08_18-27-08_260595134347_rgbf000118-resize_1/000542_2014-06-08_18-27-08_260595134347_rgbf000118-resize-original.jpg,3291,1230851,1614254,46
741541,DepthScenes,duration_discrimination,discrim_jsons/d0_rotated.json,http://54.173.234.186/DepthDuration/depth_discrimination_MTurk/DepthDiscrim_HTML.html#3,3,1519,754,1536,864,6-19-2021,14-40-5,165,,,,,,,997,511,240,500,254,504,feet,4,1,depth_discrimination_stimuli/001066_2014-06-08_22-03-20_260595134347_rgbf000066-resize_4/001066_2014-06-08_22-03-20_260595134347_rgbf000066-resize-original.jpg,4390,1230851,1614254,46
741541,DepthScenes,duration_discrimination,discrim_jsons/d0_rotated.json,http://54.173.234.186/DepthDuration/depth_discrimination_MTurk/DepthDiscrim_HTML.html#3,3,1519,754,1536,864,6-19-2021,14-40-5,166,,,,,,,997,511,240,500,254,504,feet,5,3,depth_discrimination_stimuli/002467_2014-06-28_20-38-07_260595134347_rgbf000026-resize_2/002467_2014-06-28_20-38-07_260595134347_rgbf000026-resize-original.jpg,3541,1230851,1614254,46
741541,DepthScenes,duration_discrimination,discrim_jsons/d0_rotated.json,http://54.173.234.186/DepthDuration/depth_discrimination_MTurk/DepthDiscrim_HTML.html#3,3,1519,754,1536,864,6-19-2021,14-40-5,167,,,,,,,997,511,240,500,254,504,feet,3,2,depth_discrimination_stimuli/000635_2014-06-08_16-38-42_260595134347_rgbf000106-resize_1/000635_2014-06-08_16-38-42_260595134347_rgbf000106-resize-original.jpg,4886,1230851,1614254,46
741541,DepthScenes,duration_discrimination,discrim_jsons/d0_rotated.json,http://54.173.234.186/DepthDuration/depth_discrimination_MTurk/DepthDiscrim_HTML.html#3,3,1519,754,1536,864,6-19-2021,14-40-5,168,,,,,,,997,511,240,500,254,504,feet,4,4,depth_discrimination_stimuli/001167_2014-06-17_15-38-07_260595134347_rgbf000108-resize_0/001167_2014-06-17_15-38-07_260595134347_rgbf000108-resize-original.jpg,3091,1230851,1614254,46
741541,DepthScenes,duration_discrimination,discrim_jsons/d0_rotated.json,http://54.173.234.186/DepthDuration/depth_discrimination_MTurk/DepthDiscrim_HTML.html#3,3,1519,754,1536,864,6-19-2021,14-40-5,169,,,,,,,997,511,240,500,254,504,feet,4,4,depth_discrimination_stimuli/001555_2014-06-20_17-12-10_260595134347_rgbf000065-resize_4/001555_2014-06-20_17-12-10_260595134347_rgbf000065-resize-original.jpg,3351,1230851,1614254,46
741541,DepthScenes,duration_discrimination,discrim_jsons/d0_rotated.json,http://54.173.234.186/DepthDuration/depth_discrimination_MTurk/DepthDiscrim_HTML.html#3,3,1519,754,1536,864,6-19-2021,14-40-5,170,,,,,,,997,511,240,500,254,504,feet,3,5,depth_discrimination_stimuli/001110_2014-06-15_17-25-28_260595134347_rgbf000150-resize_1/001110_2014-06-15_17-25-28_260595134347_rgbf000150-resize-original.jpg,3933,1230851,1614254,46
741541,DepthScenes,duration_discrimination,discrim_jsons/d0_rotated.json,http://54.173.234.186/DepthDuration/depth_discrimination_MTurk/DepthDiscrim_HTML.html#3,3,1519,754,1536,864,6-19-2021,14-40-5,171,,,,,,,997,511,240,500,254,504,feet,2,5,depth_discrimination_stimuli/000709_2014-06-08_13-51-55_260595134347_rgbf000068-resize_3/000709_2014-06-08_13-51-55_260595134347_rgbf000068-resize-original.jpg,3686,1230851,1614254,46
741541,DepthScenes,duration_discrimination,discrim_jsons/d0_rotated.json,http://54.173.234.186/DepthDuration/depth_discrimination_MTurk/DepthDiscrim_HTML.html#3,3,1519,754,1536,864,6-19-2021,14-40-5,172,,,,,,,997,511,240,500,254,504,feet,2,1,depth_discrimination_stimuli/000866_2014-06-09_20-45-42_260595134347_rgbf000139-resize_1/000866_2014-06-09_20-45-42_260595134347_rgbf000139-resize-original.jpg,3812,1230851,1614254,46
741541,DepthScenes,duration_discrimination,discrim_jsons/d0_rotated.json,http://54.173.234.186/DepthDuration/depth_discrimination_MTurk/DepthDiscrim_HTML.html#3,3,1519,754,1536,864,6-19-2021,14-40-5,173,,,,,,,997,511,240,500,254,504,feet,2,1,depth_discrimination_stimuli/002788_2014-06-22_19-36-03_094959634447_rgbf000088-resize_2/002788_2014-06-22_19-36-03_094959634447_rgbf000088-resize-original.jpg,2436,1230851,1614254,46
741541,DepthScenes,duration_discrimination,discrim_jsons/d0_rotated.json,http://54.173.234.186/DepthDuration/depth_discrimination_MTurk/DepthDiscrim_HTML.html#3,3,1519,754,1536,864,6-19-2021,14-40-5,174,,,,,,,997,511,240,500,254,504,feet,3,1,depth_discrimination_stimuli/000740_2014-06-08_18-46-23_260595134347_rgbf000049-resize_6/000740_2014-06-08_18-46-23_260595134347_rgbf000049-resize-original.jpg,4530,1230851,1614254,46
741541,DepthScenes,duration_discrimination,discrim_jsons/d0_rotated.json,http://54.173.234.186/DepthDuration/depth_discrimination_MTurk/DepthDiscrim_HTML.html#3,3,1519,754,1536,864,6-19-2021,14-40-5,175,,,,,,,997,511,240,500,254,504,feet,3,3,depth_discrimination_stimuli/001059_2014-06-08_21-53-27_260595134347_rgbf000061-resize_4/001059_2014-06-08_21-53-27_260595134347_rgbf000061-resize-original.jpg,3610,1230851,1614254,46
741541,DepthScenes,duration_discrimination,discrim_jsons/d0_rotated.json,http://54.173.234.186/DepthDuration/depth_discrimination_MTurk/DepthDiscrim_HTML.html#3,3,1519,754,1536,864,6-19-2021,14-40-5,176,,,,,,,997,511,240,500,254,504,feet,5,2,depth_discrimination_stimuli/000773_2014-06-08_22-24-54_260595134347_rgbf000093-resize_1/000773_2014-06-08_22-24-54_260595134347_rgbf000093-resize-original.jpg,3148,1230851,1614254,46
741541,DepthScenes,duration_discrimination,discrim_jsons/d0_rotated.json,http://54.173.234.186/DepthDuration/depth_discrimination_MTurk/DepthDiscrim_HTML.html#3,3,1519,754,1536,864,6-19-2021,14-40-5,177,,,,,,,997,511,240,500,254,504,feet,3,3,depth_discrimination_stimuli/000483_2014-06-09_20-41-45_260595134347_rgbf000116-resize_4/000483_2014-06-09_20-41-45_260595134347_rgbf000116-resize-original.jpg,4406,1230851,1614254,46
741541,DepthScenes,duration_discrimination,discrim_jsons/d0_rotated.json,http://54.173.234.186/DepthDuration/depth_discrimination_MTurk/DepthDiscrim_HTML.html#3,3,1519,754,1536,864,6-19-2021,14-40-5,178,,,,,,,997,511,240,500,254,504,feet,4,3,depth_discrimination_stimuli/000749_2014-06-08_21-55-06_260595134347_rgbf000070-resize_2/000749_2014-06-08_21-55-06_260595134347_rgbf000070-resize-original.jpg,3630,1230851,1614254,46
741541,DepthScenes,duration_discrimination,discrim_jsons/d0_rotated.json,http://54.173.234.186/DepthDuration/depth_discrimination_MTurk/DepthDiscrim_HTML.html#3,3,1519,754,1536,864,6-19-2021,14-40-5,179,,,,,,,997,511,240,500,254,504,feet,3,2,depth_discrimination_stimuli/002639_2014-06-24_14-51-37_094959634447_rgbf000074-resize_4/002639_2014-06-24_14-51-37_094959634447_rgbf000074-resize-original.jpg,4262,1230851,1614254,46
741541,DepthScenes,duration_discrimination,discrim_jsons/d0_rotated.json,http://54.173.234.186/DepthDuration/depth_discrimination_MTurk/DepthDiscrim_HTML.html#3,3,1519,754,1536,864,6-19-2021,14-40-5,180,,,,,,,997,511,240,500,254,504,feet,3,3,depth_discrimination_stimuli/002131_2014-06-25_21-12-01_260595134347_rgbf000083-resize_0/002131_2014-06-25_21-12-01_260595134347_rgbf000083-resize-original.jpg,3188,1230851,1614254,46
741541,DepthScenes,duration_discrimination,discrim_jsons/d0_rotated.json,http://54.173.234.186/DepthDuration/depth_discrimination_MTurk/DepthDiscrim_HTML.html#3,3,1519,754,1536,864,6-19-2021,14-40-5,181,,,,,,,997,511,240,500,254,504,feet,2,2,depth_discrimination_stimuli/001150_2014-06-17_15-27-34_260595134347_rgbf000108-resize_2/001150_2014-06-17_15-27-34_260595134347_rgbf000108-resize-original.jpg,2932,1230851,1614254,46
741541,DepthScenes,duration_discrimination,discrim_jsons/d0_rotated.json,http://54.173.234.186/DepthDuration/depth_discrimination_MTurk/DepthDiscrim_HTML.html#3,3,1519,754,1536,864,6-19-2021,14-40-5,182,,,,,,,997,511,240,500,254,504,feet,2,2,depth_discrimination_stimuli/001148_2014-06-17_15-26-42_260595134347_rgbf000129-resize_0/001148_2014-06-17_15-26-42_260595134347_rgbf000129-resize-original.jpg,2820,1230851,1614254,46
741541,DepthScenes,duration_discrimination,discrim_jsons/d0_rotated.json,http://54.173.234.186/DepthDuration/depth_discrimination_MTurk/DepthDiscrim_HTML.html#3,3,1519,754,1536,864,6-19-2021,14-40-5,183,,,,,,,997,511,240,500,254,504,feet,4,3,depth_discrimination_stimuli/001584_2014-06-20_11-07-43_260595134347_rgbf000002-resize_1/001584_2014-06-20_11-07-43_260595134347_rgbf000002-resize-original.jpg,3832,1230851,1614254,46
741541,DepthScenes,duration_discrimination,discrim_jsons/d0_rotated.json,http://54.173.234.186/DepthDuration/depth_discrimination_MTurk/DepthDiscrim_HTML.html#3,3,1519,754,1536,864,6-19-2021,14-40-5,184,,,,,,,997,511,240,500,254,504,feet,3,1,depth_discrimination_stimuli/002630_2014-06-24_14-47-50_094959634447_rgbf000055-resize_1/002630_2014-06-24_14-47-50_094959634447_rgbf000055-resize-original.jpg,2964,1230851,1614254,46
741541,DepthScenes,duration_discrimination,discrim_jsons/d0_rotated.json,http://54.173.234.186/DepthDuration/depth_discrimination_MTurk/DepthDiscrim_HTML.html#3,3,1519,754,1536,864,6-19-2021,14-40-5,185,,,,,,,997,511,240,500,254,504,feet,4,5,depth_discrimination_stimuli/002905_2014-06-03_18-04-43_094959634447_rgbf000151-resize_2/002905_2014-06-03_18-04-43_094959634447_rgbf000151-resize-original.jpg,4301,1230851,1614254,46
741541,DepthScenes,duration_discrimination,discrim_jsons/d0_rotated.json,http://54.173.234.186/DepthDuration/depth_discrimination_MTurk/DepthDiscrim_HTML.html#3,3,1519,754,1536,864,6-19-2021,14-40-5,186,,,,,,,997,511,240,500,254,504,feet,3,3,depth_discrimination_stimuli/000830_2014-06-04_19-49-31_260595134347_rgbf000096-resize_2/000830_2014-06-04_19-49-31_260595134347_rgbf000096-resize-original.jpg,3789,1230851,1614254,46
741541,DepthScenes,duration_discrimination,discrim_jsons/d0_rotated.json,http://54.173.234.186/DepthDuration/depth_discrimination_MTurk/DepthDiscrim_HTML.html#3,3,1519,754,1536,864,6-19-2021,14-40-5,187,,,,,,,997,511,240,500,254,504,feet,4,4,depth_discrimination_stimuli/001810_2014-06-26_20-51-35_260595134347_rgbf000040-resize_3/001810_2014-06-26_20-51-35_260595134347_rgbf000040-resize-original.jpg,3911,1230851,1614254,46
741541,DepthScenes,duration_discrimination,discrim_jsons/d0_rotated.json,http://54.173.234.186/DepthDuration/depth_discrimination_MTurk/DepthDiscrim_HTML.html#3,3,1519,754,1536,864,6-19-2021,14-40-5,188,,,,,,,997,511,240,500,254,504,feet,3,2,depth_discrimination_stimuli/000780_2014-06-08_22-28-29_260595134347_rgbf000126-resize_1/000780_2014-06-08_22-28-29_260595134347_rgbf000126-resize-original.jpg,3164,1230851,1614254,46
741541,DepthScenes,duration_discrimination,discrim_jsons/d0_rotated.json,http://54.173.234.186/DepthDuration/depth_discrimination_MTurk/DepthDiscrim_HTML.html#3,3,1519,754,1536,864,6-19-2021,14-40-5,189,,,,,,,997,511,240,500,254,504,feet,3,1,depth_discrimination_stimuli/002213_2014-06-28_18-37-58_260595134347_rgbf000055-resize_1/002213_2014-06-28_18-37-58_260595134347_rgbf000055-resize-original.jpg,3451,1230851,1614254,46
741541,DepthScenes,duration_discrimination,discrim_jsons/d0_rotated.json,http://54.173.234.186/DepthDuration/depth_discrimination_MTurk/DepthDiscrim_HTML.html#3,3,1519,754,1536,864,6-19-2021,14-40-5,190,,,,,,,997,511,240,500,254,504,feet,2,2,depth_discrimination_stimuli/001011_2014-06-08_23-18-54_260595134347_rgbf000044-resize_4/001011_2014-06-08_23-18-54_260595134347_rgbf000044-resize-original.jpg,3151,1230851,1614254,46
741541,DepthScenes,duration_discrimination,discrim_jsons/d0_rotated.json,http://54.173.234.186/DepthDuration/depth_discrimination_MTurk/DepthDiscrim_HTML.html#3,3,1519,754,1536,864,6-19-2021,14-40-5,191,,,,,,,997,511,240,500,254,504,feet,2,2,depth_discrimination_stimuli/000854_2014-06-09_19-43-13_260595134347_rgbf000066-resize_0/000854_2014-06-09_19-43-13_260595134347_rgbf000066-resize-original.jpg,3606,1230851,1614254,46
741541,DepthScenes,duration_discrimination,discrim_jsons/d0_rotated.json,http://54.173.234.186/DepthDuration/depth_discrimination_MTurk/DepthDiscrim_HTML.html#3,3,1519,754,1536,864,6-19-2021,14-40-5,192,,,,,,,997,511,240,500,254,504,feet,3,2,depth_discrimination_stimuli/000469_2014-06-09_19-42-10_260595134347_rgbf000081-resize_1/000469_2014-06-09_19-42-10_260595134347_rgbf000081-resize-original.jpg,3203,1230851,1614254,46
741541,DepthScenes,duration_discrimination,discrim_jsons/d0_rotated.json,http://54.173.234.186/DepthDuration/depth_discrimination_MTurk/DepthDiscrim_HTML.html#3,3,1519,754,1536,864,6-19-2021,14-40-5,193,,,,,,,997,511,240,500,254,504,feet,3,1,depth_discrimination_stimuli/000436_2014-06-09_22-25-11_260595134347_rgbf000137-resize_1/000436_2014-06-09_22-25-11_260595134347_rgbf000137-resize-original.jpg,3390,1230851,1614254,46
741541,DepthScenes,duration_discrimination,discrim_jsons/d0_rotated.json,http://54.173.234.186/DepthDuration/depth_discrimination_MTurk/DepthDiscrim_HTML.html#3,3,1519,754,1536,864,6-19-2021,14-40-5,194,,,,,,,997,511,240,500,254,504,feet,3,5,depth_discrimination_stimuli/000753_2014-06-08_21-57-44_260595134347_rgbf000123-resize_3/000753_2014-06-08_21-57-44_260595134347_rgbf000123-resize-original.jpg,3828,1230851,1614254,46
741541,DepthScenes,duration_discrimination,discrim_jsons/d0_rotated.json,http://54.173.234.186/DepthDuration/depth_discrimination_MTurk/DepthDiscrim_HTML.html#3,3,1519,754,1536,864,6-19-2021,14-40-5,195,,,,,,,997,511,240,500,254,504,feet,5,4,depth_discrimination_stimuli/002118_2014-06-25_20-32-08_260595134347_rgbf000078-resize_1/002118_2014-06-25_20-32-08_260595134347_rgbf000078-resize-original.jpg,3678,1230851,1614254,46
