subjID,experimentName,versionName,sequenceName,url,selected_row,windowWidth,windowHeight,screenWidth,screenHeight,startDate,startTime,trial,stimulus_0,stimulus_1,duration,actual_depth_0,actual_depth_1,discrim_choice,trial_RT,log_fixation,log_sceneDuration1,log_mask1,log_sceneDuration2,log_mask2,unitSelection,meanDepth_rating,navigability_rating,rated_stimulus,rating_RT,experimentTime,totalTime,age
866092,DepthScenes,duration_discrimination,discrim_jsons/d0_dr.json,http://54.173.234.186/DepthDuration/depth_discrimination_MTurk/DepthDiscrim_HTML.html#1,1,1536,864,1536,864,6-19-2021,14-45-48,1,depth_discrimination_stimuli/002639_2014-06-24_14-51-37_094959634447_rgbf000074-resize_4/002639_2014-06-24_14-51-37_094959634447_rgbf000074-resize_4-target.png,depth_discrimination_stimuli/001132_2014-06-17_14-48-54_260595134347_rgbf000100-resize_2/001132_2014-06-17_14-48-54_260595134347_rgbf000100-resize_2-target.png,250,4.0375,3.753,0,1722,515,245,501,240,505,feet,,,,,2316321,2462550,43
866092,DepthScenes,duration_discrimination,discrim_jsons/d0_dr.json,http://54.173.234.186/DepthDuration/depth_discrimination_MTurk/DepthDiscrim_HTML.html#1,1,1536,864,1536,864,6-19-2021,14-45-48,2,depth_discrimination_stimuli/001100_2014-06-15_17-46-26_260595134347_rgbf000225-resize_2/001100_2014-06-15_17-46-26_260595134347_rgbf000225-resize_2-target.png,depth_discrimination_stimuli/002131_2014-06-25_21-12-01_260595134347_rgbf000083-resize_0/002131_2014-06-25_21-12-01_260595134347_rgbf000083-resize_0-target.png,250,2.24,1.7685,0,1609,513,251,489,252,496,feet,,,,,2316321,2462550,43
866092,DepthScenes,duration_discrimination,discrim_jsons/d0_dr.json,http://54.173.234.186/DepthDuration/depth_discrimination_MTurk/DepthDiscrim_HTML.html#1,1,1536,864,1536,864,6-19-2021,14-45-48,3,depth_discrimination_stimuli/002444_2014-06-28_20-32-08_260595134347_rgbf000027-resize_0/002444_2014-06-28_20-32-08_260595134347_rgbf000027-resize_0-target.png,depth_discrimination_stimuli/003048_2014-06-15_13-49-43_094959634447_rgbf000150-resize_1/003048_2014-06-15_13-49-43_094959634447_rgbf000150-resize_1-target.png,250,4.389,4.0035,1,3646,509,242,502,248,507,feet,,,,,2316321,2462550,43
866092,DepthScenes,duration_discrimination,discrim_jsons/d0_dr.json,http://54.173.234.186/DepthDuration/depth_discrimination_MTurk/DepthDiscrim_HTML.html#1,1,1536,864,1536,864,6-19-2021,14-45-48,4,depth_discrimination_stimuli/002549_2014-06-24_13-41-39_094959634447_rgbf000022-resize_3/002549_2014-06-24_13-41-39_094959634447_rgbf000022-resize_3-target.png,depth_discrimination_stimuli/002545_2014-06-24_13-38-53_094959634447_rgbf000080-resize_4/002545_2014-06-24_13-38-53_094959634447_rgbf000080-resize_4-target.png,1000,1.476,1.9205,0,2289,512,996,507,987,501,feet,,,,,2316321,2462550,43
866092,DepthScenes,duration_discrimination,discrim_jsons/d0_dr.json,http://54.173.234.186/DepthDuration/depth_discrimination_MTurk/DepthDiscrim_HTML.html#1,1,1536,864,1536,864,6-19-2021,14-45-48,5,depth_discrimination_stimuli/000454_2014-06-08_16-37-28_260595134347_rgbf000048-resize_2/000454_2014-06-08_16-37-28_260595134347_rgbf000048-resize_2-target.png,depth_discrimination_stimuli/000375_2014-06-08_11-17-29_260595134347_rgbf000133-resize_2/000375_2014-06-08_11-17-29_260595134347_rgbf000133-resize_2-target.png,1000,1.213,4.718,0,4205,513,998,499,1004,488,feet,,,,,2316321,2462550,43
866092,DepthScenes,duration_discrimination,discrim_jsons/d0_dr.json,http://54.173.234.186/DepthDuration/depth_discrimination_MTurk/DepthDiscrim_HTML.html#1,1,1536,864,1536,864,6-19-2021,14-45-48,6,depth_discrimination_stimuli/002467_2014-06-28_20-38-07_260595134347_rgbf000026-resize_2/002467_2014-06-28_20-38-07_260595134347_rgbf000026-resize_2-target.png,depth_discrimination_stimuli/001175_2014-06-17_15-45-55_260595134347_rgbf000129-resize_4/001175_2014-06-17_15-45-55_260595134347_rgbf000129-resize_4-target.png,250,4.742,4.255,0,1412,505,249,511,241,496,feet,,,,,2316321,2462550,43
866092,DepthScenes,duration_discrimination,discrim_jsons/d0_dr.json,http://54.173.234.186/DepthDuration/depth_discrimination_MTurk/DepthDiscrim_HTML.html#1,1,1536,864,1536,864,6-19-2021,14-45-48,7,depth_discrimination_stimuli/002279_2014-06-28_18-55-32_260595134347_rgbf000040-resize_5/002279_2014-06-28_18-55-32_260595134347_rgbf000040-resize_5-target.png,depth_discrimination_stimuli/002949_2014-06-26_15-57-42_094959634447_rgbf000079-resize_1/002949_2014-06-26_15-57-42_094959634447_rgbf000079-resize_1-target.png,250,1.5043333333333,1.8915,0,1328,515,243,505,251,491,feet,,,,,2316321,2462550,43
866092,DepthScenes,duration_discrimination,discrim_jsons/d0_dr.json,http://54.173.234.186/DepthDuration/depth_discrimination_MTurk/DepthDiscrim_HTML.html#1,1,1536,864,1536,864,6-19-2021,14-45-48,8,depth_discrimination_stimuli/001450_2014-06-19_17-02-03_260595134347_rgbf000203-resize_4/001450_2014-06-19_17-02-03_260595134347_rgbf000203-resize_4-target.png,depth_discrimination_stimuli/002039_2014-06-24_20-22-38_260595134347_rgbf000084-resize_1/002039_2014-06-24_20-22-38_260595134347_rgbf000084-resize_1-target.png,1000,4.0106666666667,4.408,1,2602,507,1000,504,1004,492,feet,,,,,2316321,2462550,43
866092,DepthScenes,duration_discrimination,discrim_jsons/d0_dr.json,http://54.173.234.186/DepthDuration/depth_discrimination_MTurk/DepthDiscrim_HTML.html#1,1,1536,864,1536,864,6-19-2021,14-45-48,9,depth_discrimination_stimuli/000469_2014-06-09_19-42-10_260595134347_rgbf000081-resize_1/000469_2014-06-09_19-42-10_260595134347_rgbf000081-resize_1-target.png,depth_discrimination_stimuli/002136_2014-06-25_21-18-03_260595134347_rgbf000109-resize_3/002136_2014-06-25_21-18-03_260595134347_rgbf000109-resize_3-target.png,1000,1.652,1.957,1,1565,507,997,497,1001,514,feet,,,,,2316321,2462550,43
866092,DepthScenes,duration_discrimination,discrim_jsons/d0_dr.json,http://54.173.234.186/DepthDuration/depth_discrimination_MTurk/DepthDiscrim_HTML.html#1,1,1536,864,1536,864,6-19-2021,14-45-48,10,depth_discrimination_stimuli/000635_2014-06-08_16-38-42_260595134347_rgbf000106-resize_1/000635_2014-06-08_16-38-42_260595134347_rgbf000106-resize_1-target.png,depth_discrimination_stimuli/001516_2014-06-20_16-25-09_260595134347_rgbf000076-resize_2/001516_2014-06-20_16-25-09_260595134347_rgbf000076-resize_2-target.png,250,2.074,1.7445,1,1775,501,250,508,253,503,feet,,,,,2316321,2462550,43
866092,DepthScenes,duration_discrimination,discrim_jsons/d0_dr.json,http://54.173.234.186/DepthDuration/depth_discrimination_MTurk/DepthDiscrim_HTML.html#1,1,1536,864,1536,864,6-19-2021,14-45-48,11,depth_discrimination_stimuli/002579_2014-06-24_14-08-03_094959634447_rgbf000061-resize_2/002579_2014-06-24_14-08-03_094959634447_rgbf000061-resize_2-target.png,depth_discrimination_stimuli/002468_2014-06-28_20-38-39_260595134347_rgbf000045-resize_1/002468_2014-06-28_20-38-39_260595134347_rgbf000045-resize_1-target.png,1000,2.223125,1.956,1,1574,502,1008,497,1004,490,feet,,,,,2316321,2462550,43
866092,DepthScenes,duration_discrimination,discrim_jsons/d0_dr.json,http://54.173.234.186/DepthDuration/depth_discrimination_MTurk/DepthDiscrim_HTML.html#1,1,1536,864,1536,864,6-19-2021,14-45-48,12,depth_discrimination_stimuli/000692_2014-06-08_13-09-42_260595134347_rgbf000199-resize_2/000692_2014-06-08_13-09-42_260595134347_rgbf000199-resize_2-target.png,depth_discrimination_stimuli/002103_2014-06-25_20-00-40_260595134347_rgbf000049-resize_0/002103_2014-06-25_20-00-40_260595134347_rgbf000049-resize_0-target.png,1000,3.661,4.105,0,1629,502,999,500,1004,508,feet,,,,,2316321,2462550,43
866092,DepthScenes,duration_discrimination,discrim_jsons/d0_dr.json,http://54.173.234.186/DepthDuration/depth_discrimination_MTurk/DepthDiscrim_HTML.html#1,1,1536,864,1536,864,6-19-2021,14-45-48,13,depth_discrimination_stimuli/002460_2014-06-28_20-35-43_260595134347_rgbf000028-resize_4/002460_2014-06-28_20-35-43_260595134347_rgbf000028-resize_4-target.png,depth_discrimination_stimuli/001806_2014-06-26_20-50-20_260595134347_rgbf000091-resize_1/001806_2014-06-26_20-50-20_260595134347_rgbf000091-resize_1-target.png,250,2.269,2.7305,1,2034,510,241,501,253,505,feet,,,,,2316321,2462550,43
866092,DepthScenes,duration_discrimination,discrim_jsons/d0_dr.json,http://54.173.234.186/DepthDuration/depth_discrimination_MTurk/DepthDiscrim_HTML.html#1,1,1536,864,1536,864,6-19-2021,14-45-48,14,depth_discrimination_stimuli/003587_2014-05-23_16-48-02_094959634447_rgbf002384-resize_2/003587_2014-05-23_16-48-02_094959634447_rgbf002384-resize_2-target.png,depth_discrimination_stimuli/000709_2014-06-08_13-51-55_260595134347_rgbf000068-resize_3/000709_2014-06-08_13-51-55_260595134347_rgbf000068-resize_3-target.png,1000,1.357,1.803,0,3024,515,986,510,990,502,feet,,,,,2316321,2462550,43
866092,DepthScenes,duration_discrimination,discrim_jsons/d0_dr.json,http://54.173.234.186/DepthDuration/depth_discrimination_MTurk/DepthDiscrim_HTML.html#1,1,1536,864,1536,864,6-19-2021,14-45-48,15,depth_discrimination_stimuli/000734_2014-06-08_17-39-11_260595134347_rgbf000128-resize_2/000734_2014-06-08_17-39-11_260595134347_rgbf000128-resize_2-target.png,depth_discrimination_stimuli/001148_2014-06-17_15-26-42_260595134347_rgbf000129-resize_0/001148_2014-06-17_15-26-42_260595134347_rgbf000129-resize_0-target.png,1000,4.098,4.368,0,2295,502,1012,486,1013,490,feet,,,,,2316321,2462550,43
866092,DepthScenes,duration_discrimination,discrim_jsons/d0_dr.json,http://54.173.234.186/DepthDuration/depth_discrimination_MTurk/DepthDiscrim_HTML.html#1,1,1536,864,1536,864,6-19-2021,14-45-48,16,depth_discrimination_stimuli/002445_2014-06-28_20-32-16_260595134347_rgbf000029-resize_4/002445_2014-06-28_20-32-16_260595134347_rgbf000029-resize_4-target.png,depth_discrimination_stimuli/002043_2014-06-24_20-29-38_260595134347_rgbf000039-resize_4/002043_2014-06-24_20-29-38_260595134347_rgbf000039-resize_4-target.png,1000,2.5315,2.8435,0,1603,504,1009,498,993,497,feet,,,,,2316321,2462550,43
866092,DepthScenes,duration_discrimination,discrim_jsons/d0_dr.json,http://54.173.234.186/DepthDuration/depth_discrimination_MTurk/DepthDiscrim_HTML.html#1,1,1536,864,1536,864,6-19-2021,14-45-48,17,depth_discrimination_stimuli/003395_2014-05-20_15-39-18_094959634447_rgbf000101-resize_0/003395_2014-05-20_15-39-18_094959634447_rgbf000101-resize_0-target.png,depth_discrimination_stimuli/001540_2014-06-20_17-01-05_260595134347_rgbf000086-resize_2/001540_2014-06-20_17-01-05_260595134347_rgbf000086-resize_2-target.png,250,4.835,1.459,1,1080,502,250,505,248,496,feet,,,,,2316321,2462550,43
866092,DepthScenes,duration_discrimination,discrim_jsons/d0_dr.json,http://54.173.234.186/DepthDuration/depth_discrimination_MTurk/DepthDiscrim_HTML.html#1,1,1536,864,1536,864,6-19-2021,14-45-48,18,depth_discrimination_stimuli/001449_2014-06-19_17-01-27_260595134347_rgbf000116-resize_2/001449_2014-06-19_17-01-27_260595134347_rgbf000116-resize_2-target.png,depth_discrimination_stimuli/002630_2014-06-24_14-47-50_094959634447_rgbf000055-resize_1/002630_2014-06-24_14-47-50_094959634447_rgbf000055-resize_1-target.png,1000,3.452,3.0095,0,2091,511,1004,494,1005,494,feet,,,,,2316321,2462550,43
866092,DepthScenes,duration_discrimination,discrim_jsons/d0_dr.json,http://54.173.234.186/DepthDuration/depth_discrimination_MTurk/DepthDiscrim_HTML.html#1,1,1536,864,1536,864,6-19-2021,14-45-48,19,depth_discrimination_stimuli/001555_2014-06-20_17-12-10_260595134347_rgbf000065-resize_4/001555_2014-06-20_17-12-10_260595134347_rgbf000065-resize_4-target.png,depth_discrimination_stimuli/000943_2014-06-09_19-31-07_260595134347_rgbf000128-resize_1/000943_2014-06-09_19-31-07_260595134347_rgbf000128-resize_1-target.png,250,1.633,1.9765,0,2268,501,253,510,240,506,feet,,,,,2316321,2462550,43
866092,DepthScenes,duration_discrimination,discrim_jsons/d0_dr.json,http://54.173.234.186/DepthDuration/depth_discrimination_MTurk/DepthDiscrim_HTML.html#1,1,1536,864,1536,864,6-19-2021,14-45-48,20,depth_discrimination_stimuli/001808_2014-06-26_20-50-58_260595134347_rgbf000029-resize_1/001808_2014-06-26_20-50-58_260595134347_rgbf000029-resize_1-target.png,depth_discrimination_stimuli/003621_2014-05-23_18-06-08_094959634447_rgbf000101-resize_1/003621_2014-05-23_18-06-08_094959634447_rgbf000101-resize_1-target.png,1000,4.249,3.9835,0,1646,512,988,502,1008,501,feet,,,,,2316321,2462550,43
866092,DepthScenes,duration_discrimination,discrim_jsons/d0_dr.json,http://54.173.234.186/DepthDuration/depth_discrimination_MTurk/DepthDiscrim_HTML.html#1,1,1536,864,1536,864,6-19-2021,14-45-48,21,depth_discrimination_stimuli/000691_2014-06-08_13-08-50_260595134347_rgbf000132-resize_3/000691_2014-06-08_13-08-50_260595134347_rgbf000132-resize_3-target.png,depth_discrimination_stimuli/000137_2014-05-20_17-04-49_260595134347_rgbf000120-resize_1/000137_2014-05-20_17-04-49_260595134347_rgbf000120-resize_1-target.png,1000,4.153,3.786,1,3284,504,997,500,1006,500,feet,,,,,2316321,2462550,43
866092,DepthScenes,duration_discrimination,discrim_jsons/d0_dr.json,http://54.173.234.186/DepthDuration/depth_discrimination_MTurk/DepthDiscrim_HTML.html#1,1,1536,864,1536,864,6-19-2021,14-45-48,22,depth_discrimination_stimuli/002509_2014-06-24_13-19-22_094959634447_rgbf000077-resize_0/002509_2014-06-24_13-19-22_094959634447_rgbf000077-resize_0-target.png,depth_discrimination_stimuli/002344_2014-06-28_20-06-29_260595134347_rgbf000030-resize_1/002344_2014-06-28_20-06-29_260595134347_rgbf000030-resize_1-target.png,1000,1.3065,1.5795,1,1950,513,992,510,992,495,feet,,,,,2316321,2462550,43
866092,DepthScenes,duration_discrimination,discrim_jsons/d0_dr.json,http://54.173.234.186/DepthDuration/depth_discrimination_MTurk/DepthDiscrim_HTML.html#1,1,1536,864,1536,864,6-19-2021,14-45-48,23,depth_discrimination_stimuli/002784_2014-06-22_19-26-30_094959634447_rgbf000083-resize_3/002784_2014-06-22_19-26-30_094959634447_rgbf000083-resize_3-target.png,depth_discrimination_stimuli/001532_2014-06-20_16-50-41_260595134347_rgbf000081-resize_4/001532_2014-06-20_16-50-41_260595134347_rgbf000081-resize_4-target.png,250,1.8046666666667,1.5758333333333,1,1441,502,250,501,249,510,feet,,,,,2316321,2462550,43
866092,DepthScenes,duration_discrimination,discrim_jsons/d0_dr.json,http://54.173.234.186/DepthDuration/depth_discrimination_MTurk/DepthDiscrim_HTML.html#1,1,1536,864,1536,864,6-19-2021,14-45-48,24,depth_discrimination_stimuli/000409_2014-06-04_19-23-33_260595134347_rgbf000067-resize_0/000409_2014-06-04_19-23-33_260595134347_rgbf000067-resize_0-target.png,depth_discrimination_stimuli/002464_2014-06-28_20-36-57_260595134347_rgbf000029-resize_0/002464_2014-06-28_20-36-57_260595134347_rgbf000029-resize_0-target.png,250,3.7335,3.9525,1,2308,511,255,486,252,509,feet,,,,,2316321,2462550,43
866092,DepthScenes,duration_discrimination,discrim_jsons/d0_dr.json,http://54.173.234.186/DepthDuration/depth_discrimination_MTurk/DepthDiscrim_HTML.html#1,1,1536,864,1536,864,6-19-2021,14-45-48,25,depth_discrimination_stimuli/000665_2014-06-09_20-42-35_260595134347_rgbf000110-resize_1/000665_2014-06-09_20-42-35_260595134347_rgbf000110-resize_1-target.png,depth_discrimination_stimuli/001214_2014-06-17_16-13-55_260595134347_rgbf000111-resize_0/001214_2014-06-17_16-13-55_260595134347_rgbf000111-resize_0-target.png,1000,3.057,2.6505,1,3027,513,999,501,991,501,feet,,,,,2316321,2462550,43
866092,DepthScenes,duration_discrimination,discrim_jsons/d0_dr.json,http://54.173.234.186/DepthDuration/depth_discrimination_MTurk/DepthDiscrim_HTML.html#1,1,1536,864,1536,864,6-19-2021,14-45-48,26,depth_discrimination_stimuli/001164_2014-06-17_15-35-46_260595134347_rgbf000085-resize_3/001164_2014-06-17_15-35-46_260595134347_rgbf000085-resize_3-target.png,depth_discrimination_stimuli/003228_2014-05-14_13-42-35_094959634447_rgbf000101-resize_1/003228_2014-05-14_13-42-35_094959634447_rgbf000101-resize_1-target.png,1000,2.354,1.968,1,4018,509,992,500,1006,494,feet,,,,,2316321,2462550,43
866092,DepthScenes,duration_discrimination,discrim_jsons/d0_dr.json,http://54.173.234.186/DepthDuration/depth_discrimination_MTurk/DepthDiscrim_HTML.html#1,1,1536,864,1536,864,6-19-2021,14-45-48,27,depth_discrimination_stimuli/002953_2014-06-08_17-32-18_094959634447_rgbf000059-resize_5/002953_2014-06-08_17-32-18_094959634447_rgbf000059-resize_5-target.png,depth_discrimination_stimuli/001571_2014-06-20_17-21-32_260595134347_rgbf000089-resize_1/001571_2014-06-20_17-21-32_260595134347_rgbf000089-resize_1-target.png,250,1.551,1.86,1,1241,505,247,515,235,500,feet,,,,,2316321,2462550,43
866092,DepthScenes,duration_discrimination,discrim_jsons/d0_dr.json,http://54.173.234.186/DepthDuration/depth_discrimination_MTurk/DepthDiscrim_HTML.html#1,1,1536,864,1536,864,6-19-2021,14-45-48,28,depth_discrimination_stimuli/002700_2014-06-22_11-27-02_094959634447_rgbf000124-resize_3/002700_2014-06-22_11-27-02_094959634447_rgbf000124-resize_3-target.png,depth_discrimination_stimuli/000800_2014-06-08_22-42-09_260595134347_rgbf000095-resize_3/000800_2014-06-08_22-42-09_260595134347_rgbf000095-resize_3-target.png,250,3.301,2.8,0,1237,506,246,506,258,489,feet,,,,,2316321,2462550,43
866092,DepthScenes,duration_discrimination,discrim_jsons/d0_dr.json,http://54.173.234.186/DepthDuration/depth_discrimination_MTurk/DepthDiscrim_HTML.html#1,1,1536,864,1536,864,6-19-2021,14-45-48,29,depth_discrimination_stimuli/003546_2014-05-22_15-48-53_094959634447_rgbf004816-resize_3/003546_2014-05-22_15-48-53_094959634447_rgbf004816-resize_3-target.png,depth_discrimination_stimuli/003010_2014-06-15_12-54-35_094959634447_rgbf000112-resize_0/003010_2014-06-15_12-54-35_094959634447_rgbf000112-resize_0-target.png,250,2.62625,3.1185,1,1000,515,242,496,249,499,feet,,,,,2316321,2462550,43
866092,DepthScenes,duration_discrimination,discrim_jsons/d0_dr.json,http://54.173.234.186/DepthDuration/depth_discrimination_MTurk/DepthDiscrim_HTML.html#1,1,1536,864,1536,864,6-19-2021,14-45-48,30,depth_discrimination_stimuli/000735_2014-06-08_18-23-50_260595134347_rgbf000163-resize_2/000735_2014-06-08_18-23-50_260595134347_rgbf000163-resize_2-target.png,depth_discrimination_stimuli/003288_2014-05-14_21-50-30_094959634447_rgbf000028-resize_3/003288_2014-05-14_21-50-30_094959634447_rgbf000028-resize_3-target.png,1000,4.1695,3.877,1,3036,509,1007,494,1000,503,feet,,,,,2316321,2462550,43
866092,DepthScenes,duration_discrimination,discrim_jsons/d0_dr.json,http://54.173.234.186/DepthDuration/depth_discrimination_MTurk/DepthDiscrim_HTML.html#1,1,1536,864,1536,864,6-19-2021,14-45-48,31,depth_discrimination_stimuli/001170_2014-06-17_15-43-44_260595134347_rgbf000096-resize_6/001170_2014-06-17_15-43-44_260595134347_rgbf000096-resize_6-target.png,depth_discrimination_stimuli/002364_2014-06-28_20-11-05_260595134347_rgbf000042-resize_0/002364_2014-06-28_20-11-05_260595134347_rgbf000042-resize_0-target.png,1000,1.191,4.682,0,1568,510,998,492,1002,514,feet,,,,,2316321,2462550,43
866092,DepthScenes,duration_discrimination,discrim_jsons/d0_dr.json,http://54.173.234.186/DepthDuration/depth_discrimination_MTurk/DepthDiscrim_HTML.html#1,1,1536,864,1536,864,6-19-2021,14-45-48,32,depth_discrimination_stimuli/001016_2014-06-09_16-16-10_260595134347_rgbf000112-resize_5/001016_2014-06-09_16-16-10_260595134347_rgbf000112-resize_5-target.png,depth_discrimination_stimuli/001618_2014-06-20_11-37-31_260595134347_rgbf000027-resize_3/001618_2014-06-20_11-37-31_260595134347_rgbf000027-resize_3-target.png,1000,1.6565,1.8725,1,2714,503,1007,499,994,505,feet,,,,,2316321,2462550,43
866092,DepthScenes,duration_discrimination,discrim_jsons/d0_dr.json,http://54.173.234.186/DepthDuration/depth_discrimination_MTurk/DepthDiscrim_HTML.html#1,1,1536,864,1536,864,6-19-2021,14-45-48,33,depth_discrimination_stimuli/000739_2014-06-08_18-45-58_260595134347_rgbf000068-resize_1/000739_2014-06-08_18-45-58_260595134347_rgbf000068-resize_1-target.png,depth_discrimination_stimuli/002995_2014-06-15_12-31-26_094959634447_rgbf000150-resize_1/002995_2014-06-15_12-31-26_094959634447_rgbf000150-resize_1-target.png,250,3.534,3.836,1,2127,507,248,506,240,510,feet,,,,,2316321,2462550,43
866092,DepthScenes,duration_discrimination,discrim_jsons/d0_dr.json,http://54.173.234.186/DepthDuration/depth_discrimination_MTurk/DepthDiscrim_HTML.html#1,1,1536,864,1536,864,6-19-2021,14-45-48,34,depth_discrimination_stimuli/001092_2014-06-15_17-34-58_260595134347_rgbf000171-resize_3/001092_2014-06-15_17-34-58_260595134347_rgbf000171-resize_3-target.png,depth_discrimination_stimuli/000522_2014-06-08_13-35-06_260595134347_rgbf000244-resize_1/000522_2014-06-08_13-35-06_260595134347_rgbf000244-resize_1-target.png,1000,2.6935,2.3715,1,1655,504,1001,496,1000,499,feet,,,,,2316321,2462550,43
866092,DepthScenes,duration_discrimination,discrim_jsons/d0_dr.json,http://54.173.234.186/DepthDuration/depth_discrimination_MTurk/DepthDiscrim_HTML.html#1,1,1536,864,1536,864,6-19-2021,14-45-48,35,depth_discrimination_stimuli/002657_2014-06-13_15-29-54_094959634447_rgbf000150-resize_1/002657_2014-06-13_15-29-54_094959634447_rgbf000150-resize_1-target.png,depth_discrimination_stimuli/002748_2014-06-22_19-07-22_094959634447_rgbf000078-resize_1/002748_2014-06-22_19-07-22_094959634447_rgbf000078-resize_1-target.png,1000,4.919,4.6705,0,2160,500,1008,507,988,510,feet,,,,,2316321,2462550,43
866092,DepthScenes,duration_discrimination,discrim_jsons/d0_dr.json,http://54.173.234.186/DepthDuration/depth_discrimination_MTurk/DepthDiscrim_HTML.html#1,1,1536,864,1536,864,6-19-2021,14-45-48,36,depth_discrimination_stimuli/002375_2014-06-28_20-13-44_260595134347_rgbf000032-resize_1/002375_2014-06-28_20-13-44_260595134347_rgbf000032-resize_1-target.png,depth_discrimination_stimuli/001570_2014-06-20_17-21-09_260595134347_rgbf000135-resize_4/001570_2014-06-20_17-21-09_260595134347_rgbf000135-resize_4-target.png,1000,4.0175,4.467,0,2093,509,998,499,1008,490,feet,,,,,2316321,2462550,43
866092,DepthScenes,duration_discrimination,discrim_jsons/d0_dr.json,http://54.173.234.186/DepthDuration/depth_discrimination_MTurk/DepthDiscrim_HTML.html#1,1,1536,864,1536,864,6-19-2021,14-45-48,37,depth_discrimination_stimuli/002989_2014-06-15_12-25-03_094959634447_rgbf000150-resize_3/002989_2014-06-15_12-25-03_094959634447_rgbf000150-resize_3-target.png,depth_discrimination_stimuli/001724_2014-06-26_19-28-50_260595134347_rgbf000037-resize_7/001724_2014-06-26_19-28-50_260595134347_rgbf000037-resize_7-target.png,250,4.1975,3.827,0,2823,502,252,500,253,522,feet,,,,,2316321,2462550,43
866092,DepthScenes,duration_discrimination,discrim_jsons/d0_dr.json,http://54.173.234.186/DepthDuration/depth_discrimination_MTurk/DepthDiscrim_HTML.html#1,1,1536,864,1536,864,6-19-2021,14-45-48,38,depth_discrimination_stimuli/000749_2014-06-08_21-55-06_260595134347_rgbf000070-resize_2/000749_2014-06-08_21-55-06_260595134347_rgbf000070-resize_2-target.png,depth_discrimination_stimuli/002875_2014-06-01_15-19-00_094959634447_rgbf000151-resize_1/002875_2014-06-01_15-19-00_094959634447_rgbf000151-resize_1-target.png,1000,2.331,1.9675,1,1541,501,1003,498,999,513,feet,,,,,2316321,2462550,43
866092,DepthScenes,duration_discrimination,discrim_jsons/d0_dr.json,http://54.173.234.186/DepthDuration/depth_discrimination_MTurk/DepthDiscrim_HTML.html#1,1,1536,864,1536,864,6-19-2021,14-45-48,39,depth_discrimination_stimuli/003534_2014-05-22_15-06-10_094959634447_rgbf000102-resize_4/003534_2014-05-22_15-06-10_094959634447_rgbf000102-resize_4-target.png,depth_discrimination_stimuli/002272_2014-06-28_18-53-56_260595134347_rgbf000067-resize_2/002272_2014-06-28_18-53-56_260595134347_rgbf000067-resize_2-target.png,250,1.426,1.138,1,1853,510,244,496,262,503,feet,,,,,2316321,2462550,43
866092,DepthScenes,duration_discrimination,discrim_jsons/d0_dr.json,http://54.173.234.186/DepthDuration/depth_discrimination_MTurk/DepthDiscrim_HTML.html#1,1,1536,864,1536,864,6-19-2021,14-45-48,40,depth_discrimination_stimuli/001059_2014-06-08_21-53-27_260595134347_rgbf000061-resize_4/001059_2014-06-08_21-53-27_260595134347_rgbf000061-resize_4-target.png,depth_discrimination_stimuli/000906_2014-06-08_13-35-43_260595134347_rgbf000155-resize_1/000906_2014-06-08_13-35-43_260595134347_rgbf000155-resize_1-target.png,1000,2.4185,2.849,0,1868,506,1008,491,1001,498,feet,,,,,2316321,2462550,43
866092,DepthScenes,duration_discrimination,discrim_jsons/d0_dr.json,http://54.173.234.186/DepthDuration/depth_discrimination_MTurk/DepthDiscrim_HTML.html#1,1,1536,864,1536,864,6-19-2021,14-45-48,41,depth_discrimination_stimuli/001264_2014-06-16_16-10-23_260595134347_rgbf000109-resize_1/001264_2014-06-16_16-10-23_260595134347_rgbf000109-resize_1-target.png,depth_discrimination_stimuli/002340_2014-06-28_20-05-46_260595134347_rgbf000113-resize_0/002340_2014-06-28_20-05-46_260595134347_rgbf000113-resize_0-target.png,250,2.9665,2.4735,1,1551,509,254,488,260,491,feet,,,,,2316321,2462550,43
866092,DepthScenes,duration_discrimination,discrim_jsons/d0_dr.json,http://54.173.234.186/DepthDuration/depth_discrimination_MTurk/DepthDiscrim_HTML.html#1,1,1536,864,1536,864,6-19-2021,14-45-48,42,depth_discrimination_stimuli/003081_2014-06-15_15-19-16_094959634447_rgbf000150-resize_1/003081_2014-06-15_15-19-16_094959634447_rgbf000150-resize_1-target.png,depth_discrimination_stimuli/000917_2014-06-09_22-45-29_260595134347_rgbf000149-resize_3/000917_2014-06-09_22-45-29_260595134347_rgbf000149-resize_3-target.png,1000,3.9125,4.1865,1,1721,501,1003,500,1008,488,feet,,,,,2316321,2462550,43
866092,DepthScenes,duration_discrimination,discrim_jsons/d0_dr.json,http://54.173.234.186/DepthDuration/depth_discrimination_MTurk/DepthDiscrim_HTML.html#1,1,1536,864,1536,864,6-19-2021,14-45-48,43,depth_discrimination_stimuli/000569_2014-06-09_22-51-47_260595134347_rgbf000141-resize_3/000569_2014-06-09_22-51-47_260595134347_rgbf000141-resize_3-target.png,depth_discrimination_stimuli/000868_2014-06-09_20-49-52_260595134347_rgbf000064-resize_4/000868_2014-06-09_20-49-52_260595134347_rgbf000064-resize_4-target.png,250,4.512,1.2815,1,1361,505,246,513,250,490,feet,,,,,2316321,2462550,43
866092,DepthScenes,duration_discrimination,discrim_jsons/d0_dr.json,http://54.173.234.186/DepthDuration/depth_discrimination_MTurk/DepthDiscrim_HTML.html#1,1,1536,864,1536,864,6-19-2021,14-45-48,44,depth_discrimination_stimuli/002988_2014-06-15_12-24-20_094959634447_rgbf000150-resize_1/002988_2014-06-15_12-24-20_094959634447_rgbf000150-resize_1-target.png,depth_discrimination_stimuli/000447_2014-06-08_16-15-46_260595134347_rgbf000130-resize_1/000447_2014-06-08_16-15-46_260595134347_rgbf000130-resize_1-target.png,250,4.767,4.479,0,2589,505,257,501,248,493,feet,,,,,2316321,2462550,43
866092,DepthScenes,duration_discrimination,discrim_jsons/d0_dr.json,http://54.173.234.186/DepthDuration/depth_discrimination_MTurk/DepthDiscrim_HTML.html#1,1,1536,864,1536,864,6-19-2021,14-45-48,45,depth_discrimination_stimuli/000457_2014-06-08_16-52-43_260595134347_rgbf000199-resize_1/000457_2014-06-08_16-52-43_260595134347_rgbf000199-resize_1-target.png,depth_discrimination_stimuli/002365_2014-06-28_20-11-21_260595134347_rgbf000102-resize_1/002365_2014-06-28_20-11-21_260595134347_rgbf000102-resize_1-target.png,250,3.649,4.013,0,1510,509,244,498,266,486,feet,,,,,2316321,2462550,43
866092,DepthScenes,duration_discrimination,discrim_jsons/d0_dr.json,http://54.173.234.186/DepthDuration/depth_discrimination_MTurk/DepthDiscrim_HTML.html#1,1,1536,864,1536,864,6-19-2021,14-45-48,46,depth_discrimination_stimuli/002118_2014-06-25_20-32-08_260595134347_rgbf000078-resize_1/002118_2014-06-25_20-32-08_260595134347_rgbf000078-resize_1-target.png,depth_discrimination_stimuli/000542_2014-06-08_18-27-08_260595134347_rgbf000118-resize_1/000542_2014-06-08_18-27-08_260595134347_rgbf000118-resize_1-target.png,250,2.646,3,1,1343,512,253,491,256,489,feet,,,,,2316321,2462550,43
866092,DepthScenes,duration_discrimination,discrim_jsons/d0_dr.json,http://54.173.234.186/DepthDuration/depth_discrimination_MTurk/DepthDiscrim_HTML.html#1,1,1536,864,1536,864,6-19-2021,14-45-48,47,depth_discrimination_stimuli/000682_2014-06-08_23-14-58_260595134347_rgbf000041-resize_5/000682_2014-06-08_23-14-58_260595134347_rgbf000041-resize_5-target.png,depth_discrimination_stimuli/000866_2014-06-09_20-45-42_260595134347_rgbf000139-resize_1/000866_2014-06-09_20-45-42_260595134347_rgbf000139-resize_1-target.png,1000,2.724,3.2155,0,2280,504,1000,500,999,509,feet,,,,,2316321,2462550,43
866092,DepthScenes,duration_discrimination,discrim_jsons/d0_dr.json,http://54.173.234.186/DepthDuration/depth_discrimination_MTurk/DepthDiscrim_HTML.html#1,1,1536,864,1536,864,6-19-2021,14-45-48,48,depth_discrimination_stimuli/002323_2014-06-28_20-01-54_260595134347_rgbf000051-resize_4/002323_2014-06-28_20-01-54_260595134347_rgbf000051-resize_4-target.png,depth_discrimination_stimuli/000736_2014-06-08_18-24-15_260595134347_rgbf000206-resize_3/000736_2014-06-08_18-24-15_260595134347_rgbf000206-resize_3-target.png,1000,3.731,3.515,1,2870,501,1008,507,998,491,feet,,,,,2316321,2462550,43
866092,DepthScenes,duration_discrimination,discrim_jsons/d0_dr.json,http://54.173.234.186/DepthDuration/depth_discrimination_MTurk/DepthDiscrim_HTML.html#1,1,1536,864,1536,864,6-19-2021,14-45-48,49,depth_discrimination_stimuli/001235_2014-06-17_16-37-36_260595134347_rgbf000084-resize_4/001235_2014-06-17_16-37-36_260595134347_rgbf000084-resize_4-target.png,depth_discrimination_stimuli/003423_2014-05-21_10-23-26_094959634447_rgbf002665-resize_2/003423_2014-05-21_10-23-26_094959634447_rgbf002665-resize_2-target.png,250,3.6605,3.2575,0,1263,514,241,504,242,513,feet,,,,,2316321,2462550,43
866092,DepthScenes,duration_discrimination,discrim_jsons/d0_dr.json,http://54.173.234.186/DepthDuration/depth_discrimination_MTurk/DepthDiscrim_HTML.html#1,1,1536,864,1536,864,6-19-2021,14-45-48,50,depth_discrimination_stimuli/002568_2014-06-24_13-59-21_094959634447_rgbf000062-resize_4/002568_2014-06-24_13-59-21_094959634447_rgbf000062-resize_4-target.png,depth_discrimination_stimuli/000636_2014-06-08_16-39-02_260595134347_rgbf000108-resize_4/000636_2014-06-08_16-39-02_260595134347_rgbf000108-resize_4-target.png,1000,3.015,2.682,1,1496,503,1005,498,1006,489,feet,,,,,2316321,2462550,43
866092,DepthScenes,duration_discrimination,discrim_jsons/d0_dr.json,http://54.173.234.186/DepthDuration/depth_discrimination_MTurk/DepthDiscrim_HTML.html#1,1,1536,864,1536,864,6-19-2021,14-45-48,51,depth_discrimination_stimuli/001289_2014-06-16_16-25-52_260595134347_rgbf000067-resize_1/001289_2014-06-16_16-25-52_260595134347_rgbf000067-resize_1-target.png,depth_discrimination_stimuli/002788_2014-06-22_19-36-03_094959634447_rgbf000088-resize_2/002788_2014-06-22_19-36-03_094959634447_rgbf000088-resize_2-target.png,250,1.8835,1.6465,0,1750,507,244,506,243,514,feet,,,,,2316321,2462550,43
866092,DepthScenes,duration_discrimination,discrim_jsons/d0_dr.json,http://54.173.234.186/DepthDuration/depth_discrimination_MTurk/DepthDiscrim_HTML.html#1,1,1536,864,1536,864,6-19-2021,14-45-48,52,depth_discrimination_stimuli/000549_2014-06-08_22-10-24_260595134347_rgbf000247-resize_3/000549_2014-06-08_22-10-24_260595134347_rgbf000247-resize_3-target.png,depth_discrimination_stimuli/002139_2014-06-25_21-19-37_260595134347_rgbf000124-resize_2/002139_2014-06-25_21-19-37_260595134347_rgbf000124-resize_2-target.png,1000,1.841,2.107,0,2648,514,991,502,997,506,feet,,,,,2316321,2462550,43
866092,DepthScenes,duration_discrimination,discrim_jsons/d0_dr.json,http://54.173.234.186/DepthDuration/depth_discrimination_MTurk/DepthDiscrim_HTML.html#1,1,1536,864,1536,864,6-19-2021,14-45-48,53,depth_discrimination_stimuli/001810_2014-06-26_20-51-35_260595134347_rgbf000040-resize_3/001810_2014-06-26_20-51-35_260595134347_rgbf000040-resize_3-target.png,depth_discrimination_stimuli/000927_2014-06-09_16-32-30_260595134347_rgbf000123-resize_3/000927_2014-06-09_16-32-30_260595134347_rgbf000123-resize_3-target.png,1000,2.2525,2.6785,0,2122,515,1001,485,1009,497,feet,,,,,2316321,2462550,43
866092,DepthScenes,duration_discrimination,discrim_jsons/d0_dr.json,http://54.173.234.186/DepthDuration/depth_discrimination_MTurk/DepthDiscrim_HTML.html#1,1,1536,864,1536,864,6-19-2021,14-45-48,54,depth_discrimination_stimuli/002199_2014-06-28_18-33-56_260595134347_rgbf000074-resize_0/002199_2014-06-28_18-33-56_260595134347_rgbf000074-resize_0-target.png,depth_discrimination_stimuli/000368_2014-06-09_15-53-01_260595134347_rgbf000155-resize_2/000368_2014-06-09_15-53-01_260595134347_rgbf000155-resize_2-target.png,1000,1.996,2.486,0,2159,508,1006,489,1005,494,feet,,,,,2316321,2462550,43
866092,DepthScenes,duration_discrimination,discrim_jsons/d0_dr.json,http://54.173.234.186/DepthDuration/depth_discrimination_MTurk/DepthDiscrim_HTML.html#1,1,1536,864,1536,864,6-19-2021,14-45-48,55,depth_discrimination_stimuli/000878_2014-06-08_22-52-45_260595134347_rgbf000045-resize_2/000878_2014-06-08_22-52-45_260595134347_rgbf000045-resize_2-target.png,depth_discrimination_stimuli/003338_2014-05-20_11-01-23_094959634447_rgbf000051-resize_6/003338_2014-05-20_11-01-23_094959634447_rgbf000051-resize_6-target.png,250,2.092,1.693,1,1332,511,250,492,248,503,feet,,,,,2316321,2462550,43
866092,DepthScenes,duration_discrimination,discrim_jsons/d0_dr.json,http://54.173.234.186/DepthDuration/depth_discrimination_MTurk/DepthDiscrim_HTML.html#1,1,1536,864,1536,864,6-19-2021,14-45-48,56,depth_discrimination_stimuli/002660_2014-06-13_15-44-18_094959634447_rgbf001878-resize_2/002660_2014-06-13_15-44-18_094959634447_rgbf001878-resize_2-target.png,depth_discrimination_stimuli/000009_2014-05-26_14-32-05_260595134347_rgbf000034-resize_3/000009_2014-05-26_14-32-05_260595134347_rgbf000034-resize_3-target.png,250,3.576,3.8715,0,1772,503,252,500,245,510,feet,,,,,2316321,2462550,43
866092,DepthScenes,duration_discrimination,discrim_jsons/d0_dr.json,http://54.173.234.186/DepthDuration/depth_discrimination_MTurk/DepthDiscrim_HTML.html#1,1,1536,864,1536,864,6-19-2021,14-45-48,57,depth_discrimination_stimuli/001167_2014-06-17_15-38-07_260595134347_rgbf000108-resize_0/001167_2014-06-17_15-38-07_260595134347_rgbf000108-resize_0-target.png,depth_discrimination_stimuli/003495_2014-05-21_16-01-51_094959634447_rgbf000100-resize_3/003495_2014-05-21_16-01-51_094959634447_rgbf000100-resize_3-target.png,1000,1.8505,1.6255,1,4355,509,994,502,999,498,feet,,,,,2316321,2462550,43
866092,DepthScenes,duration_discrimination,discrim_jsons/d0_dr.json,http://54.173.234.186/DepthDuration/depth_discrimination_MTurk/DepthDiscrim_HTML.html#1,1,1536,864,1536,864,6-19-2021,14-45-48,58,depth_discrimination_stimuli/003070_2014-06-15_14-58-27_094959634447_rgbf000150-resize_3/003070_2014-06-15_14-58-27_094959634447_rgbf000150-resize_3-target.png,depth_discrimination_stimuli/000758_2014-06-08_22-05-08_260595134347_rgbf000085-resize_0/000758_2014-06-08_22-05-08_260595134347_rgbf000085-resize_0-target.png,250,2.9415,3.381,1,3683,516,247,490,258,489,feet,,,,,2316321,2462550,43
866092,DepthScenes,duration_discrimination,discrim_jsons/d0_dr.json,http://54.173.234.186/DepthDuration/depth_discrimination_MTurk/DepthDiscrim_HTML.html#1,1,1536,864,1536,864,6-19-2021,14-45-48,59,depth_discrimination_stimuli/001199_2014-06-17_16-03-48_260595134347_rgbf000077-resize_0/001199_2014-06-17_16-03-48_260595134347_rgbf000077-resize_0-target.png,depth_discrimination_stimuli/001029_2014-06-08_13-17-57_260595134347_rgbf000065-resize_1/001029_2014-06-08_13-17-57_260595134347_rgbf000065-resize_1-target.png,1000,3.4375,3.0835,1,2608,504,1008,490,1012,493,feet,,,,,2316321,2462550,43
866092,DepthScenes,duration_discrimination,discrim_jsons/d0_dr.json,http://54.173.234.186/DepthDuration/depth_discrimination_MTurk/DepthDiscrim_HTML.html#1,1,1536,864,1536,864,6-19-2021,14-45-48,60,depth_discrimination_stimuli/000929_2014-06-09_16-33-19_260595134347_rgbf000139-resize_0/000929_2014-06-09_16-33-19_260595134347_rgbf000139-resize_0-target.png,depth_discrimination_stimuli/000830_2014-06-04_19-49-31_260595134347_rgbf000096-resize_2/000830_2014-06-04_19-49-31_260595134347_rgbf000096-resize_2-target.png,1000,2.868,2.6353333333333,1,2388,510,992,507,998,507,feet,,,,,2316321,2462550,43
866092,DepthScenes,duration_discrimination,discrim_jsons/d0_dr.json,http://54.173.234.186/DepthDuration/depth_discrimination_MTurk/DepthDiscrim_HTML.html#1,1,1536,864,1536,864,6-19-2021,14-45-48,61,depth_discrimination_stimuli/003292_2014-05-14_21-53-49_094959634447_rgbf000100-resize_2/003292_2014-05-14_21-53-49_094959634447_rgbf000100-resize_2-target.png,depth_discrimination_stimuli/002805_2014-06-22_19-54-03_094959634447_rgbf000079-resize_1/002805_2014-06-22_19-54-03_094959634447_rgbf000079-resize_1-target.png,250,3.4815,3.144,1,2828,502,252,510,240,496,feet,,,,,2316321,2462550,43
866092,DepthScenes,duration_discrimination,discrim_jsons/d0_dr.json,http://54.173.234.186/DepthDuration/depth_discrimination_MTurk/DepthDiscrim_HTML.html#1,1,1536,864,1536,864,6-19-2021,14-45-48,62,depth_discrimination_stimuli/001498_2014-06-19_17-45-14_260595134347_rgbf000129-resize_4/001498_2014-06-19_17-45-14_260595134347_rgbf000129-resize_4-target.png,depth_discrimination_stimuli/003125_2014-05-12_10-39-22_094959634447_rgbf000100-resize_0/003125_2014-05-12_10-39-22_094959634447_rgbf000100-resize_0-target.png,250,1.4075,4.8655,0,2177,507,244,509,257,484,feet,,,,,2316321,2462550,43
866092,DepthScenes,duration_discrimination,discrim_jsons/d0_dr.json,http://54.173.234.186/DepthDuration/depth_discrimination_MTurk/DepthDiscrim_HTML.html#1,1,1536,864,1536,864,6-19-2021,14-45-48,63,depth_discrimination_stimuli/000953_2014-06-08_11-42-19_260595134347_rgbf000083-resize_0/000953_2014-06-08_11-42-19_260595134347_rgbf000083-resize_0-target.png,depth_discrimination_stimuli/000787_2014-06-08_22-33-53_260595134347_rgbf000175-resize_1/000787_2014-06-08_22-33-53_260595134347_rgbf000175-resize_1-target.png,1000,1.369,4.784,0,2030,506,1005,500,1001,500,feet,,,,,2316321,2462550,43
866092,DepthScenes,duration_discrimination,discrim_jsons/d0_dr.json,http://54.173.234.186/DepthDuration/depth_discrimination_MTurk/DepthDiscrim_HTML.html#1,1,1536,864,1536,864,6-19-2021,14-45-48,64,depth_discrimination_stimuli/000720_2014-06-08_18-37-27_260595134347_rgbf000203-resize_4/000720_2014-06-08_18-37-27_260595134347_rgbf000203-resize_4-target.png,depth_discrimination_stimuli/002637_2014-06-24_14-51-13_094959634447_rgbf000066-resize_4/002637_2014-06-24_14-51-13_094959634447_rgbf000066-resize_4-target.png,250,1.558,1.9955,0,1904,512,239,510,240,510,feet,,,,,2316321,2462550,43
866092,DepthScenes,duration_discrimination,discrim_jsons/d0_dr.json,http://54.173.234.186/DepthDuration/depth_discrimination_MTurk/DepthDiscrim_HTML.html#1,1,1536,864,1536,864,6-19-2021,14-45-48,65,depth_discrimination_stimuli/000521_2014-06-08_13-34-35_260595134347_rgbf000191-resize_2/000521_2014-06-08_13-34-35_260595134347_rgbf000191-resize_2-target.png,depth_discrimination_stimuli/000788_2014-06-08_22-34-36_260595134347_rgbf000131-resize_1/000788_2014-06-08_22-34-36_260595134347_rgbf000131-resize_1-target.png,1000,3.0385,3.359,0,1818,502,1001,503,999,496,feet,,,,,2316321,2462550,43
866092,DepthScenes,duration_discrimination,discrim_jsons/d0_dr.json,http://54.173.234.186/DepthDuration/depth_discrimination_MTurk/DepthDiscrim_HTML.html#1,1,1536,864,1536,864,6-19-2021,14-45-48,66,depth_discrimination_stimuli/000780_2014-06-08_22-28-29_260595134347_rgbf000126-resize_1/000780_2014-06-08_22-28-29_260595134347_rgbf000126-resize_1-target.png,depth_discrimination_stimuli/000191_2014-05-12_17-07-38_260595134347_rgbf000199-resize_0/000191_2014-05-12_17-07-38_260595134347_rgbf000199-resize_0-target.png,250,3.3825,3.7995,1,2114,510,257,488,246,503,feet,,,,,2316321,2462550,43
866092,DepthScenes,duration_discrimination,discrim_jsons/d0_dr.json,http://54.173.234.186/DepthDuration/depth_discrimination_MTurk/DepthDiscrim_HTML.html#1,1,1536,864,1536,864,6-19-2021,14-45-48,67,depth_discrimination_stimuli/000753_2014-06-08_21-57-44_260595134347_rgbf000123-resize_3/000753_2014-06-08_21-57-44_260595134347_rgbf000123-resize_3-target.png,depth_discrimination_stimuli/003092_2014-06-24_21-01-49_094959634447_rgbf000049-resize_2/003092_2014-06-24_21-01-49_094959634447_rgbf000049-resize_2-target.png,250,1.916,1.666,1,1895,508,257,499,252,488,feet,,,,,2316321,2462550,43
866092,DepthScenes,duration_discrimination,discrim_jsons/d0_dr.json,http://54.173.234.186/DepthDuration/depth_discrimination_MTurk/DepthDiscrim_HTML.html#1,1,1536,864,1536,864,6-19-2021,14-45-48,68,depth_discrimination_stimuli/000869_2014-06-09_20-50-18_260595134347_rgbf000060-resize_3/000869_2014-06-09_20-50-18_260595134347_rgbf000060-resize_3-target.png,depth_discrimination_stimuli/001136_2014-06-17_15-19-41_260595134347_rgbf000076-resize_3/001136_2014-06-17_15-19-41_260595134347_rgbf000076-resize_3-target.png,1000,2.266,1.8655,1,2556,514,988,499,1000,504,feet,,,,,2316321,2462550,43
866092,DepthScenes,duration_discrimination,discrim_jsons/d0_dr.json,http://54.173.234.186/DepthDuration/depth_discrimination_MTurk/DepthDiscrim_HTML.html#1,1,1536,864,1536,864,6-19-2021,14-45-48,69,depth_discrimination_stimuli/001417_2014-06-19_16-25-36_260595134347_rgbf000115-resize_5/001417_2014-06-19_16-25-36_260595134347_rgbf000115-resize_5-target.png,depth_discrimination_stimuli/003083_2014-06-15_15-21-03_094959634447_rgbf000063-resize_1/003083_2014-06-15_15-21-03_094959634447_rgbf000063-resize_1-target.png,1000,4.6255,4.1405,0,2991,500,1006,497,1000,510,feet,,,,,2316321,2462550,43
866092,DepthScenes,duration_discrimination,discrim_jsons/d0_dr.json,http://54.173.234.186/DepthDuration/depth_discrimination_MTurk/DepthDiscrim_HTML.html#1,1,1536,864,1536,864,6-19-2021,14-45-48,70,depth_discrimination_stimuli/000642_2014-06-08_16-59-25_260595134347_rgbf000098-resize_2/000642_2014-06-08_16-59-25_260595134347_rgbf000098-resize_2-target.png,depth_discrimination_stimuli/001815_2014-06-26_20-52-55_260595134347_rgbf000020-resize_0/001815_2014-06-26_20-52-55_260595134347_rgbf000020-resize_0-target.png,250,2.8815,3.3865,0,2017,510,249,506,249,501,feet,,,,,2316321,2462550,43
866092,DepthScenes,duration_discrimination,discrim_jsons/d0_dr.json,http://54.173.234.186/DepthDuration/depth_discrimination_MTurk/DepthDiscrim_HTML.html#1,1,1536,864,1536,864,6-19-2021,14-45-48,71,depth_discrimination_stimuli/001617_2014-06-20_11-35-32_260595134347_rgbf000066-resize_1/001617_2014-06-20_11-35-32_260595134347_rgbf000066-resize_1-target.png,depth_discrimination_stimuli/001133_2014-06-17_14-49-16_260595134347_rgbf000100-resize_0/001133_2014-06-17_14-49-16_260595134347_rgbf000100-resize_0-target.png,250,3.791,4.2115,1,1526,509,250,500,250,501,feet,,,,,2316321,2462550,43
866092,DepthScenes,duration_discrimination,discrim_jsons/d0_dr.json,http://54.173.234.186/DepthDuration/depth_discrimination_MTurk/DepthDiscrim_HTML.html#1,1,1536,864,1536,864,6-19-2021,14-45-48,72,depth_discrimination_stimuli/002425_2014-06-28_20-27-29_260595134347_rgbf000031-resize_8/002425_2014-06-28_20-27-29_260595134347_rgbf000031-resize_8-target.png,depth_discrimination_stimuli/001181_2014-06-17_15-50-57_260595134347_rgbf000106-resize_4/001181_2014-06-17_15-50-57_260595134347_rgbf000106-resize_4-target.png,1000,3.896,4.149,0,1976,501,1001,513,987,505,feet,,,,,2316321,2462550,43
866092,DepthScenes,duration_discrimination,discrim_jsons/d0_dr.json,http://54.173.234.186/DepthDuration/depth_discrimination_MTurk/DepthDiscrim_HTML.html#1,1,1536,864,1536,864,6-19-2021,14-45-48,73,depth_discrimination_stimuli/001110_2014-06-15_17-25-28_260595134347_rgbf000150-resize_1/001110_2014-06-15_17-25-28_260595134347_rgbf000150-resize_1-target.png,depth_discrimination_stimuli/000555_2014-06-09_22-42-23_260595134347_rgbf000037-resize_4/000555_2014-06-09_22-42-23_260595134347_rgbf000037-resize_4-target.png,1000,1.7115,1.9765,1,3922,511,1003,489,1000,502,feet,,,,,2316321,2462550,43
866092,DepthScenes,duration_discrimination,discrim_jsons/d0_dr.json,http://54.173.234.186/DepthDuration/depth_discrimination_MTurk/DepthDiscrim_HTML.html#1,1,1536,864,1536,864,6-19-2021,14-45-48,74,depth_discrimination_stimuli/001032_2014-06-08_13-23-17_260595134347_rgbf000021-resize_3/001032_2014-06-08_13-23-17_260595134347_rgbf000021-resize_3-target.png,depth_discrimination_stimuli/002790_2014-06-22_19-36-35_094959634447_rgbf000074-resize_4/002790_2014-06-22_19-36-35_094959634447_rgbf000074-resize_4-target.png,250,3.2725,3.512,0,1817,509,243,505,250,503,feet,,,,,2316321,2462550,43
866092,DepthScenes,duration_discrimination,discrim_jsons/d0_dr.json,http://54.173.234.186/DepthDuration/depth_discrimination_MTurk/DepthDiscrim_HTML.html#1,1,1536,864,1536,864,6-19-2021,14-45-48,75,depth_discrimination_stimuli/000773_2014-06-08_22-24-54_260595134347_rgbf000093-resize_1/000773_2014-06-08_22-24-54_260595134347_rgbf000093-resize_1-target.png,depth_discrimination_stimuli/000742_2014-06-08_18-48-09_260595134347_rgbf000164-resize_4/000742_2014-06-08_18-48-09_260595134347_rgbf000164-resize_4-target.png,1000,4.973,4.632,0,2725,509,994,512,995,492,feet,,,,,2316321,2462550,43
866092,DepthScenes,duration_discrimination,discrim_jsons/d0_dr.json,http://54.173.234.186/DepthDuration/depth_discrimination_MTurk/DepthDiscrim_HTML.html#1,1,1536,864,1536,864,6-19-2021,14-45-48,76,depth_discrimination_stimuli/001244_2014-06-17_16-47-45_260595134347_rgbf000030-resize_4/001244_2014-06-17_16-47-45_260595134347_rgbf000030-resize_4-target.png,depth_discrimination_stimuli/002763_2014-06-22_19-13-10_094959634447_rgbf000075-resize_4/002763_2014-06-22_19-13-10_094959634447_rgbf000075-resize_4-target.png,250,2.0425,1.68375,0,1997,510,241,513,238,506,feet,,,,,2316321,2462550,43
866092,DepthScenes,duration_discrimination,discrim_jsons/d0_dr.json,http://54.173.234.186/DepthDuration/depth_discrimination_MTurk/DepthDiscrim_HTML.html#1,1,1536,864,1536,864,6-19-2021,14-45-48,77,depth_discrimination_stimuli/001011_2014-06-08_23-18-54_260595134347_rgbf000044-resize_4/001011_2014-06-08_23-18-54_260595134347_rgbf000044-resize_4-target.png,depth_discrimination_stimuli/002678_2014-06-13_16-15-32_094959634447_rgbf000151-resize_6/002678_2014-06-13_16-15-32_094959634447_rgbf000151-resize_6-target.png,250,2.473,2.183,1,1494,509,252,505,235,514,feet,,,,,2316321,2462550,43
866092,DepthScenes,duration_discrimination,discrim_jsons/d0_dr.json,http://54.173.234.186/DepthDuration/depth_discrimination_MTurk/DepthDiscrim_HTML.html#1,1,1536,864,1536,864,6-19-2021,14-45-48,78,depth_discrimination_stimuli/001056_2014-06-08_18-46-44_260595134347_rgbf000068-resize_0/001056_2014-06-08_18-46-44_260595134347_rgbf000068-resize_0-target.png,depth_discrimination_stimuli/003079_2014-06-15_15-18-20_094959634447_rgbf000152-resize_8/003079_2014-06-15_15-18-20_094959634447_rgbf000152-resize_8-target.png,1000,2.6625,2.8775,0,1869,503,1007,491,1012,488,feet,,,,,2316321,2462550,43
866092,DepthScenes,duration_discrimination,discrim_jsons/d0_dr.json,http://54.173.234.186/DepthDuration/depth_discrimination_MTurk/DepthDiscrim_HTML.html#1,1,1536,864,1536,864,6-19-2021,14-45-48,79,depth_discrimination_stimuli/001158_2014-06-17_15-32-16_260595134347_rgbf000138-resize_2/001158_2014-06-17_15-32-16_260595134347_rgbf000138-resize_2-target.png,depth_discrimination_stimuli/003492_2014-05-21_15-50-55_094959634447_rgbf000828-resize_1/003492_2014-05-21_15-50-55_094959634447_rgbf000828-resize_1-target.png,1000,4.5315,4.06875,1,1719,503,1012,494,993,514,feet,,,,,2316321,2462550,43
866092,DepthScenes,duration_discrimination,discrim_jsons/d0_dr.json,http://54.173.234.186/DepthDuration/depth_discrimination_MTurk/DepthDiscrim_HTML.html#1,1,1536,864,1536,864,6-19-2021,14-45-48,80,depth_discrimination_stimuli/001392_2014-06-19_16-07-59_260595134347_rgbf000046-resize_1/001392_2014-06-19_16-07-59_260595134347_rgbf000046-resize_1-target.png,depth_discrimination_stimuli/003490_2014-05-21_15-50-11_094959634447_rgbf000101-resize_3/003490_2014-05-21_15-50-11_094959634447_rgbf000101-resize_3-target.png,250,4.135,3.6445,0,1995,508,247,509,250,501,feet,,,,,2316321,2462550,43
866092,DepthScenes,duration_discrimination,discrim_jsons/d0_dr.json,http://54.173.234.186/DepthDuration/depth_discrimination_MTurk/DepthDiscrim_HTML.html#1,1,1536,864,1536,864,6-19-2021,14-45-48,81,depth_discrimination_stimuli/000854_2014-06-09_19-43-13_260595134347_rgbf000066-resize_0/000854_2014-06-09_19-43-13_260595134347_rgbf000066-resize_0-target.png,depth_discrimination_stimuli/002758_2014-06-22_19-11-20_094959634447_rgbf000128-resize_1/002758_2014-06-22_19-11-20_094959634447_rgbf000128-resize_1-target.png,250,3.068,2.555,0,2424,504,247,511,250,490,feet,,,,,2316321,2462550,43
866092,DepthScenes,duration_discrimination,discrim_jsons/d0_dr.json,http://54.173.234.186/DepthDuration/depth_discrimination_MTurk/DepthDiscrim_HTML.html#1,1,1536,864,1536,864,6-19-2021,14-45-48,82,depth_discrimination_stimuli/002414_2014-06-28_20-24-58_260595134347_rgbf000067-resize_4/002414_2014-06-28_20-24-58_260595134347_rgbf000067-resize_4-target.png,depth_discrimination_stimuli/001828_2014-06-26_21-40-03_260595134347_rgbf000024-resize_0/001828_2014-06-26_21-40-03_260595134347_rgbf000024-resize_0-target.png,250,4.363,4.826,0,1485,512,253,500,236,501,feet,,,,,2316321,2462550,43
866092,DepthScenes,duration_discrimination,discrim_jsons/d0_dr.json,http://54.173.234.186/DepthDuration/depth_discrimination_MTurk/DepthDiscrim_HTML.html#1,1,1536,864,1536,864,6-19-2021,14-45-48,83,depth_discrimination_stimuli/000502_2014-06-08_23-02-32_260595134347_rgbf000063-resize_4/000502_2014-06-08_23-02-32_260595134347_rgbf000063-resize_4-target.png,depth_discrimination_stimuli/002987_2014-06-08_18-48-20_094959634447_rgbf000022-resize_0/002987_2014-06-08_18-48-20_094959634447_rgbf000022-resize_0-target.png,250,2.431,2.6775,1,1438,502,254,502,242,512,feet,,,,,2316321,2462550,43
866092,DepthScenes,duration_discrimination,discrim_jsons/d0_dr.json,http://54.173.234.186/DepthDuration/depth_discrimination_MTurk/DepthDiscrim_HTML.html#1,1,1536,864,1536,864,6-19-2021,14-45-48,84,depth_discrimination_stimuli/000740_2014-06-08_18-46-23_260595134347_rgbf000049-resize_6/000740_2014-06-08_18-46-23_260595134347_rgbf000049-resize_6-target.png,depth_discrimination_stimuli/002905_2014-06-03_18-04-43_094959634447_rgbf000151-resize_2/002905_2014-06-03_18-04-43_094959634447_rgbf000151-resize_2-target.png,250,1.687,2.0295,0,2357,505,254,497,244,504,feet,,,,,2316321,2462550,43
866092,DepthScenes,duration_discrimination,discrim_jsons/d0_dr.json,http://54.173.234.186/DepthDuration/depth_discrimination_MTurk/DepthDiscrim_HTML.html#1,1,1536,864,1536,864,6-19-2021,14-45-48,85,depth_discrimination_stimuli/001055_2014-06-08_18-45-35_260595134347_rgbf000111-resize_4/001055_2014-06-08_18-45-35_260595134347_rgbf000111-resize_4-target.png,depth_discrimination_stimuli/002209_2014-06-28_18-36-10_260595134347_rgbf000051-resize_1/002209_2014-06-28_18-36-10_260595134347_rgbf000051-resize_1-target.png,1000,2.429,2.057,1,3869,515,997,493,1010,491,feet,,,,,2316321,2462550,43
866092,DepthScenes,duration_discrimination,discrim_jsons/d0_dr.json,http://54.173.234.186/DepthDuration/depth_discrimination_MTurk/DepthDiscrim_HTML.html#1,1,1536,864,1536,864,6-19-2021,14-45-48,86,depth_discrimination_stimuli/000103_2014-05-14_22-01-17_260595134347_rgbf000152-resize_5/000103_2014-05-14_22-01-17_260595134347_rgbf000152-resize_5-target.png,depth_discrimination_stimuli/000810_2014-06-08_17-20-01_260595134347_rgbf000105-resize_0/000810_2014-06-08_17-20-01_260595134347_rgbf000105-resize_0-target.png,250,1.993,1.4865,1,3073,504,248,505,256,489,feet,,,,,2316321,2462550,43
866092,DepthScenes,duration_discrimination,discrim_jsons/d0_dr.json,http://54.173.234.186/DepthDuration/depth_discrimination_MTurk/DepthDiscrim_HTML.html#1,1,1536,864,1536,864,6-19-2021,14-45-48,87,depth_discrimination_stimuli/002750_2014-06-22_19-08-03_094959634447_rgbf000094-resize_4/002750_2014-06-22_19-08-03_094959634447_rgbf000094-resize_4-target.png,depth_discrimination_stimuli/001188_2014-06-17_15-54-10_260595134347_rgbf000090-resize_2/001188_2014-06-17_15-54-10_260595134347_rgbf000090-resize_2-target.png,1000,2.354,2.744,0,2289,504,1003,495,1003,510,feet,,,,,2316321,2462550,43
866092,DepthScenes,duration_discrimination,discrim_jsons/d0_dr.json,http://54.173.234.186/DepthDuration/depth_discrimination_MTurk/DepthDiscrim_HTML.html#1,1,1536,864,1536,864,6-19-2021,14-45-48,88,depth_discrimination_stimuli/000470_2014-06-09_19-42-40_260595134347_rgbf000094-resize_1/000470_2014-06-09_19-42-40_260595134347_rgbf000094-resize_1-target.png,depth_discrimination_stimuli/000109_2014-05-14_23-41-52_260595134347_rgbf000035-resize_9/000109_2014-05-14_23-41-52_260595134347_rgbf000035-resize_9-target.png,250,1.831,1.3545,1,1485,511,244,500,255,499,feet,,,,,2316321,2462550,43
866092,DepthScenes,duration_discrimination,discrim_jsons/d0_dr.json,http://54.173.234.186/DepthDuration/depth_discrimination_MTurk/DepthDiscrim_HTML.html#1,1,1536,864,1536,864,6-19-2021,14-45-48,89,depth_discrimination_stimuli/002570_2014-06-24_13-59-54_094959634447_rgbf000059-resize_0/002570_2014-06-24_13-59-54_094959634447_rgbf000059-resize_0-target.png,depth_discrimination_stimuli/001584_2014-06-20_11-07-43_260595134347_rgbf000002-resize_1/001584_2014-06-20_11-07-43_260595134347_rgbf000002-resize_1-target.png,1000,4.037,3.53,1,2024,506,1008,499,994,505,feet,,,,,2316321,2462550,43
866092,DepthScenes,duration_discrimination,discrim_jsons/d0_dr.json,http://54.173.234.186/DepthDuration/depth_discrimination_MTurk/DepthDiscrim_HTML.html#1,1,1536,864,1536,864,6-19-2021,14-45-48,90,depth_discrimination_stimuli/002725_2014-06-22_11-47-51_094959634447_rgbf000070-resize_1/002725_2014-06-22_11-47-51_094959634447_rgbf000070-resize_1-target.png,depth_discrimination_stimuli/002153_2014-06-25_21-27-18_260595134347_rgbf000038-resize_5/002153_2014-06-25_21-27-18_260595134347_rgbf000038-resize_5-target.png,250,2.195,2.505,0,1710,504,247,500,250,501,feet,,,,,2316321,2462550,43
866092,DepthScenes,duration_discrimination,discrim_jsons/d0_dr.json,http://54.173.234.186/DepthDuration/depth_discrimination_MTurk/DepthDiscrim_HTML.html#1,1,1536,864,1536,864,6-19-2021,14-45-48,91,depth_discrimination_stimuli/002072_2014-06-24_21-48-06_260595134347_rgbf000115-resize_0/002072_2014-06-24_21-48-06_260595134347_rgbf000115-resize_0-target.png,depth_discrimination_stimuli/001012_2014-06-08_23-19-38_260595134347_rgbf000057-resize_0/001012_2014-06-08_23-19-38_260595134347_rgbf000057-resize_0-target.png,250,4.702,1.38325,1,2100,509,242,502,254,500,feet,,,,,2316321,2462550,43
866092,DepthScenes,duration_discrimination,discrim_jsons/d0_dr.json,http://54.173.234.186/DepthDuration/depth_discrimination_MTurk/DepthDiscrim_HTML.html#1,1,1536,864,1536,864,6-19-2021,14-45-48,92,depth_discrimination_stimuli/002675_2014-06-13_16-08-49_094959634447_rgbf000151-resize_2/002675_2014-06-13_16-08-49_094959634447_rgbf000151-resize_2-target.png,depth_discrimination_stimuli/001222_2014-06-17_16-24-06_260595134347_rgbf000073-resize_0/001222_2014-06-17_16-24-06_260595134347_rgbf000073-resize_0-target.png,1000,4.5065,1.4385,1,2452,504,1000,500,1003,494,feet,,,,,2316321,2462550,43
866092,DepthScenes,duration_discrimination,discrim_jsons/d0_dr.json,http://54.173.234.186/DepthDuration/depth_discrimination_MTurk/DepthDiscrim_HTML.html#1,1,1536,864,1536,864,6-19-2021,14-45-48,93,depth_discrimination_stimuli/000414_2014-06-04_19-49-13_260595134347_rgbf000044-resize_0/000414_2014-06-04_19-49-13_260595134347_rgbf000044-resize_0-target.png,depth_discrimination_stimuli/002663_2014-06-13_15-50-26_094959634447_rgbf000075-resize_1/002663_2014-06-13_15-50-26_094959634447_rgbf000075-resize_1-target.png,250,4.329,4.7495,1,1886,512,252,490,246,508,feet,,,,,2316321,2462550,43
866092,DepthScenes,duration_discrimination,discrim_jsons/d0_dr.json,http://54.173.234.186/DepthDuration/depth_discrimination_MTurk/DepthDiscrim_HTML.html#1,1,1536,864,1536,864,6-19-2021,14-45-48,94,depth_discrimination_stimuli/000483_2014-06-09_20-41-45_260595134347_rgbf000116-resize_4/000483_2014-06-09_20-41-45_260595134347_rgbf000116-resize_4-target.png,depth_discrimination_stimuli/002964_2014-06-08_17-46-11_094959634447_rgbf000091-resize_4/002964_2014-06-08_17-46-11_094959634447_rgbf000091-resize_4-target.png,1000,1.337,1.691,0,2224,513,989,499,1004,505,feet,,,,,2316321,2462550,43
866092,DepthScenes,duration_discrimination,discrim_jsons/d0_dr.json,http://54.173.234.186/DepthDuration/depth_discrimination_MTurk/DepthDiscrim_HTML.html#1,1,1536,864,1536,864,6-19-2021,14-45-48,95,depth_discrimination_stimuli/000677_2014-06-08_23-10-32_260595134347_rgbf000158-resize_6/000677_2014-06-08_23-10-32_260595134347_rgbf000158-resize_6-target.png,depth_discrimination_stimuli/001150_2014-06-17_15-27-34_260595134347_rgbf000108-resize_2/001150_2014-06-17_15-27-34_260595134347_rgbf000108-resize_2-target.png,1000,3.556,4.0325,0,1920,506,1006,495,1005,497,feet,,,,,2316321,2462550,43
866092,DepthScenes,duration_discrimination,discrim_jsons/d0_dr.json,http://54.173.234.186/DepthDuration/depth_discrimination_MTurk/DepthDiscrim_HTML.html#1,1,1536,864,1536,864,6-19-2021,14-45-48,96,depth_discrimination_stimuli/000505_2014-06-08_23-03-23_260595134347_rgbf000091-resize_0/000505_2014-06-08_23-03-23_260595134347_rgbf000091-resize_0-target.png,depth_discrimination_stimuli/002057_2014-06-24_21-00-13_260595134347_rgbf000120-resize_1/002057_2014-06-24_21-00-13_260595134347_rgbf000120-resize_1-target.png,250,3.3105,2.967,0,2532,513,238,510,243,515,feet,,,,,2316321,2462550,43
866092,DepthScenes,duration_discrimination,discrim_jsons/d0_dr.json,http://54.173.234.186/DepthDuration/depth_discrimination_MTurk/DepthDiscrim_HTML.html#1,1,1536,864,1536,864,6-19-2021,14-45-48,96,,,,,,,2532,513,238,510,243,515,feet,,,,,2316321,2462550,43
866092,DepthScenes,duration_discrimination,discrim_jsons/d0_dr.json,http://54.173.234.186/DepthDuration/depth_discrimination_MTurk/DepthDiscrim_HTML.html#1,1,1519,864,1536,864,6-19-2021,14-45-48,98,,,,,,,2532,513,238,510,243,515,feet,1,3,depth_discrimination_stimuli/001132_2014-06-17_14-48-54_260595134347_rgbf000100-resize_2/001132_2014-06-17_14-48-54_260595134347_rgbf000100-resize-original.jpg,14664,2316321,2462550,43
866092,DepthScenes,duration_discrimination,discrim_jsons/d0_dr.json,http://54.173.234.186/DepthDuration/depth_discrimination_MTurk/DepthDiscrim_HTML.html#1,1,1519,864,1536,864,6-19-2021,14-45-48,99,,,,,,,2532,513,238,510,243,515,feet,2,3,depth_discrimination_stimuli/003079_2014-06-15_15-18-20_094959634447_rgbf000152-resize_8/003079_2014-06-15_15-18-20_094959634447_rgbf000152-resize-original.jpg,18680,2316321,2462550,43
866092,DepthScenes,duration_discrimination,discrim_jsons/d0_dr.json,http://54.173.234.186/DepthDuration/depth_discrimination_MTurk/DepthDiscrim_HTML.html#1,1,1519,864,1536,864,6-19-2021,14-45-48,100,,,,,,,2532,513,238,510,243,515,feet,2,2,depth_discrimination_stimuli/003092_2014-06-24_21-01-49_094959634447_rgbf000049-resize_2/003092_2014-06-24_21-01-49_094959634447_rgbf000049-resize-original.jpg,19383,2316321,2462550,43
866092,DepthScenes,duration_discrimination,discrim_jsons/d0_dr.json,http://54.173.234.186/DepthDuration/depth_discrimination_MTurk/DepthDiscrim_HTML.html#1,1,1519,864,1536,864,6-19-2021,14-45-48,101,,,,,,,2532,513,238,510,243,515,feet,3,1,depth_discrimination_stimuli/001724_2014-06-26_19-28-50_260595134347_rgbf000037-resize_7/001724_2014-06-26_19-28-50_260595134347_rgbf000037-resize-original.jpg,12055,2316321,2462550,43
866092,DepthScenes,duration_discrimination,discrim_jsons/d0_dr.json,http://54.173.234.186/DepthDuration/depth_discrimination_MTurk/DepthDiscrim_HTML.html#1,1,1519,864,1536,864,6-19-2021,14-45-48,102,,,,,,,2532,513,238,510,243,515,feet,2,1,depth_discrimination_stimuli/001806_2014-06-26_20-50-20_260595134347_rgbf000091-resize_1/001806_2014-06-26_20-50-20_260595134347_rgbf000091-resize-original.jpg,7620,2316321,2462550,43
866092,DepthScenes,duration_discrimination,discrim_jsons/d0_dr.json,http://54.173.234.186/DepthDuration/depth_discrimination_MTurk/DepthDiscrim_HTML.html#1,1,1519,864,1536,864,6-19-2021,14-45-48,103,,,,,,,2532,513,238,510,243,515,feet,1,2,depth_discrimination_stimuli/001167_2014-06-17_15-38-07_260595134347_rgbf000108-resize_0/001167_2014-06-17_15-38-07_260595134347_rgbf000108-resize-original.jpg,11444,2316321,2462550,43
866092,DepthScenes,duration_discrimination,discrim_jsons/d0_dr.json,http://54.173.234.186/DepthDuration/depth_discrimination_MTurk/DepthDiscrim_HTML.html#1,1,1519,864,1536,864,6-19-2021,14-45-48,104,,,,,,,2532,513,238,510,243,515,feet,2,1,depth_discrimination_stimuli/000677_2014-06-08_23-10-32_260595134347_rgbf000158-resize_6/000677_2014-06-08_23-10-32_260595134347_rgbf000158-resize-original.jpg,6779,2316321,2462550,43
866092,DepthScenes,duration_discrimination,discrim_jsons/d0_dr.json,http://54.173.234.186/DepthDuration/depth_discrimination_MTurk/DepthDiscrim_HTML.html#1,1,1519,864,1536,864,6-19-2021,14-45-48,105,,,,,,,2532,513,238,510,243,515,feet,2,1,depth_discrimination_stimuli/000555_2014-06-09_22-42-23_260595134347_rgbf000037-resize_4/000555_2014-06-09_22-42-23_260595134347_rgbf000037-resize-original.jpg,8975,2316321,2462550,43
866092,DepthScenes,duration_discrimination,discrim_jsons/d0_dr.json,http://54.173.234.186/DepthDuration/depth_discrimination_MTurk/DepthDiscrim_HTML.html#1,1,1519,864,1536,864,6-19-2021,14-45-48,106,,,,,,,2532,513,238,510,243,515,feet,2,2,depth_discrimination_stimuli/003228_2014-05-14_13-42-35_094959634447_rgbf000101-resize_1/003228_2014-05-14_13-42-35_094959634447_rgbf000101-resize-original.jpg,7236,2316321,2462550,43
866092,DepthScenes,duration_discrimination,discrim_jsons/d0_dr.json,http://54.173.234.186/DepthDuration/depth_discrimination_MTurk/DepthDiscrim_HTML.html#1,1,1519,864,1536,864,6-19-2021,14-45-48,107,,,,,,,2532,513,238,510,243,515,feet,2,1,depth_discrimination_stimuli/001059_2014-06-08_21-53-27_260595134347_rgbf000061-resize_4/001059_2014-06-08_21-53-27_260595134347_rgbf000061-resize-original.jpg,6380,2316321,2462550,43
866092,DepthScenes,duration_discrimination,discrim_jsons/d0_dr.json,http://54.173.234.186/DepthDuration/depth_discrimination_MTurk/DepthDiscrim_HTML.html#1,1,1519,864,1536,864,6-19-2021,14-45-48,108,,,,,,,2532,513,238,510,243,515,feet,3,3,depth_discrimination_stimuli/001584_2014-06-20_11-07-43_260595134347_rgbf000002-resize_1/001584_2014-06-20_11-07-43_260595134347_rgbf000002-resize-original.jpg,8116,2316321,2462550,43
866092,DepthScenes,duration_discrimination,discrim_jsons/d0_dr.json,http://54.173.234.186/DepthDuration/depth_discrimination_MTurk/DepthDiscrim_HTML.html#1,1,1519,864,1536,864,6-19-2021,14-45-48,109,,,,,,,2532,513,238,510,243,515,feet,1,4,depth_discrimination_stimuli/003587_2014-05-23_16-48-02_094959634447_rgbf002384-resize_2/003587_2014-05-23_16-48-02_094959634447_rgbf002384-resize-original.jpg,9612,2316321,2462550,43
866092,DepthScenes,duration_discrimination,discrim_jsons/d0_dr.json,http://54.173.234.186/DepthDuration/depth_discrimination_MTurk/DepthDiscrim_HTML.html#1,1,1519,864,1536,864,6-19-2021,14-45-48,110,,,,,,,2532,513,238,510,243,515,feet,3,1,depth_discrimination_stimuli/000137_2014-05-20_17-04-49_260595134347_rgbf000120-resize_1/000137_2014-05-20_17-04-49_260595134347_rgbf000120-resize-original.jpg,6452,2316321,2462550,43
866092,DepthScenes,duration_discrimination,discrim_jsons/d0_dr.json,http://54.173.234.186/DepthDuration/depth_discrimination_MTurk/DepthDiscrim_HTML.html#1,1,1519,864,1536,864,6-19-2021,14-45-48,111,,,,,,,2532,513,238,510,243,515,feet,3,3,depth_discrimination_stimuli/002103_2014-06-25_20-00-40_260595134347_rgbf000049-resize_0/002103_2014-06-25_20-00-40_260595134347_rgbf000049-resize-original.jpg,22596,2316321,2462550,43
866092,DepthScenes,duration_discrimination,discrim_jsons/d0_dr.json,http://54.173.234.186/DepthDuration/depth_discrimination_MTurk/DepthDiscrim_HTML.html#1,1,1519,864,1536,864,6-19-2021,14-45-48,112,,,,,,,2532,513,238,510,243,515,feet,3,3,depth_discrimination_stimuli/002678_2014-06-13_16-15-32_094959634447_rgbf000151-resize_6/002678_2014-06-13_16-15-32_094959634447_rgbf000151-resize-original.jpg,12975,2316321,2462550,43
866092,DepthScenes,duration_discrimination,discrim_jsons/d0_dr.json,http://54.173.234.186/DepthDuration/depth_discrimination_MTurk/DepthDiscrim_HTML.html#1,1,1519,864,1536,864,6-19-2021,14-45-48,113,,,,,,,2532,513,238,510,243,515,feet,2,1,depth_discrimination_stimuli/002279_2014-06-28_18-55-32_260595134347_rgbf000040-resize_5/002279_2014-06-28_18-55-32_260595134347_rgbf000040-resize-original.jpg,11499,2316321,2462550,43
866092,DepthScenes,duration_discrimination,discrim_jsons/d0_dr.json,http://54.173.234.186/DepthDuration/depth_discrimination_MTurk/DepthDiscrim_HTML.html#1,1,1519,864,1536,864,6-19-2021,14-45-48,114,,,,,,,2532,513,238,510,243,515,feet,2,2,depth_discrimination_stimuli/000749_2014-06-08_21-55-06_260595134347_rgbf000070-resize_2/000749_2014-06-08_21-55-06_260595134347_rgbf000070-resize-original.jpg,9375,2316321,2462550,43
866092,DepthScenes,duration_discrimination,discrim_jsons/d0_dr.json,http://54.173.234.186/DepthDuration/depth_discrimination_MTurk/DepthDiscrim_HTML.html#1,1,1519,864,1536,864,6-19-2021,14-45-48,115,,,,,,,2532,513,238,510,243,515,feet,2,4,depth_discrimination_stimuli/003288_2014-05-14_21-50-30_094959634447_rgbf000028-resize_3/003288_2014-05-14_21-50-30_094959634447_rgbf000028-resize-original.jpg,13739,2316321,2462550,43
866092,DepthScenes,duration_discrimination,discrim_jsons/d0_dr.json,http://54.173.234.186/DepthDuration/depth_discrimination_MTurk/DepthDiscrim_HTML.html#1,1,1519,864,1536,864,6-19-2021,14-45-48,116,,,,,,,2532,513,238,510,243,515,feet,3,3,depth_discrimination_stimuli/002375_2014-06-28_20-13-44_260595134347_rgbf000032-resize_1/002375_2014-06-28_20-13-44_260595134347_rgbf000032-resize-original.jpg,10712,2316321,2462550,43
866092,DepthScenes,duration_discrimination,discrim_jsons/d0_dr.json,http://54.173.234.186/DepthDuration/depth_discrimination_MTurk/DepthDiscrim_HTML.html#1,1,1519,864,1536,864,6-19-2021,14-45-48,117,,,,,,,2532,513,238,510,243,515,feet,2,2,depth_discrimination_stimuli/001197_2014-06-17_16-01-50_260595134347_rgbf000103-resize_4/001197_2014-06-17_16-01-50_260595134347_rgbf000103-resize-original.jpg,5993,2316321,2462550,43
866092,DepthScenes,duration_discrimination,discrim_jsons/d0_dr.json,http://54.173.234.186/DepthDuration/depth_discrimination_MTurk/DepthDiscrim_HTML.html#1,1,1519,864,1536,864,6-19-2021,14-45-48,118,,,,,,,2532,513,238,510,243,515,feet,1,1,depth_discrimination_stimuli/000109_2014-05-14_23-41-52_260595134347_rgbf000035-resize_9/000109_2014-05-14_23-41-52_260595134347_rgbf000035-resize-original.jpg,7148,2316321,2462550,43
866092,DepthScenes,duration_discrimination,discrim_jsons/d0_dr.json,http://54.173.234.186/DepthDuration/depth_discrimination_MTurk/DepthDiscrim_HTML.html#1,1,1519,864,1536,864,6-19-2021,14-45-48,119,,,,,,,2532,513,238,510,243,515,feet,1,1,depth_discrimination_stimuli/003070_2014-06-15_14-58-27_094959634447_rgbf000150-resize_3/003070_2014-06-15_14-58-27_094959634447_rgbf000150-resize-original.jpg,6763,2316321,2462550,43
866092,DepthScenes,duration_discrimination,discrim_jsons/d0_dr.json,http://54.173.234.186/DepthDuration/depth_discrimination_MTurk/DepthDiscrim_HTML.html#1,1,1519,864,1536,864,6-19-2021,14-45-48,120,,,,,,,2532,513,238,510,243,515,feet,2,3,depth_discrimination_stimuli/001571_2014-06-20_17-21-32_260595134347_rgbf000089-resize_1/001571_2014-06-20_17-21-32_260595134347_rgbf000089-resize-original.jpg,10064,2316321,2462550,43
866092,DepthScenes,duration_discrimination,discrim_jsons/d0_dr.json,http://54.173.234.186/DepthDuration/depth_discrimination_MTurk/DepthDiscrim_HTML.html#1,1,1519,864,1536,864,6-19-2021,14-45-48,121,,,,,,,2532,513,238,510,243,515,feet,3,3,depth_discrimination_stimuli/000709_2014-06-08_13-51-55_260595134347_rgbf000068-resize_3/000709_2014-06-08_13-51-55_260595134347_rgbf000068-resize-original.jpg,10108,2316321,2462550,43
866092,DepthScenes,duration_discrimination,discrim_jsons/d0_dr.json,http://54.173.234.186/DepthDuration/depth_discrimination_MTurk/DepthDiscrim_HTML.html#1,1,1519,864,1536,864,6-19-2021,14-45-48,122,,,,,,,2532,513,238,510,243,515,feet,2,1,depth_discrimination_stimuli/002579_2014-06-24_14-08-03_094959634447_rgbf000061-resize_2/002579_2014-06-24_14-08-03_094959634447_rgbf000061-resize-original.jpg,6844,2316321,2462550,43
866092,DepthScenes,duration_discrimination,discrim_jsons/d0_dr.json,http://54.173.234.186/DepthDuration/depth_discrimination_MTurk/DepthDiscrim_HTML.html#1,1,1519,864,1536,864,6-19-2021,14-45-48,123,,,,,,,2532,513,238,510,243,515,feet,1,2,depth_discrimination_stimuli/002988_2014-06-15_12-24-20_094959634447_rgbf000150-resize_1/002988_2014-06-15_12-24-20_094959634447_rgbf000150-resize-original.jpg,11604,2316321,2462550,43
866092,DepthScenes,duration_discrimination,discrim_jsons/d0_dr.json,http://54.173.234.186/DepthDuration/depth_discrimination_MTurk/DepthDiscrim_HTML.html#1,1,1519,864,1536,864,6-19-2021,14-45-48,124,,,,,,,2532,513,238,510,243,515,feet,2,5,depth_discrimination_stimuli/002905_2014-06-03_18-04-43_094959634447_rgbf000151-resize_2/002905_2014-06-03_18-04-43_094959634447_rgbf000151-resize-original.jpg,8712,2316321,2462550,43
866092,DepthScenes,duration_discrimination,discrim_jsons/d0_dr.json,http://54.173.234.186/DepthDuration/depth_discrimination_MTurk/DepthDiscrim_HTML.html#1,1,1519,864,1536,864,6-19-2021,14-45-48,125,,,,,,,2532,513,238,510,243,515,feet,2,2,depth_discrimination_stimuli/001029_2014-06-08_13-17-57_260595134347_rgbf000065-resize_1/001029_2014-06-08_13-17-57_260595134347_rgbf000065-resize-original.jpg,15268,2316321,2462550,43
866092,DepthScenes,duration_discrimination,discrim_jsons/d0_dr.json,http://54.173.234.186/DepthDuration/depth_discrimination_MTurk/DepthDiscrim_HTML.html#1,1,1519,864,1536,864,6-19-2021,14-45-48,126,,,,,,,2532,513,238,510,243,515,feet,1,2,depth_discrimination_stimuli/003069_2014-06-15_14-57-50_094959634447_rgbf000150-resize_4/003069_2014-06-15_14-57-50_094959634447_rgbf000150-resize-original.jpg,6148,2316321,2462550,43
866092,DepthScenes,duration_discrimination,discrim_jsons/d0_dr.json,http://54.173.234.186/DepthDuration/depth_discrimination_MTurk/DepthDiscrim_HTML.html#1,1,1519,864,1536,864,6-19-2021,14-45-48,127,,,,,,,2532,513,238,510,243,515,feet,2,2,depth_discrimination_stimuli/002425_2014-06-28_20-27-29_260595134347_rgbf000031-resize_8/002425_2014-06-28_20-27-29_260595134347_rgbf000031-resize-original.jpg,6553,2316321,2462550,43
866092,DepthScenes,duration_discrimination,discrim_jsons/d0_dr.json,http://54.173.234.186/DepthDuration/depth_discrimination_MTurk/DepthDiscrim_HTML.html#1,1,1519,864,1536,864,6-19-2021,14-45-48,128,,,,,,,2532,513,238,510,243,515,feet,1,3,depth_discrimination_stimuli/000556_2014-06-09_22-42-56_260595134347_rgbf000214-resize_1/000556_2014-06-09_22-42-56_260595134347_rgbf000214-resize-original.jpg,5810,2316321,2462550,43
866092,DepthScenes,duration_discrimination,discrim_jsons/d0_dr.json,http://54.173.234.186/DepthDuration/depth_discrimination_MTurk/DepthDiscrim_HTML.html#1,1,1519,864,1536,864,6-19-2021,14-45-48,129,,,,,,,2532,513,238,510,243,515,feet,1,3,depth_discrimination_stimuli/002344_2014-06-28_20-06-29_260595134347_rgbf000030-resize_1/002344_2014-06-28_20-06-29_260595134347_rgbf000030-resize-original.jpg,8212,2316321,2462550,43
866092,DepthScenes,duration_discrimination,discrim_jsons/d0_dr.json,http://54.173.234.186/DepthDuration/depth_discrimination_MTurk/DepthDiscrim_HTML.html#1,1,1519,864,1536,864,6-19-2021,14-45-48,130,,,,,,,2532,513,238,510,243,515,feet,1,4,depth_discrimination_stimuli/001532_2014-06-20_16-50-41_260595134347_rgbf000081-resize_4/001532_2014-06-20_16-50-41_260595134347_rgbf000081-resize-original.jpg,8500,2316321,2462550,43
866092,DepthScenes,duration_discrimination,discrim_jsons/d0_dr.json,http://54.173.234.186/DepthDuration/depth_discrimination_MTurk/DepthDiscrim_HTML.html#1,1,1519,864,1536,864,6-19-2021,14-45-48,131,,,,,,,2532,513,238,510,243,515,feet,3,2,depth_discrimination_stimuli/000758_2014-06-08_22-05-08_260595134347_rgbf000085-resize_0/000758_2014-06-08_22-05-08_260595134347_rgbf000085-resize-original.jpg,8112,2316321,2462550,43
866092,DepthScenes,duration_discrimination,discrim_jsons/d0_dr.json,http://54.173.234.186/DepthDuration/depth_discrimination_MTurk/DepthDiscrim_HTML.html#1,1,1519,864,1536,864,6-19-2021,14-45-48,132,,,,,,,2532,513,238,510,243,515,feet,1,1,depth_discrimination_stimuli/002953_2014-06-08_17-32-18_094959634447_rgbf000059-resize_5/002953_2014-06-08_17-32-18_094959634447_rgbf000059-resize-original.jpg,9623,2316321,2462550,43
866092,DepthScenes,duration_discrimination,discrim_jsons/d0_dr.json,http://54.173.234.186/DepthDuration/depth_discrimination_MTurk/DepthDiscrim_HTML.html#1,1,1519,864,1536,864,6-19-2021,14-45-48,133,,,,,,,2532,513,238,510,243,515,feet,3,5,depth_discrimination_stimuli/002784_2014-06-22_19-26-30_094959634447_rgbf000083-resize_3/002784_2014-06-22_19-26-30_094959634447_rgbf000083-resize-original.jpg,9695,2316321,2462550,43
866092,DepthScenes,duration_discrimination,discrim_jsons/d0_dr.json,http://54.173.234.186/DepthDuration/depth_discrimination_MTurk/DepthDiscrim_HTML.html#1,1,1519,864,1536,864,6-19-2021,14-45-48,134,,,,,,,2532,513,238,510,243,515,feet,3,2,depth_discrimination_stimuli/002637_2014-06-24_14-51-13_094959634447_rgbf000066-resize_4/002637_2014-06-24_14-51-13_094959634447_rgbf000066-resize-original.jpg,7692,2316321,2462550,43
866092,DepthScenes,duration_discrimination,discrim_jsons/d0_dr.json,http://54.173.234.186/DepthDuration/depth_discrimination_MTurk/DepthDiscrim_HTML.html#1,1,1519,864,1536,864,6-19-2021,14-45-48,135,,,,,,,2532,513,238,510,243,515,feet,3,3,depth_discrimination_stimuli/003292_2014-05-14_21-53-49_094959634447_rgbf000100-resize_2/003292_2014-05-14_21-53-49_094959634447_rgbf000100-resize-original.jpg,10781,2316321,2462550,43
866092,DepthScenes,duration_discrimination,discrim_jsons/d0_dr.json,http://54.173.234.186/DepthDuration/depth_discrimination_MTurk/DepthDiscrim_HTML.html#1,1,1519,864,1536,864,6-19-2021,14-45-48,136,,,,,,,2532,513,238,510,243,515,feet,2,2,depth_discrimination_stimuli/003621_2014-05-23_18-06-08_094959634447_rgbf000101-resize_1/003621_2014-05-23_18-06-08_094959634447_rgbf000101-resize-original.jpg,5909,2316321,2462550,43
866092,DepthScenes,duration_discrimination,discrim_jsons/d0_dr.json,http://54.173.234.186/DepthDuration/depth_discrimination_MTurk/DepthDiscrim_HTML.html#1,1,1519,864,1536,864,6-19-2021,14-45-48,137,,,,,,,2532,513,238,510,243,515,feet,3,5,depth_discrimination_stimuli/000486_2014-06-09_20-47-20_260595134347_rgbf000143-resize_2/000486_2014-06-09_20-47-20_260595134347_rgbf000143-resize-original.jpg,15144,2316321,2462550,43
866092,DepthScenes,duration_discrimination,discrim_jsons/d0_dr.json,http://54.173.234.186/DepthDuration/depth_discrimination_MTurk/DepthDiscrim_HTML.html#1,1,1519,864,1536,864,6-19-2021,14-45-48,138,,,,,,,2532,513,238,510,243,515,feet,2,3,depth_discrimination_stimuli/000720_2014-06-08_18-37-27_260595134347_rgbf000203-resize_4/000720_2014-06-08_18-37-27_260595134347_rgbf000203-resize-original.jpg,10531,2316321,2462550,43
866092,DepthScenes,duration_discrimination,discrim_jsons/d0_dr.json,http://54.173.234.186/DepthDuration/depth_discrimination_MTurk/DepthDiscrim_HTML.html#1,1,1519,864,1536,864,6-19-2021,14-45-48,139,,,,,,,2532,513,238,510,243,515,feet,4,3,depth_discrimination_stimuli/002414_2014-06-28_20-24-58_260595134347_rgbf000067-resize_4/002414_2014-06-28_20-24-58_260595134347_rgbf000067-resize-original.jpg,7704,2316321,2462550,43
866092,DepthScenes,duration_discrimination,discrim_jsons/d0_dr.json,http://54.173.234.186/DepthDuration/depth_discrimination_MTurk/DepthDiscrim_HTML.html#1,1,1519,864,1536,864,6-19-2021,14-45-48,140,,,,,,,2532,513,238,510,243,515,feet,3,4,depth_discrimination_stimuli/001199_2014-06-17_16-03-48_260595134347_rgbf000077-resize_0/001199_2014-06-17_16-03-48_260595134347_rgbf000077-resize-original.jpg,11439,2316321,2462550,43
866092,DepthScenes,duration_discrimination,discrim_jsons/d0_dr.json,http://54.173.234.186/DepthDuration/depth_discrimination_MTurk/DepthDiscrim_HTML.html#1,1,1519,864,1536,864,6-19-2021,14-45-48,141,,,,,,,2532,513,238,510,243,515,feet,1,4,depth_discrimination_stimuli/001094_2014-06-15_17-36-00_260595134347_rgbf000205-resize_0/001094_2014-06-15_17-36-00_260595134347_rgbf000205-resize-original.jpg,10540,2316321,2462550,43
866092,DepthScenes,duration_discrimination,discrim_jsons/d0_dr.json,http://54.173.234.186/DepthDuration/depth_discrimination_MTurk/DepthDiscrim_HTML.html#1,1,1519,864,1536,864,6-19-2021,14-45-48,142,,,,,,,2532,513,238,510,243,515,feet,2,3,depth_discrimination_stimuli/002444_2014-06-28_20-32-08_260595134347_rgbf000027-resize_0/002444_2014-06-28_20-32-08_260595134347_rgbf000027-resize-original.jpg,5792,2316321,2462550,43
866092,DepthScenes,duration_discrimination,discrim_jsons/d0_dr.json,http://54.173.234.186/DepthDuration/depth_discrimination_MTurk/DepthDiscrim_HTML.html#1,1,1519,864,1536,864,6-19-2021,14-45-48,143,,,,,,,2532,513,238,510,243,515,feet,2,4,depth_discrimination_stimuli/002464_2014-06-28_20-36-57_260595134347_rgbf000029-resize_0/002464_2014-06-28_20-36-57_260595134347_rgbf000029-resize-original.jpg,7664,2316321,2462550,43
866092,DepthScenes,duration_discrimination,discrim_jsons/d0_dr.json,http://54.173.234.186/DepthDuration/depth_discrimination_MTurk/DepthDiscrim_HTML.html#1,1,1519,864,1536,864,6-19-2021,14-45-48,144,,,,,,,2532,513,238,510,243,515,feet,2,1,depth_discrimination_stimuli/000642_2014-06-08_16-59-25_260595134347_rgbf000098-resize_2/000642_2014-06-08_16-59-25_260595134347_rgbf000098-resize-original.jpg,9532,2316321,2462550,43
866092,DepthScenes,duration_discrimination,discrim_jsons/d0_dr.json,http://54.173.234.186/DepthDuration/depth_discrimination_MTurk/DepthDiscrim_HTML.html#1,1,1519,864,1536,864,6-19-2021,14-45-48,145,,,,,,,2532,513,238,510,243,515,feet,1,2,depth_discrimination_stimuli/002509_2014-06-24_13-19-22_094959634447_rgbf000077-resize_0/002509_2014-06-24_13-19-22_094959634447_rgbf000077-resize-original.jpg,8664,2316321,2462550,43
866092,DepthScenes,duration_discrimination,discrim_jsons/d0_dr.json,http://54.173.234.186/DepthDuration/depth_discrimination_MTurk/DepthDiscrim_HTML.html#1,1,1519,864,1536,864,6-19-2021,14-45-48,146,,,,,,,2532,513,238,510,243,515,feet,2,4,depth_discrimination_stimuli/002549_2014-06-24_13-41-39_094959634447_rgbf000022-resize_3/002549_2014-06-24_13-41-39_094959634447_rgbf000022-resize-original.jpg,6060,2316321,2462550,43
866092,DepthScenes,duration_discrimination,discrim_jsons/d0_dr.json,http://54.173.234.186/DepthDuration/depth_discrimination_MTurk/DepthDiscrim_HTML.html#1,1,1519,864,1536,864,6-19-2021,14-45-48,147,,,,,,,2532,513,238,510,243,515,feet,1,2,depth_discrimination_stimuli/003423_2014-05-21_10-23-26_094959634447_rgbf002665-resize_2/003423_2014-05-21_10-23-26_094959634447_rgbf002665-resize-original.jpg,8576,2316321,2462550,43
866092,DepthScenes,duration_discrimination,discrim_jsons/d0_dr.json,http://54.173.234.186/DepthDuration/depth_discrimination_MTurk/DepthDiscrim_HTML.html#1,1,1519,864,1536,864,6-19-2021,14-45-48,148,,,,,,,2532,513,238,510,243,515,feet,1,3,depth_discrimination_stimuli/002199_2014-06-28_18-33-56_260595134347_rgbf000074-resize_0/002199_2014-06-28_18-33-56_260595134347_rgbf000074-resize-original.jpg,10579,2316321,2462550,43
866092,DepthScenes,duration_discrimination,discrim_jsons/d0_dr.json,http://54.173.234.186/DepthDuration/depth_discrimination_MTurk/DepthDiscrim_HTML.html#1,1,1519,864,1536,864,6-19-2021,14-45-48,149,,,,,,,2532,513,238,510,243,515,feet,3,5,depth_discrimination_stimuli/002700_2014-06-22_11-27-02_094959634447_rgbf000124-resize_3/002700_2014-06-22_11-27-02_094959634447_rgbf000124-resize-original.jpg,8552,2316321,2462550,43
866092,DepthScenes,duration_discrimination,discrim_jsons/d0_dr.json,http://54.173.234.186/DepthDuration/depth_discrimination_MTurk/DepthDiscrim_HTML.html#1,1,1519,864,1536,864,6-19-2021,14-45-48,150,,,,,,,2532,513,238,510,243,515,feet,3,2,depth_discrimination_stimuli/002213_2014-06-28_18-37-58_260595134347_rgbf000055-resize_1/002213_2014-06-28_18-37-58_260595134347_rgbf000055-resize-original.jpg,8164,2316321,2462550,43
866092,DepthScenes,duration_discrimination,discrim_jsons/d0_dr.json,http://54.173.234.186/DepthDuration/depth_discrimination_MTurk/DepthDiscrim_HTML.html#1,1,1519,864,1536,864,6-19-2021,14-45-48,151,,,,,,,2532,513,238,510,243,515,feet,5,5,scene_property_catch_stimuli/sun_aoquhiddlfqapdlz.jpg,8440,2316321,2462550,43
866092,DepthScenes,duration_discrimination,discrim_jsons/d0_dr.json,http://54.173.234.186/DepthDuration/depth_discrimination_MTurk/DepthDiscrim_HTML.html#1,1,1519,864,1536,864,6-19-2021,14-45-48,152,,,,,,,2532,513,238,510,243,515,feet,3,2,depth_discrimination_stimuli/000735_2014-06-08_18-23-50_260595134347_rgbf000163-resize_2/000735_2014-06-08_18-23-50_260595134347_rgbf000163-resize-original.jpg,11824,2316321,2462550,43
866092,DepthScenes,duration_discrimination,discrim_jsons/d0_dr.json,http://54.173.234.186/DepthDuration/depth_discrimination_MTurk/DepthDiscrim_HTML.html#1,1,1519,864,1536,864,6-19-2021,14-45-48,153,,,,,,,2532,513,238,510,243,515,feet,1,1,depth_discrimination_stimuli/002964_2014-06-08_17-46-11_094959634447_rgbf000091-resize_4/002964_2014-06-08_17-46-11_094959634447_rgbf000091-resize-original.jpg,9608,2316321,2462550,43
866092,DepthScenes,duration_discrimination,discrim_jsons/d0_dr.json,http://54.173.234.186/DepthDuration/depth_discrimination_MTurk/DepthDiscrim_HTML.html#1,1,1519,864,1536,864,6-19-2021,14-45-48,154,,,,,,,2532,513,238,510,243,515,feet,2,2,depth_discrimination_stimuli/001133_2014-06-17_14-49-16_260595134347_rgbf000100-resize_0/001133_2014-06-17_14-49-16_260595134347_rgbf000100-resize-original.jpg,15564,2316321,2462550,43
866092,DepthScenes,duration_discrimination,discrim_jsons/d0_dr.json,http://54.173.234.186/DepthDuration/depth_discrimination_MTurk/DepthDiscrim_HTML.html#1,1,1519,864,1536,864,6-19-2021,14-45-48,155,,,,,,,2532,513,238,510,243,515,feet,3,1,depth_discrimination_stimuli/000522_2014-06-08_13-35-06_260595134347_rgbf000244-resize_1/000522_2014-06-08_13-35-06_260595134347_rgbf000244-resize-original.jpg,10356,2316321,2462550,43
866092,DepthScenes,duration_discrimination,discrim_jsons/d0_dr.json,http://54.173.234.186/DepthDuration/depth_discrimination_MTurk/DepthDiscrim_HTML.html#1,1,1519,864,1536,864,6-19-2021,14-45-48,156,,,,,,,2532,513,238,510,243,515,feet,3,3,depth_discrimination_stimuli/001175_2014-06-17_15-45-55_260595134347_rgbf000129-resize_4/001175_2014-06-17_15-45-55_260595134347_rgbf000129-resize-original.jpg,13648,2316321,2462550,43
866092,DepthScenes,duration_discrimination,discrim_jsons/d0_dr.json,http://54.173.234.186/DepthDuration/depth_discrimination_MTurk/DepthDiscrim_HTML.html#1,1,1519,864,1536,864,6-19-2021,14-45-48,157,,,,,,,2532,513,238,510,243,515,feet,2,2,depth_discrimination_stimuli/002663_2014-06-13_15-50-26_094959634447_rgbf000075-resize_1/002663_2014-06-13_15-50-26_094959634447_rgbf000075-resize-original.jpg,13991,2316321,2462550,43
866092,DepthScenes,duration_discrimination,discrim_jsons/d0_dr.json,http://54.173.234.186/DepthDuration/depth_discrimination_MTurk/DepthDiscrim_HTML.html#1,1,1519,864,1536,864,6-19-2021,14-45-48,158,,,,,,,2532,513,238,510,243,515,feet,1,1,scene_property_catch_stimuli/000675_2014-06-08_22-59-18_260595134347_rgbf000096-resize.jpg,9108,2316321,2462550,43
866092,DepthScenes,duration_discrimination,discrim_jsons/d0_dr.json,http://54.173.234.186/DepthDuration/depth_discrimination_MTurk/DepthDiscrim_HTML.html#1,1,1519,864,1536,864,6-19-2021,14-45-48,159,,,,,,,2532,513,238,510,243,515,feet,3,4,depth_discrimination_stimuli/000691_2014-06-08_13-08-50_260595134347_rgbf000132-resize_3/000691_2014-06-08_13-08-50_260595134347_rgbf000132-resize-original.jpg,11196,2316321,2462550,43
866092,DepthScenes,duration_discrimination,discrim_jsons/d0_dr.json,http://54.173.234.186/DepthDuration/depth_discrimination_MTurk/DepthDiscrim_HTML.html#1,1,1519,864,1536,864,6-19-2021,14-45-48,160,,,,,,,2532,513,238,510,243,515,feet,1,2,depth_discrimination_stimuli/002136_2014-06-25_21-18-03_260595134347_rgbf000109-resize_3/002136_2014-06-25_21-18-03_260595134347_rgbf000109-resize-original.jpg,11824,2316321,2462550,43
866092,DepthScenes,duration_discrimination,discrim_jsons/d0_dr.json,http://54.173.234.186/DepthDuration/depth_discrimination_MTurk/DepthDiscrim_HTML.html#1,1,1519,864,1536,864,6-19-2021,14-45-48,161,,,,,,,2532,513,238,510,243,515,feet,3,3,depth_discrimination_stimuli/000542_2014-06-08_18-27-08_260595134347_rgbf000118-resize_1/000542_2014-06-08_18-27-08_260595134347_rgbf000118-resize-original.jpg,10680,2316321,2462550,43
866092,DepthScenes,duration_discrimination,discrim_jsons/d0_dr.json,http://54.173.234.186/DepthDuration/depth_discrimination_MTurk/DepthDiscrim_HTML.html#1,1,1519,864,1536,864,6-19-2021,14-45-48,162,,,,,,,2532,513,238,510,243,515,feet,1,3,depth_discrimination_stimuli/003048_2014-06-15_13-49-43_094959634447_rgbf000150-resize_1/003048_2014-06-15_13-49-43_094959634447_rgbf000150-resize-original.jpg,9279,2316321,2462550,43
866092,DepthScenes,duration_discrimination,discrim_jsons/d0_dr.json,http://54.173.234.186/DepthDuration/depth_discrimination_MTurk/DepthDiscrim_HTML.html#1,1,1519,864,1536,864,6-19-2021,14-45-48,163,,,,,,,2532,513,238,510,243,515,feet,5,5,depth_discrimination_stimuli/002118_2014-06-25_20-32-08_260595134347_rgbf000078-resize_1/002118_2014-06-25_20-32-08_260595134347_rgbf000078-resize-original.jpg,11632,2316321,2462550,43
866092,DepthScenes,duration_discrimination,discrim_jsons/d0_dr.json,http://54.173.234.186/DepthDuration/depth_discrimination_MTurk/DepthDiscrim_HTML.html#1,1,1519,864,1536,864,6-19-2021,14-45-48,164,,,,,,,2532,513,238,510,243,515,feet,2,1,depth_discrimination_stimuli/000740_2014-06-08_18-46-23_260595134347_rgbf000049-resize_6/000740_2014-06-08_18-46-23_260595134347_rgbf000049-resize-original.jpg,10148,2316321,2462550,43
866092,DepthScenes,duration_discrimination,discrim_jsons/d0_dr.json,http://54.173.234.186/DepthDuration/depth_discrimination_MTurk/DepthDiscrim_HTML.html#1,1,1519,864,1536,864,6-19-2021,14-45-48,165,,,,,,,2532,513,238,510,243,515,feet,3,2,scene_property_catch_stimuli/sun_bpzzatthlcapxzol.jpg,6620,2316321,2462550,43
866092,DepthScenes,duration_discrimination,discrim_jsons/d0_dr.json,http://54.173.234.186/DepthDuration/depth_discrimination_MTurk/DepthDiscrim_HTML.html#1,1,1519,864,1536,864,6-19-2021,14-45-48,166,,,,,,,2532,513,238,510,243,515,feet,2,3,depth_discrimination_stimuli/000635_2014-06-08_16-38-42_260595134347_rgbf000106-resize_1/000635_2014-06-08_16-38-42_260595134347_rgbf000106-resize-original.jpg,14692,2316321,2462550,43
866092,DepthScenes,duration_discrimination,discrim_jsons/d0_dr.json,http://54.173.234.186/DepthDuration/depth_discrimination_MTurk/DepthDiscrim_HTML.html#1,1,1519,864,1536,864,6-19-2021,14-45-48,167,,,,,,,2532,513,238,510,243,515,feet,3,4,depth_discrimination_stimuli/002750_2014-06-22_19-08-03_094959634447_rgbf000094-resize_4/002750_2014-06-22_19-08-03_094959634447_rgbf000094-resize-original.jpg,13319,2316321,2462550,43
866092,DepthScenes,duration_discrimination,discrim_jsons/d0_dr.json,http://54.173.234.186/DepthDuration/depth_discrimination_MTurk/DepthDiscrim_HTML.html#1,1,1519,864,1536,864,6-19-2021,14-45-48,168,,,,,,,2532,513,238,510,243,515,feet,2,3,depth_discrimination_stimuli/001150_2014-06-17_15-27-34_260595134347_rgbf000108-resize_2/001150_2014-06-17_15-27-34_260595134347_rgbf000108-resize-original.jpg,9768,2316321,2462550,43
866092,DepthScenes,duration_discrimination,discrim_jsons/d0_dr.json,http://54.173.234.186/DepthDuration/depth_discrimination_MTurk/DepthDiscrim_HTML.html#1,1,1519,864,1536,864,6-19-2021,14-45-48,169,,,,,,,2532,513,238,510,243,515,feet,3,2,depth_discrimination_stimuli/002639_2014-06-24_14-51-37_094959634447_rgbf000074-resize_4/002639_2014-06-24_14-51-37_094959634447_rgbf000074-resize-original.jpg,9096,2316321,2462550,43
866092,DepthScenes,duration_discrimination,discrim_jsons/d0_dr.json,http://54.173.234.186/DepthDuration/depth_discrimination_MTurk/DepthDiscrim_HTML.html#1,1,1519,864,1536,864,6-19-2021,14-45-48,170,,,,,,,2532,513,238,510,243,515,feet,1,3,depth_discrimination_stimuli/000810_2014-06-08_17-20-01_260595134347_rgbf000105-resize_0/000810_2014-06-08_17-20-01_260595134347_rgbf000105-resize-original.jpg,6964,2316321,2462550,43
866092,DepthScenes,duration_discrimination,discrim_jsons/d0_dr.json,http://54.173.234.186/DepthDuration/depth_discrimination_MTurk/DepthDiscrim_HTML.html#1,1,1519,864,1536,864,6-19-2021,14-45-48,171,,,,,,,2532,513,238,510,243,515,feet,4,5,depth_discrimination_stimuli/000943_2014-06-09_19-31-07_260595134347_rgbf000128-resize_1/000943_2014-06-09_19-31-07_260595134347_rgbf000128-resize-original.jpg,11008,2316321,2462550,43
866092,DepthScenes,duration_discrimination,discrim_jsons/d0_dr.json,http://54.173.234.186/DepthDuration/depth_discrimination_MTurk/DepthDiscrim_HTML.html#1,1,1519,864,1536,864,6-19-2021,14-45-48,172,,,,,,,2532,513,238,510,243,515,feet,4,3,depth_discrimination_stimuli/001447_2014-06-19_17-00-32_260595134347_rgbf000082-resize_5/001447_2014-06-19_17-00-32_260595134347_rgbf000082-resize-original.jpg,7300,2316321,2462550,43
866092,DepthScenes,duration_discrimination,discrim_jsons/d0_dr.json,http://54.173.234.186/DepthDuration/depth_discrimination_MTurk/DepthDiscrim_HTML.html#1,1,1519,864,1536,864,6-19-2021,14-45-48,173,,,,,,,2532,513,238,510,243,515,feet,3,3,depth_discrimination_stimuli/000830_2014-06-04_19-49-31_260595134347_rgbf000096-resize_2/000830_2014-06-04_19-49-31_260595134347_rgbf000096-resize-original.jpg,7364,2316321,2462550,43
866092,DepthScenes,duration_discrimination,discrim_jsons/d0_dr.json,http://54.173.234.186/DepthDuration/depth_discrimination_MTurk/DepthDiscrim_HTML.html#1,1,1519,864,1536,864,6-19-2021,14-45-48,174,,,,,,,2532,513,238,510,243,515,feet,5,2,depth_discrimination_stimuli/002460_2014-06-28_20-35-43_260595134347_rgbf000028-resize_4/002460_2014-06-28_20-35-43_260595134347_rgbf000028-resize-original.jpg,9208,2316321,2462550,43
866092,DepthScenes,duration_discrimination,discrim_jsons/d0_dr.json,http://54.173.234.186/DepthDuration/depth_discrimination_MTurk/DepthDiscrim_HTML.html#1,1,1519,864,1536,864,6-19-2021,14-45-48,175,,,,,,,2532,513,238,510,243,515,feet,3,2,depth_discrimination_stimuli/001158_2014-06-17_15-32-16_260595134347_rgbf000138-resize_2/001158_2014-06-17_15-32-16_260595134347_rgbf000138-resize-original.jpg,8419,2316321,2462550,43
866092,DepthScenes,duration_discrimination,discrim_jsons/d0_dr.json,http://54.173.234.186/DepthDuration/depth_discrimination_MTurk/DepthDiscrim_HTML.html#1,1,1519,864,1536,864,6-19-2021,14-45-48,176,,,,,,,2532,513,238,510,243,515,feet,2,1,depth_discrimination_stimuli/002660_2014-06-13_15-44-18_094959634447_rgbf001878-resize_2/002660_2014-06-13_15-44-18_094959634447_rgbf001878-resize-original.jpg,6919,2316321,2462550,43
866092,DepthScenes,duration_discrimination,discrim_jsons/d0_dr.json,http://54.173.234.186/DepthDuration/depth_discrimination_MTurk/DepthDiscrim_HTML.html#1,1,1519,864,1536,864,6-19-2021,14-45-48,177,,,,,,,2532,513,238,510,243,515,feet,2,4,depth_discrimination_stimuli/000753_2014-06-08_21-57-44_260595134347_rgbf000123-resize_3/000753_2014-06-08_21-57-44_260595134347_rgbf000123-resize-original.jpg,11336,2316321,2462550,43
866092,DepthScenes,duration_discrimination,discrim_jsons/d0_dr.json,http://54.173.234.186/DepthDuration/depth_discrimination_MTurk/DepthDiscrim_HTML.html#1,1,1519,864,1536,864,6-19-2021,14-45-48,178,,,,,,,2532,513,238,510,243,515,feet,2,4,depth_discrimination_stimuli/000927_2014-06-09_16-32-30_260595134347_rgbf000123-resize_3/000927_2014-06-09_16-32-30_260595134347_rgbf000123-resize-original.jpg,11344,2316321,2462550,43
866092,DepthScenes,duration_discrimination,discrim_jsons/d0_dr.json,http://54.173.234.186/DepthDuration/depth_discrimination_MTurk/DepthDiscrim_HTML.html#1,1,1519,864,1536,864,6-19-2021,14-45-48,179,,,,,,,2532,513,238,510,243,515,feet,1,2,depth_discrimination_stimuli/002209_2014-06-28_18-36-10_260595134347_rgbf000051-resize_1/002209_2014-06-28_18-36-10_260595134347_rgbf000051-resize-original.jpg,6867,2316321,2462550,43
866092,DepthScenes,duration_discrimination,discrim_jsons/d0_dr.json,http://54.173.234.186/DepthDuration/depth_discrimination_MTurk/DepthDiscrim_HTML.html#1,1,1519,864,1536,864,6-19-2021,14-45-48,180,,,,,,,2532,513,238,510,243,515,feet,3,3,depth_discrimination_stimuli/003081_2014-06-15_15-19-16_094959634447_rgbf000150-resize_1/003081_2014-06-15_15-19-16_094959634447_rgbf000150-resize-original.jpg,7203,2316321,2462550,43
866092,DepthScenes,duration_discrimination,discrim_jsons/d0_dr.json,http://54.173.234.186/DepthDuration/depth_discrimination_MTurk/DepthDiscrim_HTML.html#1,1,1519,864,1536,864,6-19-2021,14-45-48,181,,,,,,,2532,513,238,510,243,515,feet,2,3,depth_discrimination_stimuli/001828_2014-06-26_21-40-03_260595134347_rgbf000024-resize_0/001828_2014-06-26_21-40-03_260595134347_rgbf000024-resize-original.jpg,7672,2316321,2462550,43
866092,DepthScenes,duration_discrimination,discrim_jsons/d0_dr.json,http://54.173.234.186/DepthDuration/depth_discrimination_MTurk/DepthDiscrim_HTML.html#1,1,1519,864,1536,864,6-19-2021,14-45-48,182,,,,,,,2532,513,238,510,243,515,feet,3,4,depth_discrimination_stimuli/001570_2014-06-20_17-21-09_260595134347_rgbf000135-resize_4/001570_2014-06-20_17-21-09_260595134347_rgbf000135-resize-original.jpg,9527,2316321,2462550,43
866092,DepthScenes,duration_discrimination,discrim_jsons/d0_dr.json,http://54.173.234.186/DepthDuration/depth_discrimination_MTurk/DepthDiscrim_HTML.html#1,1,1519,864,1536,864,6-19-2021,14-45-48,183,,,,,,,2532,513,238,510,243,515,feet,3,1,depth_discrimination_stimuli/002657_2014-06-13_15-29-54_094959634447_rgbf000150-resize_1/002657_2014-06-13_15-29-54_094959634447_rgbf000150-resize-original.jpg,13512,2316321,2462550,43
866092,DepthScenes,duration_discrimination,discrim_jsons/d0_dr.json,http://54.173.234.186/DepthDuration/depth_discrimination_MTurk/DepthDiscrim_HTML.html#1,1,1519,864,1536,864,6-19-2021,14-45-48,184,,,,,,,2532,513,238,510,243,515,feet,5,4,depth_discrimination_stimuli/002600_2014-06-24_14-27-04_094959634447_rgbf000074-resize_2/002600_2014-06-24_14-27-04_094959634447_rgbf000074-resize-original.jpg,8956,2316321,2462550,43
866092,DepthScenes,duration_discrimination,discrim_jsons/d0_dr.json,http://54.173.234.186/DepthDuration/depth_discrimination_MTurk/DepthDiscrim_HTML.html#1,1,1519,864,1536,864,6-19-2021,14-45-48,185,,,,,,,2532,513,238,510,243,515,feet,5,4,scene_property_catch_stimuli/sun_aatxlublfjchvvzu.jpg,6768,2316321,2462550,43
866092,DepthScenes,duration_discrimination,discrim_jsons/d0_dr.json,http://54.173.234.186/DepthDuration/depth_discrimination_MTurk/DepthDiscrim_HTML.html#1,1,1519,864,1536,864,6-19-2021,14-45-48,186,,,,,,,2532,513,238,510,243,515,feet,2,2,depth_discrimination_stimuli/003492_2014-05-21_15-50-55_094959634447_rgbf000828-resize_1/003492_2014-05-21_15-50-55_094959634447_rgbf000828-resize-original.jpg,8376,2316321,2462550,43
866092,DepthScenes,duration_discrimination,discrim_jsons/d0_dr.json,http://54.173.234.186/DepthDuration/depth_discrimination_MTurk/DepthDiscrim_HTML.html#1,1,1519,864,1536,864,6-19-2021,14-45-48,187,,,,,,,2532,513,238,510,243,515,feet,1,2,depth_discrimination_stimuli/002987_2014-06-08_18-48-20_094959634447_rgbf000022-resize_0/002987_2014-06-08_18-48-20_094959634447_rgbf000022-resize-original.jpg,6844,2316321,2462550,43
866092,DepthScenes,duration_discrimination,discrim_jsons/d0_dr.json,http://54.173.234.186/DepthDuration/depth_discrimination_MTurk/DepthDiscrim_HTML.html#1,1,1519,864,1536,864,6-19-2021,14-45-48,188,,,,,,,2532,513,238,510,243,515,feet,1,3,depth_discrimination_stimuli/001516_2014-06-20_16-25-09_260595134347_rgbf000076-resize_2/001516_2014-06-20_16-25-09_260595134347_rgbf000076-resize-original.jpg,7636,2316321,2462550,43
866092,DepthScenes,duration_discrimination,discrim_jsons/d0_dr.json,http://54.173.234.186/DepthDuration/depth_discrimination_MTurk/DepthDiscrim_HTML.html#1,1,1519,864,1536,864,6-19-2021,14-45-48,189,,,,,,,2532,513,238,510,243,515,feet,4,1,depth_discrimination_stimuli/000549_2014-06-08_22-10-24_260595134347_rgbf000247-resize_3/000549_2014-06-08_22-10-24_260595134347_rgbf000247-resize-original.jpg,7504,2316321,2462550,43
866092,DepthScenes,duration_discrimination,discrim_jsons/d0_dr.json,http://54.173.234.186/DepthDuration/depth_discrimination_MTurk/DepthDiscrim_HTML.html#1,1,1519,864,1536,864,6-19-2021,14-45-48,190,,,,,,,2532,513,238,510,243,515,feet,2,4,depth_discrimination_stimuli/001617_2014-06-20_11-35-32_260595134347_rgbf000066-resize_1/001617_2014-06-20_11-35-32_260595134347_rgbf000066-resize-original.jpg,13419,2316321,2462550,43
866092,DepthScenes,duration_discrimination,discrim_jsons/d0_dr.json,http://54.173.234.186/DepthDuration/depth_discrimination_MTurk/DepthDiscrim_HTML.html#1,1,1519,864,1536,864,6-19-2021,14-45-48,191,,,,,,,2532,513,238,510,243,515,feet,3,3,depth_discrimination_stimuli/001011_2014-06-08_23-18-54_260595134347_rgbf000044-resize_4/001011_2014-06-08_23-18-54_260595134347_rgbf000044-resize-original.jpg,11159,2316321,2462550,43
866092,DepthScenes,duration_discrimination,discrim_jsons/d0_dr.json,http://54.173.234.186/DepthDuration/depth_discrimination_MTurk/DepthDiscrim_HTML.html#1,1,1519,864,1536,864,6-19-2021,14-45-48,192,,,,,,,2532,513,238,510,243,515,feet,3,1,depth_discrimination_stimuli/000436_2014-06-09_22-25-11_260595134347_rgbf000137-resize_1/000436_2014-06-09_22-25-11_260595134347_rgbf000137-resize-original.jpg,7636,2316321,2462550,43
866092,DepthScenes,duration_discrimination,discrim_jsons/d0_dr.json,http://54.173.234.186/DepthDuration/depth_discrimination_MTurk/DepthDiscrim_HTML.html#1,1,1519,864,1536,864,6-19-2021,14-45-48,193,,,,,,,2532,513,238,510,243,515,feet,4,4,depth_discrimination_stimuli/002467_2014-06-28_20-38-07_260595134347_rgbf000026-resize_2/002467_2014-06-28_20-38-07_260595134347_rgbf000026-resize-original.jpg,8620,2316321,2462550,43
866092,DepthScenes,duration_discrimination,discrim_jsons/d0_dr.json,http://54.173.234.186/DepthDuration/depth_discrimination_MTurk/DepthDiscrim_HTML.html#1,1,1519,864,1536,864,6-19-2021,14-45-48,194,,,,,,,2532,513,238,510,243,515,feet,2,4,depth_discrimination_stimuli/000636_2014-06-08_16-39-02_260595134347_rgbf000108-resize_4/000636_2014-06-08_16-39-02_260595134347_rgbf000108-resize-original.jpg,11533,2316321,2462550,43
866092,DepthScenes,duration_discrimination,discrim_jsons/d0_dr.json,http://54.173.234.186/DepthDuration/depth_discrimination_MTurk/DepthDiscrim_HTML.html#1,1,1519,864,1536,864,6-19-2021,14-45-48,195,,,,,,,2532,513,238,510,243,515,feet,1,3,depth_discrimination_stimuli/001244_2014-06-17_16-47-45_260595134347_rgbf000030-resize_4/001244_2014-06-17_16-47-45_260595134347_rgbf000030-resize-original.jpg,6266,2316321,2462550,43
866092,DepthScenes,duration_discrimination,discrim_jsons/d0_dr.json,http://54.173.234.186/DepthDuration/depth_discrimination_MTurk/DepthDiscrim_HTML.html#1,1,1519,864,1536,864,6-19-2021,14-45-48,196,,,,,,,2532,513,238,510,243,515,feet,3,2,depth_discrimination_stimuli/003490_2014-05-21_15-50-11_094959634447_rgbf000101-resize_3/003490_2014-05-21_15-50-11_094959634447_rgbf000101-resize-original.jpg,9456,2316321,2462550,43
866092,DepthScenes,duration_discrimination,discrim_jsons/d0_dr.json,http://54.173.234.186/DepthDuration/depth_discrimination_MTurk/DepthDiscrim_HTML.html#1,1,1519,864,1536,864,6-19-2021,14-45-48,197,,,,,,,2532,513,238,510,243,515,feet,3,3,depth_discrimination_stimuli/001417_2014-06-19_16-25-36_260595134347_rgbf000115-resize_5/001417_2014-06-19_16-25-36_260595134347_rgbf000115-resize-original.jpg,9779,2316321,2462550,43
866092,DepthScenes,duration_discrimination,discrim_jsons/d0_dr.json,http://54.173.234.186/DepthDuration/depth_discrimination_MTurk/DepthDiscrim_HTML.html#1,1,1519,864,1536,864,6-19-2021,14-45-48,198,,,,,,,2532,513,238,510,243,515,feet,1,1,depth_discrimination_stimuli/002340_2014-06-28_20-05-46_260595134347_rgbf000113-resize_0/002340_2014-06-28_20-05-46_260595134347_rgbf000113-resize-original.jpg,8712,2316321,2462550,43
