subjID,experimentName,versionName,sequenceName,url,selected_row,windowWidth,windowHeight,screenWidth,screenHeight,startDate,startTime,trial,stimulus_0,stimulus_1,duration,actual_depth_0,actual_depth_1,discrim_choice,trial_RT,log_fixation,log_sceneDuration1,log_mask1,log_sceneDuration2,log_mask2,unitSelection,meanDepth_rating,navigability_rating,rated_stimulus,rating_RT,experimentTime,totalTime,age
404590,DepthScenes,duration_discrimination,discrim_jsons/d0.json,http://54.173.234.186/DepthDuration/depth_discrimination_MTurk/DepthDiscrim_HTML.html#4,4,1920,1200,1920,1200,6-19-2021,14-10-12,1,depth_discrimination_stimuli/002444_2014-06-28_20-32-08_260595134347_rgbf000027-resize_0/002444_2014-06-28_20-32-08_260595134347_rgbf000027-resize_0-target.png,depth_discrimination_stimuli/003048_2014-06-15_13-49-43_094959634447_rgbf000150-resize_1/003048_2014-06-15_13-49-43_094959634447_rgbf000150-resize_1-target.png,1000,4.389,4.0035,1,3572,503,998,500,1000,499,feet,,,,,1112523,1152890,55
404590,DepthScenes,duration_discrimination,discrim_jsons/d0.json,http://54.173.234.186/DepthDuration/depth_discrimination_MTurk/DepthDiscrim_HTML.html#4,4,1920,1200,1920,1200,6-19-2021,14-10-12,2,depth_discrimination_stimuli/000469_2014-06-09_19-42-10_260595134347_rgbf000081-resize_1/000469_2014-06-09_19-42-10_260595134347_rgbf000081-resize_1-target.png,depth_discrimination_stimuli/002136_2014-06-25_21-18-03_260595134347_rgbf000109-resize_3/002136_2014-06-25_21-18-03_260595134347_rgbf000109-resize_3-target.png,250,1.652,1.957,1,1253,500,250,500,255,495,feet,,,,,1112523,1152890,55
404590,DepthScenes,duration_discrimination,discrim_jsons/d0.json,http://54.173.234.186/DepthDuration/depth_discrimination_MTurk/DepthDiscrim_HTML.html#4,4,1920,1200,1920,1200,6-19-2021,14-10-12,3,depth_discrimination_stimuli/000692_2014-06-08_13-09-42_260595134347_rgbf000199-resize_2/000692_2014-06-08_13-09-42_260595134347_rgbf000199-resize_2-target.png,depth_discrimination_stimuli/002103_2014-06-25_20-00-40_260595134347_rgbf000049-resize_0/002103_2014-06-25_20-00-40_260595134347_rgbf000049-resize_0-target.png,250,3.661,4.105,1,1149,499,251,500,250,525,feet,,,,,1112523,1152890,55
404590,DepthScenes,duration_discrimination,discrim_jsons/d0.json,http://54.173.234.186/DepthDuration/depth_discrimination_MTurk/DepthDiscrim_HTML.html#4,4,1920,1200,1920,1200,6-19-2021,14-10-12,4,depth_discrimination_stimuli/001450_2014-06-19_17-02-03_260595134347_rgbf000203-resize_4/001450_2014-06-19_17-02-03_260595134347_rgbf000203-resize_4-target.png,depth_discrimination_stimuli/002039_2014-06-24_20-22-38_260595134347_rgbf000084-resize_1/002039_2014-06-24_20-22-38_260595134347_rgbf000084-resize_1-target.png,250,4.0106666666667,4.408,1,1164,503,248,500,250,501,feet,,,,,1112523,1152890,55
404590,DepthScenes,duration_discrimination,discrim_jsons/d0.json,http://54.173.234.186/DepthDuration/depth_discrimination_MTurk/DepthDiscrim_HTML.html#4,4,1920,1200,1920,1200,6-19-2021,14-10-12,5,depth_discrimination_stimuli/000691_2014-06-08_13-08-50_260595134347_rgbf000132-resize_3/000691_2014-06-08_13-08-50_260595134347_rgbf000132-resize_3-target.png,depth_discrimination_stimuli/000137_2014-05-20_17-04-49_260595134347_rgbf000120-resize_1/000137_2014-05-20_17-04-49_260595134347_rgbf000120-resize_1-target.png,250,4.153,3.786,0,1402,501,250,499,251,499,feet,,,,,1112523,1152890,55
404590,DepthScenes,duration_discrimination,discrim_jsons/d0.json,http://54.173.234.186/DepthDuration/depth_discrimination_MTurk/DepthDiscrim_HTML.html#4,4,1920,1200,1920,1200,6-19-2021,14-10-12,6,depth_discrimination_stimuli/002445_2014-06-28_20-32-16_260595134347_rgbf000029-resize_4/002445_2014-06-28_20-32-16_260595134347_rgbf000029-resize_4-target.png,depth_discrimination_stimuli/002043_2014-06-24_20-29-38_260595134347_rgbf000039-resize_4/002043_2014-06-24_20-29-38_260595134347_rgbf000039-resize_4-target.png,250,2.5315,2.8435,0,1391,500,251,500,250,521,feet,,,,,1112523,1152890,55
404590,DepthScenes,duration_discrimination,discrim_jsons/d0.json,http://54.173.234.186/DepthDuration/depth_discrimination_MTurk/DepthDiscrim_HTML.html#4,4,1920,1200,1920,1200,6-19-2021,14-10-12,7,depth_discrimination_stimuli/001808_2014-06-26_20-50-58_260595134347_rgbf000029-resize_1/001808_2014-06-26_20-50-58_260595134347_rgbf000029-resize_1-target.png,depth_discrimination_stimuli/003621_2014-05-23_18-06-08_094959634447_rgbf000101-resize_1/003621_2014-05-23_18-06-08_094959634447_rgbf000101-resize_1-target.png,250,4.249,3.9835,1,947,501,250,500,250,500,feet,,,,,1112523,1152890,55
404590,DepthScenes,duration_discrimination,discrim_jsons/d0.json,http://54.173.234.186/DepthDuration/depth_discrimination_MTurk/DepthDiscrim_HTML.html#4,4,1920,1200,1920,1200,6-19-2021,14-10-12,8,depth_discrimination_stimuli/002639_2014-06-24_14-51-37_094959634447_rgbf000074-resize_4/002639_2014-06-24_14-51-37_094959634447_rgbf000074-resize_4-target.png,depth_discrimination_stimuli/001132_2014-06-17_14-48-54_260595134347_rgbf000100-resize_2/001132_2014-06-17_14-48-54_260595134347_rgbf000100-resize_2-target.png,1000,4.0375,3.753,0,1580,501,1000,503,997,501,feet,,,,,1112523,1152890,55
404590,DepthScenes,duration_discrimination,discrim_jsons/d0.json,http://54.173.234.186/DepthDuration/depth_discrimination_MTurk/DepthDiscrim_HTML.html#4,4,1920,1200,1920,1200,6-19-2021,14-10-12,9,depth_discrimination_stimuli/003587_2014-05-23_16-48-02_094959634447_rgbf002384-resize_2/003587_2014-05-23_16-48-02_094959634447_rgbf002384-resize_2-target.png,depth_discrimination_stimuli/000709_2014-06-08_13-51-55_260595134347_rgbf000068-resize_3/000709_2014-06-08_13-51-55_260595134347_rgbf000068-resize_3-target.png,250,1.357,1.803,0,1363,501,250,501,253,497,feet,,,,,1112523,1152890,55
404590,DepthScenes,duration_discrimination,discrim_jsons/d0.json,http://54.173.234.186/DepthDuration/depth_discrimination_MTurk/DepthDiscrim_HTML.html#4,4,1920,1200,1920,1200,6-19-2021,14-10-12,10,depth_discrimination_stimuli/000635_2014-06-08_16-38-42_260595134347_rgbf000106-resize_1/000635_2014-06-08_16-38-42_260595134347_rgbf000106-resize_1-target.png,depth_discrimination_stimuli/001516_2014-06-20_16-25-09_260595134347_rgbf000076-resize_2/001516_2014-06-20_16-25-09_260595134347_rgbf000076-resize_2-target.png,1000,2.074,1.7445,1,1974,501,999,501,999,500,feet,,,,,1112523,1152890,55
404590,DepthScenes,duration_discrimination,discrim_jsons/d0.json,http://54.173.234.186/DepthDuration/depth_discrimination_MTurk/DepthDiscrim_HTML.html#4,4,1920,1200,1920,1200,6-19-2021,14-10-12,11,depth_discrimination_stimuli/002579_2014-06-24_14-08-03_094959634447_rgbf000061-resize_2/002579_2014-06-24_14-08-03_094959634447_rgbf000061-resize_2-target.png,depth_discrimination_stimuli/002468_2014-06-28_20-38-39_260595134347_rgbf000045-resize_1/002468_2014-06-28_20-38-39_260595134347_rgbf000045-resize_1-target.png,250,2.223125,1.956,0,1468,500,250,501,249,537,feet,,,,,1112523,1152890,55
404590,DepthScenes,duration_discrimination,discrim_jsons/d0.json,http://54.173.234.186/DepthDuration/depth_discrimination_MTurk/DepthDiscrim_HTML.html#4,4,1920,1200,1920,1200,6-19-2021,14-10-12,12,depth_discrimination_stimuli/002784_2014-06-22_19-26-30_094959634447_rgbf000083-resize_3/002784_2014-06-22_19-26-30_094959634447_rgbf000083-resize_3-target.png,depth_discrimination_stimuli/001532_2014-06-20_16-50-41_260595134347_rgbf000081-resize_4/001532_2014-06-20_16-50-41_260595134347_rgbf000081-resize_4-target.png,1000,1.8046666666667,1.5758333333333,1,2239,501,999,501,1000,499,feet,,,,,1112523,1152890,55
404590,DepthScenes,duration_discrimination,discrim_jsons/d0.json,http://54.173.234.186/DepthDuration/depth_discrimination_MTurk/DepthDiscrim_HTML.html#4,4,1920,1200,1920,1200,6-19-2021,14-10-12,13,depth_discrimination_stimuli/002279_2014-06-28_18-55-32_260595134347_rgbf000040-resize_5/002279_2014-06-28_18-55-32_260595134347_rgbf000040-resize_5-target.png,depth_discrimination_stimuli/002949_2014-06-26_15-57-42_094959634447_rgbf000079-resize_1/002949_2014-06-26_15-57-42_094959634447_rgbf000079-resize_1-target.png,1000,1.5043333333333,1.8915,0,1761,500,1001,504,995,500,feet,,,,,1112523,1152890,55
404590,DepthScenes,duration_discrimination,discrim_jsons/d0.json,http://54.173.234.186/DepthDuration/depth_discrimination_MTurk/DepthDiscrim_HTML.html#4,4,1920,1200,1920,1200,6-19-2021,14-10-12,14,depth_discrimination_stimuli/001449_2014-06-19_17-01-27_260595134347_rgbf000116-resize_2/001449_2014-06-19_17-01-27_260595134347_rgbf000116-resize_2-target.png,depth_discrimination_stimuli/002630_2014-06-24_14-47-50_094959634447_rgbf000055-resize_1/002630_2014-06-24_14-47-50_094959634447_rgbf000055-resize_1-target.png,250,3.452,3.0095,0,1435,502,250,500,250,500,feet,,,,,1112523,1152890,55
404590,DepthScenes,duration_discrimination,discrim_jsons/d0.json,http://54.173.234.186/DepthDuration/depth_discrimination_MTurk/DepthDiscrim_HTML.html#4,4,1920,1200,1920,1200,6-19-2021,14-10-12,15,depth_discrimination_stimuli/002460_2014-06-28_20-35-43_260595134347_rgbf000028-resize_4/002460_2014-06-28_20-35-43_260595134347_rgbf000028-resize_4-target.png,depth_discrimination_stimuli/001806_2014-06-26_20-50-20_260595134347_rgbf000091-resize_1/001806_2014-06-26_20-50-20_260595134347_rgbf000091-resize_1-target.png,1000,2.269,2.7305,0,2390,501,1000,500,1501,0,feet,,,,,1112523,1152890,55
404590,DepthScenes,duration_discrimination,discrim_jsons/d0.json,http://54.173.234.186/DepthDuration/depth_discrimination_MTurk/DepthDiscrim_HTML.html#4,4,1920,1200,1920,1200,6-19-2021,14-10-12,16,depth_discrimination_stimuli/000409_2014-06-04_19-23-33_260595134347_rgbf000067-resize_0/000409_2014-06-04_19-23-33_260595134347_rgbf000067-resize_0-target.png,depth_discrimination_stimuli/002464_2014-06-28_20-36-57_260595134347_rgbf000029-resize_0/002464_2014-06-28_20-36-57_260595134347_rgbf000029-resize_0-target.png,1000,3.7335,3.9525,0,2520,500,1072,428,1001,500,feet,,,,,1112523,1152890,55
404590,DepthScenes,duration_discrimination,discrim_jsons/d0.json,http://54.173.234.186/DepthDuration/depth_discrimination_MTurk/DepthDiscrim_HTML.html#4,4,1920,1200,1920,1200,6-19-2021,14-10-12,17,depth_discrimination_stimuli/001555_2014-06-20_17-12-10_260595134347_rgbf000065-resize_4/001555_2014-06-20_17-12-10_260595134347_rgbf000065-resize_4-target.png,depth_discrimination_stimuli/000943_2014-06-09_19-31-07_260595134347_rgbf000128-resize_1/000943_2014-06-09_19-31-07_260595134347_rgbf000128-resize_1-target.png,1000,1.633,1.9765,0,2094,502,999,508,993,500,feet,,,,,1112523,1152890,55
404590,DepthScenes,duration_discrimination,discrim_jsons/d0.json,http://54.173.234.186/DepthDuration/depth_discrimination_MTurk/DepthDiscrim_HTML.html#4,4,1920,1200,1920,1200,6-19-2021,14-10-12,18,depth_discrimination_stimuli/002509_2014-06-24_13-19-22_094959634447_rgbf000077-resize_0/002509_2014-06-24_13-19-22_094959634447_rgbf000077-resize_0-target.png,depth_discrimination_stimuli/002344_2014-06-28_20-06-29_260595134347_rgbf000030-resize_1/002344_2014-06-28_20-06-29_260595134347_rgbf000030-resize_1-target.png,250,1.3065,1.5795,1,1237,502,250,499,250,501,feet,,,,,1112523,1152890,55
404590,DepthScenes,duration_discrimination,discrim_jsons/d0.json,http://54.173.234.186/DepthDuration/depth_discrimination_MTurk/DepthDiscrim_HTML.html#4,4,1920,1200,1920,1200,6-19-2021,14-10-12,19,depth_discrimination_stimuli/002467_2014-06-28_20-38-07_260595134347_rgbf000026-resize_2/002467_2014-06-28_20-38-07_260595134347_rgbf000026-resize_2-target.png,depth_discrimination_stimuli/001175_2014-06-17_15-45-55_260595134347_rgbf000129-resize_4/001175_2014-06-17_15-45-55_260595134347_rgbf000129-resize_4-target.png,1000,4.742,4.255,0,1878,501,1001,499,1001,500,feet,,,,,1112523,1152890,55
404590,DepthScenes,duration_discrimination,discrim_jsons/d0.json,http://54.173.234.186/DepthDuration/depth_discrimination_MTurk/DepthDiscrim_HTML.html#4,4,1920,1200,1920,1200,6-19-2021,14-10-12,20,depth_discrimination_stimuli/001100_2014-06-15_17-46-26_260595134347_rgbf000225-resize_2/001100_2014-06-15_17-46-26_260595134347_rgbf000225-resize_2-target.png,depth_discrimination_stimuli/002131_2014-06-25_21-12-01_260595134347_rgbf000083-resize_0/002131_2014-06-25_21-12-01_260595134347_rgbf000083-resize_0-target.png,1000,2.24,1.7685,0,1951,501,1000,500,1000,500,feet,,,,,1112523,1152890,55
404590,DepthScenes,duration_discrimination,discrim_jsons/d0.json,http://54.173.234.186/DepthDuration/depth_discrimination_MTurk/DepthDiscrim_HTML.html#4,4,1920,1200,1920,1200,6-19-2021,14-10-12,21,depth_discrimination_stimuli/003395_2014-05-20_15-39-18_094959634447_rgbf000101-resize_0/003395_2014-05-20_15-39-18_094959634447_rgbf000101-resize_0-target.png,depth_discrimination_stimuli/001540_2014-06-20_17-01-05_260595134347_rgbf000086-resize_2/001540_2014-06-20_17-01-05_260595134347_rgbf000086-resize_2-target.png,250,4.835,1.459,1,1141,501,250,500,250,501,feet,,,,,1112523,1152890,55
404590,DepthScenes,duration_discrimination,discrim_jsons/d0.json,http://54.173.234.186/DepthDuration/depth_discrimination_MTurk/DepthDiscrim_HTML.html#4,4,1920,1200,1920,1200,6-19-2021,14-10-12,22,depth_discrimination_stimuli/000454_2014-06-08_16-37-28_260595134347_rgbf000048-resize_2/000454_2014-06-08_16-37-28_260595134347_rgbf000048-resize_2-target.png,depth_discrimination_stimuli/000375_2014-06-08_11-17-29_260595134347_rgbf000133-resize_2/000375_2014-06-08_11-17-29_260595134347_rgbf000133-resize_2-target.png,1000,1.213,4.718,1,2103,501,1000,500,1000,500,feet,,,,,1112523,1152890,55
404590,DepthScenes,duration_discrimination,discrim_jsons/d0.json,http://54.173.234.186/DepthDuration/depth_discrimination_MTurk/DepthDiscrim_HTML.html#4,4,1920,1200,1920,1200,6-19-2021,14-10-12,23,depth_discrimination_stimuli/000734_2014-06-08_17-39-11_260595134347_rgbf000128-resize_2/000734_2014-06-08_17-39-11_260595134347_rgbf000128-resize_2-target.png,depth_discrimination_stimuli/001148_2014-06-17_15-26-42_260595134347_rgbf000129-resize_0/001148_2014-06-17_15-26-42_260595134347_rgbf000129-resize_0-target.png,250,4.098,4.368,1,1334,500,250,500,250,500,feet,,,,,1112523,1152890,55
404590,DepthScenes,duration_discrimination,discrim_jsons/d0.json,http://54.173.234.186/DepthDuration/depth_discrimination_MTurk/DepthDiscrim_HTML.html#4,4,1920,1200,1920,1200,6-19-2021,14-10-12,24,depth_discrimination_stimuli/002549_2014-06-24_13-41-39_094959634447_rgbf000022-resize_3/002549_2014-06-24_13-41-39_094959634447_rgbf000022-resize_3-target.png,depth_discrimination_stimuli/002545_2014-06-24_13-38-53_094959634447_rgbf000080-resize_4/002545_2014-06-24_13-38-53_094959634447_rgbf000080-resize_4-target.png,250,1.476,1.9205,0,1186,500,250,501,249,500,feet,,,,,1112523,1152890,55
404590,DepthScenes,duration_discrimination,discrim_jsons/d0.json,http://54.173.234.186/DepthDuration/depth_discrimination_MTurk/DepthDiscrim_HTML.html#4,4,1920,1200,1920,1200,6-19-2021,14-10-12,25,depth_discrimination_stimuli/002657_2014-06-13_15-29-54_094959634447_rgbf000150-resize_1/002657_2014-06-13_15-29-54_094959634447_rgbf000150-resize_1-target.png,depth_discrimination_stimuli/002748_2014-06-22_19-07-22_094959634447_rgbf000078-resize_1/002748_2014-06-22_19-07-22_094959634447_rgbf000078-resize_1-target.png,250,4.919,4.6705,0,1181,500,250,500,250,500,feet,,,,,1112523,1152890,55
404590,DepthScenes,duration_discrimination,discrim_jsons/d0.json,http://54.173.234.186/DepthDuration/depth_discrimination_MTurk/DepthDiscrim_HTML.html#4,4,1920,1200,1920,1200,6-19-2021,14-10-12,26,depth_discrimination_stimuli/002323_2014-06-28_20-01-54_260595134347_rgbf000051-resize_4/002323_2014-06-28_20-01-54_260595134347_rgbf000051-resize_4-target.png,depth_discrimination_stimuli/000736_2014-06-08_18-24-15_260595134347_rgbf000206-resize_3/000736_2014-06-08_18-24-15_260595134347_rgbf000206-resize_3-target.png,250,3.731,3.515,1,1237,501,251,499,251,500,feet,,,,,1112523,1152890,55
404590,DepthScenes,duration_discrimination,discrim_jsons/d0.json,http://54.173.234.186/DepthDuration/depth_discrimination_MTurk/DepthDiscrim_HTML.html#4,4,1920,1200,1920,1200,6-19-2021,14-10-12,27,depth_discrimination_stimuli/000749_2014-06-08_21-55-06_260595134347_rgbf000070-resize_2/000749_2014-06-08_21-55-06_260595134347_rgbf000070-resize_2-target.png,depth_discrimination_stimuli/002875_2014-06-01_15-19-00_094959634447_rgbf000151-resize_1/002875_2014-06-01_15-19-00_094959634447_rgbf000151-resize_1-target.png,250,2.331,1.9675,1,2132,501,249,501,249,501,feet,,,,,1112523,1152890,55
404590,DepthScenes,duration_discrimination,discrim_jsons/d0.json,http://54.173.234.186/DepthDuration/depth_discrimination_MTurk/DepthDiscrim_HTML.html#4,4,1920,1200,1920,1200,6-19-2021,14-10-12,28,depth_discrimination_stimuli/000735_2014-06-08_18-23-50_260595134347_rgbf000163-resize_2/000735_2014-06-08_18-23-50_260595134347_rgbf000163-resize_2-target.png,depth_discrimination_stimuli/003288_2014-05-14_21-50-30_094959634447_rgbf000028-resize_3/003288_2014-05-14_21-50-30_094959634447_rgbf000028-resize_3-target.png,250,4.1695,3.877,0,1253,500,250,500,250,499,feet,,,,,1112523,1152890,55
404590,DepthScenes,duration_discrimination,discrim_jsons/d0.json,http://54.173.234.186/DepthDuration/depth_discrimination_MTurk/DepthDiscrim_HTML.html#4,4,1920,1200,1920,1200,6-19-2021,14-10-12,29,depth_discrimination_stimuli/002375_2014-06-28_20-13-44_260595134347_rgbf000032-resize_1/002375_2014-06-28_20-13-44_260595134347_rgbf000032-resize_1-target.png,depth_discrimination_stimuli/001570_2014-06-20_17-21-09_260595134347_rgbf000135-resize_4/001570_2014-06-20_17-21-09_260595134347_rgbf000135-resize_4-target.png,250,4.0175,4.467,0,1469,500,250,500,249,501,feet,,,,,1112523,1152890,55
404590,DepthScenes,duration_discrimination,discrim_jsons/d0.json,http://54.173.234.186/DepthDuration/depth_discrimination_MTurk/DepthDiscrim_HTML.html#4,4,1920,1200,1920,1200,6-19-2021,14-10-12,30,depth_discrimination_stimuli/000457_2014-06-08_16-52-43_260595134347_rgbf000199-resize_1/000457_2014-06-08_16-52-43_260595134347_rgbf000199-resize_1-target.png,depth_discrimination_stimuli/002365_2014-06-28_20-11-21_260595134347_rgbf000102-resize_1/002365_2014-06-28_20-11-21_260595134347_rgbf000102-resize_1-target.png,1000,3.649,4.013,0,2263,501,1001,499,1001,499,feet,,,,,1112523,1152890,55
404590,DepthScenes,duration_discrimination,discrim_jsons/d0.json,http://54.173.234.186/DepthDuration/depth_discrimination_MTurk/DepthDiscrim_HTML.html#4,4,1920,1200,1920,1200,6-19-2021,14-10-12,31,depth_discrimination_stimuli/002700_2014-06-22_11-27-02_094959634447_rgbf000124-resize_3/002700_2014-06-22_11-27-02_094959634447_rgbf000124-resize_3-target.png,depth_discrimination_stimuli/000800_2014-06-08_22-42-09_260595134347_rgbf000095-resize_3/000800_2014-06-08_22-42-09_260595134347_rgbf000095-resize_3-target.png,1000,3.301,2.8,1,2055,500,1000,500,1000,500,feet,,,,,1112523,1152890,55
404590,DepthScenes,duration_discrimination,discrim_jsons/d0.json,http://54.173.234.186/DepthDuration/depth_discrimination_MTurk/DepthDiscrim_HTML.html#4,4,1920,1200,1920,1200,6-19-2021,14-10-12,32,depth_discrimination_stimuli/001170_2014-06-17_15-43-44_260595134347_rgbf000096-resize_6/001170_2014-06-17_15-43-44_260595134347_rgbf000096-resize_6-target.png,depth_discrimination_stimuli/002364_2014-06-28_20-11-05_260595134347_rgbf000042-resize_0/002364_2014-06-28_20-11-05_260595134347_rgbf000042-resize_0-target.png,1000,1.191,4.682,0,2742,501,1000,500,1000,500,feet,,,,,1112523,1152890,55
404590,DepthScenes,duration_discrimination,discrim_jsons/d0.json,http://54.173.234.186/DepthDuration/depth_discrimination_MTurk/DepthDiscrim_HTML.html#4,4,1920,1200,1920,1200,6-19-2021,14-10-12,33,depth_discrimination_stimuli/001016_2014-06-09_16-16-10_260595134347_rgbf000112-resize_5/001016_2014-06-09_16-16-10_260595134347_rgbf000112-resize_5-target.png,depth_discrimination_stimuli/001618_2014-06-20_11-37-31_260595134347_rgbf000027-resize_3/001618_2014-06-20_11-37-31_260595134347_rgbf000027-resize_3-target.png,250,1.6565,1.8725,0,1437,500,250,499,251,499,feet,,,,,1112523,1152890,55
404590,DepthScenes,duration_discrimination,discrim_jsons/d0.json,http://54.173.234.186/DepthDuration/depth_discrimination_MTurk/DepthDiscrim_HTML.html#4,4,1920,1200,1920,1200,6-19-2021,14-10-12,34,depth_discrimination_stimuli/003081_2014-06-15_15-19-16_094959634447_rgbf000150-resize_1/003081_2014-06-15_15-19-16_094959634447_rgbf000150-resize_1-target.png,depth_discrimination_stimuli/000917_2014-06-09_22-45-29_260595134347_rgbf000149-resize_3/000917_2014-06-09_22-45-29_260595134347_rgbf000149-resize_3-target.png,250,3.9125,4.1865,0,1412,500,250,501,249,501,feet,,,,,1112523,1152890,55
404590,DepthScenes,duration_discrimination,discrim_jsons/d0.json,http://54.173.234.186/DepthDuration/depth_discrimination_MTurk/DepthDiscrim_HTML.html#4,4,1920,1200,1920,1200,6-19-2021,14-10-12,35,depth_discrimination_stimuli/001059_2014-06-08_21-53-27_260595134347_rgbf000061-resize_4/001059_2014-06-08_21-53-27_260595134347_rgbf000061-resize_4-target.png,depth_discrimination_stimuli/000906_2014-06-08_13-35-43_260595134347_rgbf000155-resize_1/000906_2014-06-08_13-35-43_260595134347_rgbf000155-resize_1-target.png,250,2.4185,2.849,0,1189,500,250,501,250,499,feet,,,,,1112523,1152890,55
404590,DepthScenes,duration_discrimination,discrim_jsons/d0.json,http://54.173.234.186/DepthDuration/depth_discrimination_MTurk/DepthDiscrim_HTML.html#4,4,1920,1200,1920,1200,6-19-2021,14-10-12,36,depth_discrimination_stimuli/002988_2014-06-15_12-24-20_094959634447_rgbf000150-resize_1/002988_2014-06-15_12-24-20_094959634447_rgbf000150-resize_1-target.png,depth_discrimination_stimuli/000447_2014-06-08_16-15-46_260595134347_rgbf000130-resize_1/000447_2014-06-08_16-15-46_260595134347_rgbf000130-resize_1-target.png,1000,4.767,4.479,0,2335,502,999,500,999,500,feet,,,,,1112523,1152890,55
404590,DepthScenes,duration_discrimination,discrim_jsons/d0.json,http://54.173.234.186/DepthDuration/depth_discrimination_MTurk/DepthDiscrim_HTML.html#4,4,1920,1200,1920,1200,6-19-2021,14-10-12,37,depth_discrimination_stimuli/001164_2014-06-17_15-35-46_260595134347_rgbf000085-resize_3/001164_2014-06-17_15-35-46_260595134347_rgbf000085-resize_3-target.png,depth_discrimination_stimuli/003228_2014-05-14_13-42-35_094959634447_rgbf000101-resize_1/003228_2014-05-14_13-42-35_094959634447_rgbf000101-resize_1-target.png,250,2.354,1.968,1,916,499,251,500,250,500,feet,,,,,1112523,1152890,55
404590,DepthScenes,duration_discrimination,discrim_jsons/d0.json,http://54.173.234.186/DepthDuration/depth_discrimination_MTurk/DepthDiscrim_HTML.html#4,4,1920,1200,1920,1200,6-19-2021,14-10-12,38,depth_discrimination_stimuli/000739_2014-06-08_18-45-58_260595134347_rgbf000068-resize_1/000739_2014-06-08_18-45-58_260595134347_rgbf000068-resize_1-target.png,depth_discrimination_stimuli/002995_2014-06-15_12-31-26_094959634447_rgbf000150-resize_1/002995_2014-06-15_12-31-26_094959634447_rgbf000150-resize_1-target.png,1000,3.534,3.836,0,3295,501,1000,499,1001,500,feet,,,,,1112523,1152890,55
404590,DepthScenes,duration_discrimination,discrim_jsons/d0.json,http://54.173.234.186/DepthDuration/depth_discrimination_MTurk/DepthDiscrim_HTML.html#4,4,1920,1200,1920,1200,6-19-2021,14-10-12,39,depth_discrimination_stimuli/001092_2014-06-15_17-34-58_260595134347_rgbf000171-resize_3/001092_2014-06-15_17-34-58_260595134347_rgbf000171-resize_3-target.png,depth_discrimination_stimuli/000522_2014-06-08_13-35-06_260595134347_rgbf000244-resize_1/000522_2014-06-08_13-35-06_260595134347_rgbf000244-resize_1-target.png,250,2.6935,2.3715,1,1202,501,250,500,250,500,feet,,,,,1112523,1152890,55
404590,DepthScenes,duration_discrimination,discrim_jsons/d0.json,http://54.173.234.186/DepthDuration/depth_discrimination_MTurk/DepthDiscrim_HTML.html#4,4,1920,1200,1920,1200,6-19-2021,14-10-12,40,depth_discrimination_stimuli/003534_2014-05-22_15-06-10_094959634447_rgbf000102-resize_4/003534_2014-05-22_15-06-10_094959634447_rgbf000102-resize_4-target.png,depth_discrimination_stimuli/002272_2014-06-28_18-53-56_260595134347_rgbf000067-resize_2/002272_2014-06-28_18-53-56_260595134347_rgbf000067-resize_2-target.png,1000,1.426,1.138,1,2010,500,1000,500,1000,516,feet,,,,,1112523,1152890,55
404590,DepthScenes,duration_discrimination,discrim_jsons/d0.json,http://54.173.234.186/DepthDuration/depth_discrimination_MTurk/DepthDiscrim_HTML.html#4,4,1920,1200,1920,1200,6-19-2021,14-10-12,41,depth_discrimination_stimuli/003546_2014-05-22_15-48-53_094959634447_rgbf004816-resize_3/003546_2014-05-22_15-48-53_094959634447_rgbf004816-resize_3-target.png,depth_discrimination_stimuli/003010_2014-06-15_12-54-35_094959634447_rgbf000112-resize_0/003010_2014-06-15_12-54-35_094959634447_rgbf000112-resize_0-target.png,1000,2.62625,3.1185,0,2433,500,1001,499,1000,500,feet,,,,,1112523,1152890,55
404590,DepthScenes,duration_discrimination,discrim_jsons/d0.json,http://54.173.234.186/DepthDuration/depth_discrimination_MTurk/DepthDiscrim_HTML.html#4,4,1920,1200,1920,1200,6-19-2021,14-10-12,42,depth_discrimination_stimuli/002953_2014-06-08_17-32-18_094959634447_rgbf000059-resize_5/002953_2014-06-08_17-32-18_094959634447_rgbf000059-resize_5-target.png,depth_discrimination_stimuli/001571_2014-06-20_17-21-32_260595134347_rgbf000089-resize_1/001571_2014-06-20_17-21-32_260595134347_rgbf000089-resize_1-target.png,1000,1.551,1.86,0,2332,501,1000,500,999,500,feet,,,,,1112523,1152890,55
404590,DepthScenes,duration_discrimination,discrim_jsons/d0.json,http://54.173.234.186/DepthDuration/depth_discrimination_MTurk/DepthDiscrim_HTML.html#4,4,1920,1200,1920,1200,6-19-2021,14-10-12,43,depth_discrimination_stimuli/000682_2014-06-08_23-14-58_260595134347_rgbf000041-resize_5/000682_2014-06-08_23-14-58_260595134347_rgbf000041-resize_5-target.png,depth_discrimination_stimuli/000866_2014-06-09_20-45-42_260595134347_rgbf000139-resize_1/000866_2014-06-09_20-45-42_260595134347_rgbf000139-resize_1-target.png,250,2.724,3.2155,1,1484,502,249,501,249,501,feet,,,,,1112523,1152890,55
404590,DepthScenes,duration_discrimination,discrim_jsons/d0.json,http://54.173.234.186/DepthDuration/depth_discrimination_MTurk/DepthDiscrim_HTML.html#4,4,1920,1200,1920,1200,6-19-2021,14-10-12,44,depth_discrimination_stimuli/002989_2014-06-15_12-25-03_094959634447_rgbf000150-resize_3/002989_2014-06-15_12-25-03_094959634447_rgbf000150-resize_3-target.png,depth_discrimination_stimuli/001724_2014-06-26_19-28-50_260595134347_rgbf000037-resize_7/001724_2014-06-26_19-28-50_260595134347_rgbf000037-resize_7-target.png,1000,4.1975,3.827,0,3080,500,1000,499,1001,500,feet,,,,,1112523,1152890,55
404590,DepthScenes,duration_discrimination,discrim_jsons/d0.json,http://54.173.234.186/DepthDuration/depth_discrimination_MTurk/DepthDiscrim_HTML.html#4,4,1920,1200,1920,1200,6-19-2021,14-10-12,45,depth_discrimination_stimuli/001264_2014-06-16_16-10-23_260595134347_rgbf000109-resize_1/001264_2014-06-16_16-10-23_260595134347_rgbf000109-resize_1-target.png,depth_discrimination_stimuli/002340_2014-06-28_20-05-46_260595134347_rgbf000113-resize_0/002340_2014-06-28_20-05-46_260595134347_rgbf000113-resize_0-target.png,1000,2.9665,2.4735,0,2479,500,1000,500,1000,500,feet,,,,,1112523,1152890,55
404590,DepthScenes,duration_discrimination,discrim_jsons/d0.json,http://54.173.234.186/DepthDuration/depth_discrimination_MTurk/DepthDiscrim_HTML.html#4,4,1920,1200,1920,1200,6-19-2021,14-10-12,46,depth_discrimination_stimuli/002118_2014-06-25_20-32-08_260595134347_rgbf000078-resize_1/002118_2014-06-25_20-32-08_260595134347_rgbf000078-resize_1-target.png,depth_discrimination_stimuli/000542_2014-06-08_18-27-08_260595134347_rgbf000118-resize_1/000542_2014-06-08_18-27-08_260595134347_rgbf000118-resize_1-target.png,1000,2.646,3,1,1951,500,1000,500,1000,500,feet,,,,,1112523,1152890,55
404590,DepthScenes,duration_discrimination,discrim_jsons/d0.json,http://54.173.234.186/DepthDuration/depth_discrimination_MTurk/DepthDiscrim_HTML.html#4,4,1920,1200,1920,1200,6-19-2021,14-10-12,47,depth_discrimination_stimuli/000569_2014-06-09_22-51-47_260595134347_rgbf000141-resize_3/000569_2014-06-09_22-51-47_260595134347_rgbf000141-resize_3-target.png,depth_discrimination_stimuli/000868_2014-06-09_20-49-52_260595134347_rgbf000064-resize_4/000868_2014-06-09_20-49-52_260595134347_rgbf000064-resize_4-target.png,250,4.512,1.2815,1,972,501,250,500,250,500,feet,,,,,1112523,1152890,55
404590,DepthScenes,duration_discrimination,discrim_jsons/d0.json,http://54.173.234.186/DepthDuration/depth_discrimination_MTurk/DepthDiscrim_HTML.html#4,4,1920,1200,1920,1200,6-19-2021,14-10-12,48,depth_discrimination_stimuli/000665_2014-06-09_20-42-35_260595134347_rgbf000110-resize_1/000665_2014-06-09_20-42-35_260595134347_rgbf000110-resize_1-target.png,depth_discrimination_stimuli/001214_2014-06-17_16-13-55_260595134347_rgbf000111-resize_0/001214_2014-06-17_16-13-55_260595134347_rgbf000111-resize_0-target.png,250,3.057,2.6505,0,1093,501,249,500,250,499,feet,,,,,1112523,1152890,55
404590,DepthScenes,duration_discrimination,discrim_jsons/d0.json,http://54.173.234.186/DepthDuration/depth_discrimination_MTurk/DepthDiscrim_HTML.html#4,4,1920,1200,1920,1200,6-19-2021,14-10-12,49,depth_discrimination_stimuli/000753_2014-06-08_21-57-44_260595134347_rgbf000123-resize_3/000753_2014-06-08_21-57-44_260595134347_rgbf000123-resize_3-target.png,depth_discrimination_stimuli/003092_2014-06-24_21-01-49_094959634447_rgbf000049-resize_2/003092_2014-06-24_21-01-49_094959634447_rgbf000049-resize_2-target.png,1000,1.916,1.666,1,1895,500,999,501,1000,499,feet,,,,,1112523,1152890,55
404590,DepthScenes,duration_discrimination,discrim_jsons/d0.json,http://54.173.234.186/DepthDuration/depth_discrimination_MTurk/DepthDiscrim_HTML.html#4,4,1920,1200,1920,1200,6-19-2021,14-10-12,50,depth_discrimination_stimuli/000780_2014-06-08_22-28-29_260595134347_rgbf000126-resize_1/000780_2014-06-08_22-28-29_260595134347_rgbf000126-resize_1-target.png,depth_discrimination_stimuli/000191_2014-05-12_17-07-38_260595134347_rgbf000199-resize_0/000191_2014-05-12_17-07-38_260595134347_rgbf000199-resize_0-target.png,1000,3.3825,3.7995,1,1744,501,1000,499,1001,500,feet,,,,,1112523,1152890,55
404590,DepthScenes,duration_discrimination,discrim_jsons/d0.json,http://54.173.234.186/DepthDuration/depth_discrimination_MTurk/DepthDiscrim_HTML.html#4,4,1920,1200,1920,1200,6-19-2021,14-10-12,51,depth_discrimination_stimuli/000720_2014-06-08_18-37-27_260595134347_rgbf000203-resize_4/000720_2014-06-08_18-37-27_260595134347_rgbf000203-resize_4-target.png,depth_discrimination_stimuli/002637_2014-06-24_14-51-13_094959634447_rgbf000066-resize_4/002637_2014-06-24_14-51-13_094959634447_rgbf000066-resize_4-target.png,1000,1.558,1.9955,0,2103,499,1001,500,1000,500,feet,,,,,1112523,1152890,55
404590,DepthScenes,duration_discrimination,discrim_jsons/d0.json,http://54.173.234.186/DepthDuration/depth_discrimination_MTurk/DepthDiscrim_HTML.html#4,4,1920,1200,1920,1200,6-19-2021,14-10-12,52,depth_discrimination_stimuli/000929_2014-06-09_16-33-19_260595134347_rgbf000139-resize_0/000929_2014-06-09_16-33-19_260595134347_rgbf000139-resize_0-target.png,depth_discrimination_stimuli/000830_2014-06-04_19-49-31_260595134347_rgbf000096-resize_2/000830_2014-06-04_19-49-31_260595134347_rgbf000096-resize_2-target.png,250,2.868,2.6353333333333,1,1229,501,250,500,250,500,feet,,,,,1112523,1152890,55
404590,DepthScenes,duration_discrimination,discrim_jsons/d0.json,http://54.173.234.186/DepthDuration/depth_discrimination_MTurk/DepthDiscrim_HTML.html#4,4,1920,1200,1920,1200,6-19-2021,14-10-12,53,depth_discrimination_stimuli/000549_2014-06-08_22-10-24_260595134347_rgbf000247-resize_3/000549_2014-06-08_22-10-24_260595134347_rgbf000247-resize_3-target.png,depth_discrimination_stimuli/002139_2014-06-25_21-19-37_260595134347_rgbf000124-resize_2/002139_2014-06-25_21-19-37_260595134347_rgbf000124-resize_2-target.png,250,1.841,2.107,0,1710,501,249,500,250,500,feet,,,,,1112523,1152890,55
404590,DepthScenes,duration_discrimination,discrim_jsons/d0.json,http://54.173.234.186/DepthDuration/depth_discrimination_MTurk/DepthDiscrim_HTML.html#4,4,1920,1200,1920,1200,6-19-2021,14-10-12,54,depth_discrimination_stimuli/001617_2014-06-20_11-35-32_260595134347_rgbf000066-resize_1/001617_2014-06-20_11-35-32_260595134347_rgbf000066-resize_1-target.png,depth_discrimination_stimuli/001133_2014-06-17_14-49-16_260595134347_rgbf000100-resize_0/001133_2014-06-17_14-49-16_260595134347_rgbf000100-resize_0-target.png,1000,3.791,4.2115,0,1951,500,1000,500,1000,500,feet,,,,,1112523,1152890,55
404590,DepthScenes,duration_discrimination,discrim_jsons/d0.json,http://54.173.234.186/DepthDuration/depth_discrimination_MTurk/DepthDiscrim_HTML.html#4,4,1920,1200,1920,1200,6-19-2021,14-10-12,55,depth_discrimination_stimuli/003292_2014-05-14_21-53-49_094959634447_rgbf000100-resize_2/003292_2014-05-14_21-53-49_094959634447_rgbf000100-resize_2-target.png,depth_discrimination_stimuli/002805_2014-06-22_19-54-03_094959634447_rgbf000079-resize_1/002805_2014-06-22_19-54-03_094959634447_rgbf000079-resize_1-target.png,1000,3.4815,3.144,0,2223,500,1001,499,1000,500,feet,,,,,1112523,1152890,55
404590,DepthScenes,duration_discrimination,discrim_jsons/d0.json,http://54.173.234.186/DepthDuration/depth_discrimination_MTurk/DepthDiscrim_HTML.html#4,4,1920,1200,1920,1200,6-19-2021,14-10-12,56,depth_discrimination_stimuli/001417_2014-06-19_16-25-36_260595134347_rgbf000115-resize_5/001417_2014-06-19_16-25-36_260595134347_rgbf000115-resize_5-target.png,depth_discrimination_stimuli/003083_2014-06-15_15-21-03_094959634447_rgbf000063-resize_1/003083_2014-06-15_15-21-03_094959634447_rgbf000063-resize_1-target.png,250,4.6255,4.1405,1,1276,500,250,501,249,501,feet,,,,,1112523,1152890,55
404590,DepthScenes,duration_discrimination,discrim_jsons/d0.json,http://54.173.234.186/DepthDuration/depth_discrimination_MTurk/DepthDiscrim_HTML.html#4,4,1920,1200,1920,1200,6-19-2021,14-10-12,57,depth_discrimination_stimuli/003070_2014-06-15_14-58-27_094959634447_rgbf000150-resize_3/003070_2014-06-15_14-58-27_094959634447_rgbf000150-resize_3-target.png,depth_discrimination_stimuli/000758_2014-06-08_22-05-08_260595134347_rgbf000085-resize_0/000758_2014-06-08_22-05-08_260595134347_rgbf000085-resize_0-target.png,1000,2.9415,3.381,1,2046,501,1000,500,1000,499,feet,,,,,1112523,1152890,55
404590,DepthScenes,duration_discrimination,discrim_jsons/d0.json,http://54.173.234.186/DepthDuration/depth_discrimination_MTurk/DepthDiscrim_HTML.html#4,4,1920,1200,1920,1200,6-19-2021,14-10-12,58,depth_discrimination_stimuli/001235_2014-06-17_16-37-36_260595134347_rgbf000084-resize_4/001235_2014-06-17_16-37-36_260595134347_rgbf000084-resize_4-target.png,depth_discrimination_stimuli/003423_2014-05-21_10-23-26_094959634447_rgbf002665-resize_2/003423_2014-05-21_10-23-26_094959634447_rgbf002665-resize_2-target.png,1000,3.6605,3.2575,0,3127,501,1000,500,1000,500,feet,,,,,1112523,1152890,55
404590,DepthScenes,duration_discrimination,discrim_jsons/d0.json,http://54.173.234.186/DepthDuration/depth_discrimination_MTurk/DepthDiscrim_HTML.html#4,4,1920,1200,1920,1200,6-19-2021,14-10-12,59,depth_discrimination_stimuli/002660_2014-06-13_15-44-18_094959634447_rgbf001878-resize_2/002660_2014-06-13_15-44-18_094959634447_rgbf001878-resize_2-target.png,depth_discrimination_stimuli/000009_2014-05-26_14-32-05_260595134347_rgbf000034-resize_3/000009_2014-05-26_14-32-05_260595134347_rgbf000034-resize_3-target.png,1000,3.576,3.8715,1,2095,500,1000,500,1000,500,feet,,,,,1112523,1152890,55
404590,DepthScenes,duration_discrimination,discrim_jsons/d0.json,http://54.173.234.186/DepthDuration/depth_discrimination_MTurk/DepthDiscrim_HTML.html#4,4,1920,1200,1920,1200,6-19-2021,14-10-12,60,depth_discrimination_stimuli/000642_2014-06-08_16-59-25_260595134347_rgbf000098-resize_2/000642_2014-06-08_16-59-25_260595134347_rgbf000098-resize_2-target.png,depth_discrimination_stimuli/001815_2014-06-26_20-52-55_260595134347_rgbf000020-resize_0/001815_2014-06-26_20-52-55_260595134347_rgbf000020-resize_0-target.png,1000,2.8815,3.3865,1,1847,500,1000,500,1000,500,feet,,,,,1112523,1152890,55
404590,DepthScenes,duration_discrimination,discrim_jsons/d0.json,http://54.173.234.186/DepthDuration/depth_discrimination_MTurk/DepthDiscrim_HTML.html#4,4,1920,1200,1920,1200,6-19-2021,14-10-12,61,depth_discrimination_stimuli/001289_2014-06-16_16-25-52_260595134347_rgbf000067-resize_1/001289_2014-06-16_16-25-52_260595134347_rgbf000067-resize_1-target.png,depth_discrimination_stimuli/002788_2014-06-22_19-36-03_094959634447_rgbf000088-resize_2/002788_2014-06-22_19-36-03_094959634447_rgbf000088-resize_2-target.png,1000,1.8835,1.6465,0,1894,501,1001,499,999,501,feet,,,,,1112523,1152890,55
404590,DepthScenes,duration_discrimination,discrim_jsons/d0.json,http://54.173.234.186/DepthDuration/depth_discrimination_MTurk/DepthDiscrim_HTML.html#4,4,1920,1200,1920,1200,6-19-2021,14-10-12,62,depth_discrimination_stimuli/000953_2014-06-08_11-42-19_260595134347_rgbf000083-resize_0/000953_2014-06-08_11-42-19_260595134347_rgbf000083-resize_0-target.png,depth_discrimination_stimuli/000787_2014-06-08_22-33-53_260595134347_rgbf000175-resize_1/000787_2014-06-08_22-33-53_260595134347_rgbf000175-resize_1-target.png,1000,1.369,4.784,0,2000,502,999,499,1000,501,feet,,,,,1112523,1152890,55
404590,DepthScenes,duration_discrimination,discrim_jsons/d0.json,http://54.173.234.186/DepthDuration/depth_discrimination_MTurk/DepthDiscrim_HTML.html#4,4,1920,1200,1920,1200,6-19-2021,14-10-12,63,depth_discrimination_stimuli/002199_2014-06-28_18-33-56_260595134347_rgbf000074-resize_0/002199_2014-06-28_18-33-56_260595134347_rgbf000074-resize_0-target.png,depth_discrimination_stimuli/000368_2014-06-09_15-53-01_260595134347_rgbf000155-resize_2/000368_2014-06-09_15-53-01_260595134347_rgbf000155-resize_2-target.png,250,1.996,2.486,1,1453,501,250,499,249,501,feet,,,,,1112523,1152890,55
404590,DepthScenes,duration_discrimination,discrim_jsons/d0.json,http://54.173.234.186/DepthDuration/depth_discrimination_MTurk/DepthDiscrim_HTML.html#4,4,1920,1200,1920,1200,6-19-2021,14-10-12,64,depth_discrimination_stimuli/001810_2014-06-26_20-51-35_260595134347_rgbf000040-resize_3/001810_2014-06-26_20-51-35_260595134347_rgbf000040-resize_3-target.png,depth_discrimination_stimuli/000927_2014-06-09_16-32-30_260595134347_rgbf000123-resize_3/000927_2014-06-09_16-32-30_260595134347_rgbf000123-resize_3-target.png,250,2.2525,2.6785,0,1126,500,251,499,250,501,feet,,,,,1112523,1152890,55
404590,DepthScenes,duration_discrimination,discrim_jsons/d0.json,http://54.173.234.186/DepthDuration/depth_discrimination_MTurk/DepthDiscrim_HTML.html#4,4,1920,1200,1920,1200,6-19-2021,14-10-12,65,depth_discrimination_stimuli/001199_2014-06-17_16-03-48_260595134347_rgbf000077-resize_0/001199_2014-06-17_16-03-48_260595134347_rgbf000077-resize_0-target.png,depth_discrimination_stimuli/001029_2014-06-08_13-17-57_260595134347_rgbf000065-resize_1/001029_2014-06-08_13-17-57_260595134347_rgbf000065-resize_1-target.png,250,3.4375,3.0835,1,1236,501,250,500,249,501,feet,,,,,1112523,1152890,55
404590,DepthScenes,duration_discrimination,discrim_jsons/d0.json,http://54.173.234.186/DepthDuration/depth_discrimination_MTurk/DepthDiscrim_HTML.html#4,4,1920,1200,1920,1200,6-19-2021,14-10-12,66,depth_discrimination_stimuli/002425_2014-06-28_20-27-29_260595134347_rgbf000031-resize_8/002425_2014-06-28_20-27-29_260595134347_rgbf000031-resize_8-target.png,depth_discrimination_stimuli/001181_2014-06-17_15-50-57_260595134347_rgbf000106-resize_4/001181_2014-06-17_15-50-57_260595134347_rgbf000106-resize_4-target.png,250,3.896,4.149,0,2764,501,250,500,250,501,feet,,,,,1112523,1152890,55
404590,DepthScenes,duration_discrimination,discrim_jsons/d0.json,http://54.173.234.186/DepthDuration/depth_discrimination_MTurk/DepthDiscrim_HTML.html#4,4,1920,1200,1920,1200,6-19-2021,14-10-12,67,depth_discrimination_stimuli/000521_2014-06-08_13-34-35_260595134347_rgbf000191-resize_2/000521_2014-06-08_13-34-35_260595134347_rgbf000191-resize_2-target.png,depth_discrimination_stimuli/000788_2014-06-08_22-34-36_260595134347_rgbf000131-resize_1/000788_2014-06-08_22-34-36_260595134347_rgbf000131-resize_1-target.png,250,3.0385,3.359,1,1661,501,250,500,250,500,feet,,,,,1112523,1152890,55
404590,DepthScenes,duration_discrimination,discrim_jsons/d0.json,http://54.173.234.186/DepthDuration/depth_discrimination_MTurk/DepthDiscrim_HTML.html#4,4,1920,1200,1920,1200,6-19-2021,14-10-12,68,depth_discrimination_stimuli/002568_2014-06-24_13-59-21_094959634447_rgbf000062-resize_4/002568_2014-06-24_13-59-21_094959634447_rgbf000062-resize_4-target.png,depth_discrimination_stimuli/000636_2014-06-08_16-39-02_260595134347_rgbf000108-resize_4/000636_2014-06-08_16-39-02_260595134347_rgbf000108-resize_4-target.png,250,3.015,2.682,1,1172,501,250,500,250,500,feet,,,,,1112523,1152890,55
404590,DepthScenes,duration_discrimination,discrim_jsons/d0.json,http://54.173.234.186/DepthDuration/depth_discrimination_MTurk/DepthDiscrim_HTML.html#4,4,1920,1200,1920,1200,6-19-2021,14-10-12,69,depth_discrimination_stimuli/001498_2014-06-19_17-45-14_260595134347_rgbf000129-resize_4/001498_2014-06-19_17-45-14_260595134347_rgbf000129-resize_4-target.png,depth_discrimination_stimuli/003125_2014-05-12_10-39-22_094959634447_rgbf000100-resize_0/003125_2014-05-12_10-39-22_094959634447_rgbf000100-resize_0-target.png,250,1.4075,4.8655,0,1110,501,250,500,250,500,feet,,,,,1112523,1152890,55
404590,DepthScenes,duration_discrimination,discrim_jsons/d0.json,http://54.173.234.186/DepthDuration/depth_discrimination_MTurk/DepthDiscrim_HTML.html#4,4,1920,1200,1920,1200,6-19-2021,14-10-12,70,depth_discrimination_stimuli/001167_2014-06-17_15-38-07_260595134347_rgbf000108-resize_0/001167_2014-06-17_15-38-07_260595134347_rgbf000108-resize_0-target.png,depth_discrimination_stimuli/003495_2014-05-21_16-01-51_094959634447_rgbf000100-resize_3/003495_2014-05-21_16-01-51_094959634447_rgbf000100-resize_3-target.png,250,1.8505,1.6255,1,1478,500,250,500,251,500,feet,,,,,1112523,1152890,55
404590,DepthScenes,duration_discrimination,discrim_jsons/d0.json,http://54.173.234.186/DepthDuration/depth_discrimination_MTurk/DepthDiscrim_HTML.html#4,4,1920,1200,1920,1200,6-19-2021,14-10-12,71,depth_discrimination_stimuli/000869_2014-06-09_20-50-18_260595134347_rgbf000060-resize_3/000869_2014-06-09_20-50-18_260595134347_rgbf000060-resize_3-target.png,depth_discrimination_stimuli/001136_2014-06-17_15-19-41_260595134347_rgbf000076-resize_3/001136_2014-06-17_15-19-41_260595134347_rgbf000076-resize_3-target.png,250,2.266,1.8655,1,1445,500,250,501,249,500,feet,,,,,1112523,1152890,55
404590,DepthScenes,duration_discrimination,discrim_jsons/d0.json,http://54.173.234.186/DepthDuration/depth_discrimination_MTurk/DepthDiscrim_HTML.html#4,4,1920,1200,1920,1200,6-19-2021,14-10-12,72,depth_discrimination_stimuli/000878_2014-06-08_22-52-45_260595134347_rgbf000045-resize_2/000878_2014-06-08_22-52-45_260595134347_rgbf000045-resize_2-target.png,depth_discrimination_stimuli/003338_2014-05-20_11-01-23_094959634447_rgbf000051-resize_6/003338_2014-05-20_11-01-23_094959634447_rgbf000051-resize_6-target.png,1000,2.092,1.693,1,1903,500,1001,499,1001,499,feet,,,,,1112523,1152890,55
404590,DepthScenes,duration_discrimination,discrim_jsons/d0.json,http://54.173.234.186/DepthDuration/depth_discrimination_MTurk/DepthDiscrim_HTML.html#4,4,1920,1200,1920,1200,6-19-2021,14-10-12,73,depth_discrimination_stimuli/002750_2014-06-22_19-08-03_094959634447_rgbf000094-resize_4/002750_2014-06-22_19-08-03_094959634447_rgbf000094-resize_4-target.png,depth_discrimination_stimuli/001188_2014-06-17_15-54-10_260595134347_rgbf000090-resize_2/001188_2014-06-17_15-54-10_260595134347_rgbf000090-resize_2-target.png,250,2.354,2.744,0,1204,501,249,501,249,500,feet,,,,,1112523,1152890,55
404590,DepthScenes,duration_discrimination,discrim_jsons/d0.json,http://54.173.234.186/DepthDuration/depth_discrimination_MTurk/DepthDiscrim_HTML.html#4,4,1920,1200,1920,1200,6-19-2021,14-10-12,74,depth_discrimination_stimuli/000740_2014-06-08_18-46-23_260595134347_rgbf000049-resize_6/000740_2014-06-08_18-46-23_260595134347_rgbf000049-resize_6-target.png,depth_discrimination_stimuli/002905_2014-06-03_18-04-43_094959634447_rgbf000151-resize_2/002905_2014-06-03_18-04-43_094959634447_rgbf000151-resize_2-target.png,1000,1.687,2.0295,1,1895,500,1000,501,1000,500,feet,,,,,1112523,1152890,55
404590,DepthScenes,duration_discrimination,discrim_jsons/d0.json,http://54.173.234.186/DepthDuration/depth_discrimination_MTurk/DepthDiscrim_HTML.html#4,4,1920,1200,1920,1200,6-19-2021,14-10-12,75,depth_discrimination_stimuli/000483_2014-06-09_20-41-45_260595134347_rgbf000116-resize_4/000483_2014-06-09_20-41-45_260595134347_rgbf000116-resize_4-target.png,depth_discrimination_stimuli/002964_2014-06-08_17-46-11_094959634447_rgbf000091-resize_4/002964_2014-06-08_17-46-11_094959634447_rgbf000091-resize_4-target.png,250,1.337,1.691,1,1189,501,250,500,249,500,feet,,,,,1112523,1152890,55
404590,DepthScenes,duration_discrimination,discrim_jsons/d0.json,http://54.173.234.186/DepthDuration/depth_discrimination_MTurk/DepthDiscrim_HTML.html#4,4,1920,1200,1920,1200,6-19-2021,14-10-12,76,depth_discrimination_stimuli/000103_2014-05-14_22-01-17_260595134347_rgbf000152-resize_5/000103_2014-05-14_22-01-17_260595134347_rgbf000152-resize_5-target.png,depth_discrimination_stimuli/000810_2014-06-08_17-20-01_260595134347_rgbf000105-resize_0/000810_2014-06-08_17-20-01_260595134347_rgbf000105-resize_0-target.png,1000,1.993,1.4865,0,1949,500,1000,500,1003,497,feet,,,,,1112523,1152890,55
404590,DepthScenes,duration_discrimination,discrim_jsons/d0.json,http://54.173.234.186/DepthDuration/depth_discrimination_MTurk/DepthDiscrim_HTML.html#4,4,1920,1200,1920,1200,6-19-2021,14-10-12,77,depth_discrimination_stimuli/001056_2014-06-08_18-46-44_260595134347_rgbf000068-resize_0/001056_2014-06-08_18-46-44_260595134347_rgbf000068-resize_0-target.png,depth_discrimination_stimuli/003079_2014-06-15_15-18-20_094959634447_rgbf000152-resize_8/003079_2014-06-15_15-18-20_094959634447_rgbf000152-resize_8-target.png,250,2.6625,2.8775,0,1295,501,250,500,251,499,feet,,,,,1112523,1152890,55
404590,DepthScenes,duration_discrimination,discrim_jsons/d0.json,http://54.173.234.186/DepthDuration/depth_discrimination_MTurk/DepthDiscrim_HTML.html#4,4,1920,1200,1920,1200,6-19-2021,14-10-12,78,depth_discrimination_stimuli/001110_2014-06-15_17-25-28_260595134347_rgbf000150-resize_1/001110_2014-06-15_17-25-28_260595134347_rgbf000150-resize_1-target.png,depth_discrimination_stimuli/000555_2014-06-09_22-42-23_260595134347_rgbf000037-resize_4/000555_2014-06-09_22-42-23_260595134347_rgbf000037-resize_4-target.png,250,1.7115,1.9765,1,1077,501,250,500,250,501,feet,,,,,1112523,1152890,55
404590,DepthScenes,duration_discrimination,discrim_jsons/d0.json,http://54.173.234.186/DepthDuration/depth_discrimination_MTurk/DepthDiscrim_HTML.html#4,4,1920,1200,1920,1200,6-19-2021,14-10-12,79,depth_discrimination_stimuli/000677_2014-06-08_23-10-32_260595134347_rgbf000158-resize_6/000677_2014-06-08_23-10-32_260595134347_rgbf000158-resize_6-target.png,depth_discrimination_stimuli/001150_2014-06-17_15-27-34_260595134347_rgbf000108-resize_2/001150_2014-06-17_15-27-34_260595134347_rgbf000108-resize_2-target.png,250,3.556,4.0325,0,1021,500,251,499,250,501,feet,,,,,1112523,1152890,55
404590,DepthScenes,duration_discrimination,discrim_jsons/d0.json,http://54.173.234.186/DepthDuration/depth_discrimination_MTurk/DepthDiscrim_HTML.html#4,4,1920,1200,1920,1200,6-19-2021,14-10-12,80,depth_discrimination_stimuli/002414_2014-06-28_20-24-58_260595134347_rgbf000067-resize_4/002414_2014-06-28_20-24-58_260595134347_rgbf000067-resize_4-target.png,depth_discrimination_stimuli/001828_2014-06-26_21-40-03_260595134347_rgbf000024-resize_0/001828_2014-06-26_21-40-03_260595134347_rgbf000024-resize_0-target.png,1000,4.363,4.826,0,3006,501,999,501,1000,499,feet,,,,,1112523,1152890,55
404590,DepthScenes,duration_discrimination,discrim_jsons/d0.json,http://54.173.234.186/DepthDuration/depth_discrimination_MTurk/DepthDiscrim_HTML.html#4,4,1920,1200,1920,1200,6-19-2021,14-10-12,81,depth_discrimination_stimuli/001244_2014-06-17_16-47-45_260595134347_rgbf000030-resize_4/001244_2014-06-17_16-47-45_260595134347_rgbf000030-resize_4-target.png,depth_discrimination_stimuli/002763_2014-06-22_19-13-10_094959634447_rgbf000075-resize_4/002763_2014-06-22_19-13-10_094959634447_rgbf000075-resize_4-target.png,1000,2.0425,1.68375,0,2086,501,1001,500,999,499,feet,,,,,1112523,1152890,55
404590,DepthScenes,duration_discrimination,discrim_jsons/d0.json,http://54.173.234.186/DepthDuration/depth_discrimination_MTurk/DepthDiscrim_HTML.html#4,4,1920,1200,1920,1200,6-19-2021,14-10-12,82,depth_discrimination_stimuli/000505_2014-06-08_23-03-23_260595134347_rgbf000091-resize_0/000505_2014-06-08_23-03-23_260595134347_rgbf000091-resize_0-target.png,depth_discrimination_stimuli/002057_2014-06-24_21-00-13_260595134347_rgbf000120-resize_1/002057_2014-06-24_21-00-13_260595134347_rgbf000120-resize_1-target.png,1000,3.3105,2.967,0,1503,501,999,501,1000,500,feet,,,,,1112523,1152890,55
404590,DepthScenes,duration_discrimination,discrim_jsons/d0.json,http://54.173.234.186/DepthDuration/depth_discrimination_MTurk/DepthDiscrim_HTML.html#4,4,1920,1200,1920,1200,6-19-2021,14-10-12,83,depth_discrimination_stimuli/001392_2014-06-19_16-07-59_260595134347_rgbf000046-resize_1/001392_2014-06-19_16-07-59_260595134347_rgbf000046-resize_1-target.png,depth_discrimination_stimuli/003490_2014-05-21_15-50-11_094959634447_rgbf000101-resize_3/003490_2014-05-21_15-50-11_094959634447_rgbf000101-resize_3-target.png,1000,4.135,3.6445,0,2022,500,1001,500,999,500,feet,,,,,1112523,1152890,55
404590,DepthScenes,duration_discrimination,discrim_jsons/d0.json,http://54.173.234.186/DepthDuration/depth_discrimination_MTurk/DepthDiscrim_HTML.html#4,4,1920,1200,1920,1200,6-19-2021,14-10-12,84,depth_discrimination_stimuli/000502_2014-06-08_23-02-32_260595134347_rgbf000063-resize_4/000502_2014-06-08_23-02-32_260595134347_rgbf000063-resize_4-target.png,depth_discrimination_stimuli/002987_2014-06-08_18-48-20_094959634447_rgbf000022-resize_0/002987_2014-06-08_18-48-20_094959634447_rgbf000022-resize_0-target.png,1000,2.431,2.6775,0,2024,502,999,500,1000,500,feet,,,,,1112523,1152890,55
404590,DepthScenes,duration_discrimination,discrim_jsons/d0.json,http://54.173.234.186/DepthDuration/depth_discrimination_MTurk/DepthDiscrim_HTML.html#4,4,1920,1200,1920,1200,6-19-2021,14-10-12,85,depth_discrimination_stimuli/002675_2014-06-13_16-08-49_094959634447_rgbf000151-resize_2/002675_2014-06-13_16-08-49_094959634447_rgbf000151-resize_2-target.png,depth_discrimination_stimuli/001222_2014-06-17_16-24-06_260595134347_rgbf000073-resize_0/001222_2014-06-17_16-24-06_260595134347_rgbf000073-resize_0-target.png,1000,4.5065,1.4385,1,2134,500,1000,502,998,500,feet,,,,,1112523,1152890,55
404590,DepthScenes,duration_discrimination,discrim_jsons/d0.json,http://54.173.234.186/DepthDuration/depth_discrimination_MTurk/DepthDiscrim_HTML.html#4,4,1920,1200,1920,1200,6-19-2021,14-10-12,86,depth_discrimination_stimuli/001158_2014-06-17_15-32-16_260595134347_rgbf000138-resize_2/001158_2014-06-17_15-32-16_260595134347_rgbf000138-resize_2-target.png,depth_discrimination_stimuli/003492_2014-05-21_15-50-55_094959634447_rgbf000828-resize_1/003492_2014-05-21_15-50-55_094959634447_rgbf000828-resize_1-target.png,250,4.5315,4.06875,0,1933,500,250,500,251,499,feet,,,,,1112523,1152890,55
404590,DepthScenes,duration_discrimination,discrim_jsons/d0.json,http://54.173.234.186/DepthDuration/depth_discrimination_MTurk/DepthDiscrim_HTML.html#4,4,1920,1200,1920,1200,6-19-2021,14-10-12,87,depth_discrimination_stimuli/000773_2014-06-08_22-24-54_260595134347_rgbf000093-resize_1/000773_2014-06-08_22-24-54_260595134347_rgbf000093-resize_1-target.png,depth_discrimination_stimuli/000742_2014-06-08_18-48-09_260595134347_rgbf000164-resize_4/000742_2014-06-08_18-48-09_260595134347_rgbf000164-resize_4-target.png,250,4.973,4.632,0,1950,501,250,499,251,500,feet,,,,,1112523,1152890,55
404590,DepthScenes,duration_discrimination,discrim_jsons/d0.json,http://54.173.234.186/DepthDuration/depth_discrimination_MTurk/DepthDiscrim_HTML.html#4,4,1920,1200,1920,1200,6-19-2021,14-10-12,88,depth_discrimination_stimuli/000854_2014-06-09_19-43-13_260595134347_rgbf000066-resize_0/000854_2014-06-09_19-43-13_260595134347_rgbf000066-resize_0-target.png,depth_discrimination_stimuli/002758_2014-06-22_19-11-20_094959634447_rgbf000128-resize_1/002758_2014-06-22_19-11-20_094959634447_rgbf000128-resize_1-target.png,1000,3.068,2.555,1,2455,500,999,501,999,501,feet,,,,,1112523,1152890,55
404590,DepthScenes,duration_discrimination,discrim_jsons/d0.json,http://54.173.234.186/DepthDuration/depth_discrimination_MTurk/DepthDiscrim_HTML.html#4,4,1920,1200,1920,1200,6-19-2021,14-10-12,89,depth_discrimination_stimuli/001055_2014-06-08_18-45-35_260595134347_rgbf000111-resize_4/001055_2014-06-08_18-45-35_260595134347_rgbf000111-resize_4-target.png,depth_discrimination_stimuli/002209_2014-06-28_18-36-10_260595134347_rgbf000051-resize_1/002209_2014-06-28_18-36-10_260595134347_rgbf000051-resize_1-target.png,250,2.429,2.057,1,1149,499,250,501,249,500,feet,,,,,1112523,1152890,55
404590,DepthScenes,duration_discrimination,discrim_jsons/d0.json,http://54.173.234.186/DepthDuration/depth_discrimination_MTurk/DepthDiscrim_HTML.html#4,4,1920,1200,1920,1200,6-19-2021,14-10-12,90,depth_discrimination_stimuli/000414_2014-06-04_19-49-13_260595134347_rgbf000044-resize_0/000414_2014-06-04_19-49-13_260595134347_rgbf000044-resize_0-target.png,depth_discrimination_stimuli/002663_2014-06-13_15-50-26_094959634447_rgbf000075-resize_1/002663_2014-06-13_15-50-26_094959634447_rgbf000075-resize_1-target.png,1000,4.329,4.7495,0,1968,501,999,500,1000,506,feet,,,,,1112523,1152890,55
404590,DepthScenes,duration_discrimination,discrim_jsons/d0.json,http://54.173.234.186/DepthDuration/depth_discrimination_MTurk/DepthDiscrim_HTML.html#4,4,1920,1200,1920,1200,6-19-2021,14-10-12,91,depth_discrimination_stimuli/002725_2014-06-22_11-47-51_094959634447_rgbf000070-resize_1/002725_2014-06-22_11-47-51_094959634447_rgbf000070-resize_1-target.png,depth_discrimination_stimuli/002153_2014-06-25_21-27-18_260595134347_rgbf000038-resize_5/002153_2014-06-25_21-27-18_260595134347_rgbf000038-resize_5-target.png,1000,2.195,2.505,1,1999,501,999,500,1000,500,feet,,,,,1112523,1152890,55
404590,DepthScenes,duration_discrimination,discrim_jsons/d0.json,http://54.173.234.186/DepthDuration/depth_discrimination_MTurk/DepthDiscrim_HTML.html#4,4,1920,1200,1920,1200,6-19-2021,14-10-12,92,depth_discrimination_stimuli/002570_2014-06-24_13-59-54_094959634447_rgbf000059-resize_0/002570_2014-06-24_13-59-54_094959634447_rgbf000059-resize_0-target.png,depth_discrimination_stimuli/001584_2014-06-20_11-07-43_260595134347_rgbf000002-resize_1/001584_2014-06-20_11-07-43_260595134347_rgbf000002-resize_1-target.png,250,4.037,3.53,1,1301,500,250,500,250,500,feet,,,,,1112523,1152890,55
404590,DepthScenes,duration_discrimination,discrim_jsons/d0.json,http://54.173.234.186/DepthDuration/depth_discrimination_MTurk/DepthDiscrim_HTML.html#4,4,1920,1200,1920,1200,6-19-2021,14-10-12,93,depth_discrimination_stimuli/002072_2014-06-24_21-48-06_260595134347_rgbf000115-resize_0/002072_2014-06-24_21-48-06_260595134347_rgbf000115-resize_0-target.png,depth_discrimination_stimuli/001012_2014-06-08_23-19-38_260595134347_rgbf000057-resize_0/001012_2014-06-08_23-19-38_260595134347_rgbf000057-resize_0-target.png,250,4.702,1.38325,0,2071,506,246,499,250,500,feet,,,,,1112523,1152890,55
404590,DepthScenes,duration_discrimination,discrim_jsons/d0.json,http://54.173.234.186/DepthDuration/depth_discrimination_MTurk/DepthDiscrim_HTML.html#4,4,1920,1200,1920,1200,6-19-2021,14-10-12,94,depth_discrimination_stimuli/000470_2014-06-09_19-42-40_260595134347_rgbf000094-resize_1/000470_2014-06-09_19-42-40_260595134347_rgbf000094-resize_1-target.png,depth_discrimination_stimuli/000109_2014-05-14_23-41-52_260595134347_rgbf000035-resize_9/000109_2014-05-14_23-41-52_260595134347_rgbf000035-resize_9-target.png,1000,1.831,1.3545,1,1900,500,1000,501,999,500,feet,,,,,1112523,1152890,55
404590,DepthScenes,duration_discrimination,discrim_jsons/d0.json,http://54.173.234.186/DepthDuration/depth_discrimination_MTurk/DepthDiscrim_HTML.html#4,4,1920,1200,1920,1200,6-19-2021,14-10-12,95,depth_discrimination_stimuli/001011_2014-06-08_23-18-54_260595134347_rgbf000044-resize_4/001011_2014-06-08_23-18-54_260595134347_rgbf000044-resize_4-target.png,depth_discrimination_stimuli/002678_2014-06-13_16-15-32_094959634447_rgbf000151-resize_6/002678_2014-06-13_16-15-32_094959634447_rgbf000151-resize_6-target.png,1000,2.473,2.183,0,1974,500,1001,501,999,499,feet,,,,,1112523,1152890,55
404590,DepthScenes,duration_discrimination,discrim_jsons/d0.json,http://54.173.234.186/DepthDuration/depth_discrimination_MTurk/DepthDiscrim_HTML.html#4,4,1920,1200,1920,1200,6-19-2021,14-10-12,96,depth_discrimination_stimuli/001032_2014-06-08_13-23-17_260595134347_rgbf000021-resize_3/001032_2014-06-08_13-23-17_260595134347_rgbf000021-resize_3-target.png,depth_discrimination_stimuli/002790_2014-06-22_19-36-35_094959634447_rgbf000074-resize_4/002790_2014-06-22_19-36-35_094959634447_rgbf000074-resize_4-target.png,1000,3.2725,3.512,0,4015,501,1000,500,1000,499,feet,,,,,1112523,1152890,55
404590,DepthScenes,duration_discrimination,discrim_jsons/d0.json,http://54.173.234.186/DepthDuration/depth_discrimination_MTurk/DepthDiscrim_HTML.html#4,4,1920,1200,1920,1200,6-19-2021,14-10-12,96,,,,,,,4015,501,1000,500,1000,499,feet,,,,,1112523,1152890,55
404590,DepthScenes,duration_discrimination,discrim_jsons/d0.json,http://54.173.234.186/DepthDuration/depth_discrimination_MTurk/DepthDiscrim_HTML.html#4,4,1364,860,1376,860,6-19-2021,14-10-12,98,,,,,,,4015,501,1000,500,1000,499,feet,3,2,depth_discrimination_stimuli/002213_2014-06-28_18-37-58_260595134347_rgbf000055-resize_1/002213_2014-06-28_18-37-58_260595134347_rgbf000055-resize-original.jpg,17262,1112523,1152890,55
404590,DepthScenes,duration_discrimination,discrim_jsons/d0.json,http://54.173.234.186/DepthDuration/depth_discrimination_MTurk/DepthDiscrim_HTML.html#4,4,1364,860,1376,860,6-19-2021,14-10-12,99,,,,,,,4015,501,1000,500,1000,499,feet,3,3,depth_discrimination_stimuli/002905_2014-06-03_18-04-43_094959634447_rgbf000151-resize_2/002905_2014-06-03_18-04-43_094959634447_rgbf000151-resize-original.jpg,4088,1112523,1152890,55
404590,DepthScenes,duration_discrimination,discrim_jsons/d0.json,http://54.173.234.186/DepthDuration/depth_discrimination_MTurk/DepthDiscrim_HTML.html#4,4,1364,860,1376,860,6-19-2021,14-10-12,100,,,,,,,4015,501,1000,500,1000,499,feet,4,3,depth_discrimination_stimuli/000788_2014-06-08_22-34-36_260595134347_rgbf000131-resize_1/000788_2014-06-08_22-34-36_260595134347_rgbf000131-resize-original.jpg,5351,1112523,1152890,55
404590,DepthScenes,duration_discrimination,discrim_jsons/d0.json,http://54.173.234.186/DepthDuration/depth_discrimination_MTurk/DepthDiscrim_HTML.html#4,4,1364,860,1376,860,6-19-2021,14-10-12,101,,,,,,,4015,501,1000,500,1000,499,feet,3,2,depth_discrimination_stimuli/002305_2014-06-28_19-56-50_260595134347_rgbf000102-resize_7/002305_2014-06-28_19-56-50_260595134347_rgbf000102-resize-original.jpg,4991,1112523,1152890,55
404590,DepthScenes,duration_discrimination,discrim_jsons/d0.json,http://54.173.234.186/DepthDuration/depth_discrimination_MTurk/DepthDiscrim_HTML.html#4,4,1364,860,1376,860,6-19-2021,14-10-12,102,,,,,,,4015,501,1000,500,1000,499,feet,4,4,depth_discrimination_stimuli/002750_2014-06-22_19-08-03_094959634447_rgbf000094-resize_4/002750_2014-06-22_19-08-03_094959634447_rgbf000094-resize-original.jpg,6968,1112523,1152890,55
404590,DepthScenes,duration_discrimination,discrim_jsons/d0.json,http://54.173.234.186/DepthDuration/depth_discrimination_MTurk/DepthDiscrim_HTML.html#4,4,1364,860,1376,860,6-19-2021,14-10-12,103,,,,,,,4015,501,1000,500,1000,499,feet,4,3,depth_discrimination_stimuli/000414_2014-06-04_19-49-13_260595134347_rgbf000044-resize_0/000414_2014-06-04_19-49-13_260595134347_rgbf000044-resize-original.jpg,5768,1112523,1152890,55
404590,DepthScenes,duration_discrimination,discrim_jsons/d0.json,http://54.173.234.186/DepthDuration/depth_discrimination_MTurk/DepthDiscrim_HTML.html#4,4,1364,860,1376,860,6-19-2021,14-10-12,104,,,,,,,4015,501,1000,500,1000,499,feet,2,2,depth_discrimination_stimuli/002340_2014-06-28_20-05-46_260595134347_rgbf000113-resize_0/002340_2014-06-28_20-05-46_260595134347_rgbf000113-resize-original.jpg,3463,1112523,1152890,55
404590,DepthScenes,duration_discrimination,discrim_jsons/d0.json,http://54.173.234.186/DepthDuration/depth_discrimination_MTurk/DepthDiscrim_HTML.html#4,4,1364,860,1376,860,6-19-2021,14-10-12,105,,,,,,,4015,501,1000,500,1000,499,feet,2,1,depth_discrimination_stimuli/002639_2014-06-24_14-51-37_094959634447_rgbf000074-resize_4/002639_2014-06-24_14-51-37_094959634447_rgbf000074-resize-original.jpg,3760,1112523,1152890,55
404590,DepthScenes,duration_discrimination,discrim_jsons/d0.json,http://54.173.234.186/DepthDuration/depth_discrimination_MTurk/DepthDiscrim_HTML.html#4,4,1364,860,1376,860,6-19-2021,14-10-12,106,,,,,,,4015,501,1000,500,1000,499,feet,3,3,depth_discrimination_stimuli/000493_2014-06-09_21-01-18_260595134347_rgbf000196-resize_3/000493_2014-06-09_21-01-18_260595134347_rgbf000196-resize-original.jpg,3671,1112523,1152890,55
404590,DepthScenes,duration_discrimination,discrim_jsons/d0.json,http://54.173.234.186/DepthDuration/depth_discrimination_MTurk/DepthDiscrim_HTML.html#4,4,1364,860,1376,860,6-19-2021,14-10-12,107,,,,,,,4015,501,1000,500,1000,499,feet,4,4,depth_discrimination_stimuli/001392_2014-06-19_16-07-59_260595134347_rgbf000046-resize_1/001392_2014-06-19_16-07-59_260595134347_rgbf000046-resize-original.jpg,2943,1112523,1152890,55
404590,DepthScenes,duration_discrimination,discrim_jsons/d0.json,http://54.173.234.186/DepthDuration/depth_discrimination_MTurk/DepthDiscrim_HTML.html#4,4,1364,860,1376,860,6-19-2021,14-10-12,108,,,,,,,4015,501,1000,500,1000,499,feet,3,4,depth_discrimination_stimuli/002103_2014-06-25_20-00-40_260595134347_rgbf000049-resize_0/002103_2014-06-25_20-00-40_260595134347_rgbf000049-resize-original.jpg,4064,1112523,1152890,55
404590,DepthScenes,duration_discrimination,discrim_jsons/d0.json,http://54.173.234.186/DepthDuration/depth_discrimination_MTurk/DepthDiscrim_HTML.html#4,4,1364,860,1376,860,6-19-2021,14-10-12,109,,,,,,,4015,501,1000,500,1000,499,feet,4,4,depth_discrimination_stimuli/000682_2014-06-08_23-14-58_260595134347_rgbf000041-resize_5/000682_2014-06-08_23-14-58_260595134347_rgbf000041-resize-original.jpg,5760,1112523,1152890,55
404590,DepthScenes,duration_discrimination,discrim_jsons/d0.json,http://54.173.234.186/DepthDuration/depth_discrimination_MTurk/DepthDiscrim_HTML.html#4,4,1364,860,1376,860,6-19-2021,14-10-12,110,,,,,,,4015,501,1000,500,1000,499,feet,3,2,depth_discrimination_stimuli/000740_2014-06-08_18-46-23_260595134347_rgbf000049-resize_6/000740_2014-06-08_18-46-23_260595134347_rgbf000049-resize-original.jpg,3568,1112523,1152890,55
404590,DepthScenes,duration_discrimination,discrim_jsons/d0.json,http://54.173.234.186/DepthDuration/depth_discrimination_MTurk/DepthDiscrim_HTML.html#4,4,1364,860,1376,860,6-19-2021,14-10-12,111,,,,,,,4015,501,1000,500,1000,499,feet,3,3,depth_discrimination_stimuli/001828_2014-06-26_21-40-03_260595134347_rgbf000024-resize_0/001828_2014-06-26_21-40-03_260595134347_rgbf000024-resize-original.jpg,3600,1112523,1152890,55
404590,DepthScenes,duration_discrimination,discrim_jsons/d0.json,http://54.173.234.186/DepthDuration/depth_discrimination_MTurk/DepthDiscrim_HTML.html#4,4,1364,860,1376,860,6-19-2021,14-10-12,112,,,,,,,4015,501,1000,500,1000,499,feet,3,3,depth_discrimination_stimuli/000483_2014-06-09_20-41-45_260595134347_rgbf000116-resize_4/000483_2014-06-09_20-41-45_260595134347_rgbf000116-resize-original.jpg,3456,1112523,1152890,55
404590,DepthScenes,duration_discrimination,discrim_jsons/d0.json,http://54.173.234.186/DepthDuration/depth_discrimination_MTurk/DepthDiscrim_HTML.html#4,4,1364,860,1376,860,6-19-2021,14-10-12,113,,,,,,,4015,501,1000,500,1000,499,feet,3,3,depth_discrimination_stimuli/001244_2014-06-17_16-47-45_260595134347_rgbf000030-resize_4/001244_2014-06-17_16-47-45_260595134347_rgbf000030-resize-original.jpg,3208,1112523,1152890,55
404590,DepthScenes,duration_discrimination,discrim_jsons/d0.json,http://54.173.234.186/DepthDuration/depth_discrimination_MTurk/DepthDiscrim_HTML.html#4,4,1364,860,1376,860,6-19-2021,14-10-12,114,,,,,,,4015,501,1000,500,1000,499,feet,3,3,depth_discrimination_stimuli/001570_2014-06-20_17-21-09_260595134347_rgbf000135-resize_4/001570_2014-06-20_17-21-09_260595134347_rgbf000135-resize-original.jpg,3584,1112523,1152890,55
404590,DepthScenes,duration_discrimination,discrim_jsons/d0.json,http://54.173.234.186/DepthDuration/depth_discrimination_MTurk/DepthDiscrim_HTML.html#4,4,1364,860,1376,860,6-19-2021,14-10-12,115,,,,,,,4015,501,1000,500,1000,499,feet,3,3,depth_discrimination_stimuli/000665_2014-06-09_20-42-35_260595134347_rgbf000110-resize_1/000665_2014-06-09_20-42-35_260595134347_rgbf000110-resize-original.jpg,2888,1112523,1152890,55
404590,DepthScenes,duration_discrimination,discrim_jsons/d0.json,http://54.173.234.186/DepthDuration/depth_discrimination_MTurk/DepthDiscrim_HTML.html#4,4,1364,860,1376,860,6-19-2021,14-10-12,116,,,,,,,4015,501,1000,500,1000,499,feet,2,3,depth_discrimination_stimuli/002545_2014-06-24_13-38-53_094959634447_rgbf000080-resize_4/002545_2014-06-24_13-38-53_094959634447_rgbf000080-resize-original.jpg,3759,1112523,1152890,55
404590,DepthScenes,duration_discrimination,discrim_jsons/d0.json,http://54.173.234.186/DepthDuration/depth_discrimination_MTurk/DepthDiscrim_HTML.html#4,4,1364,860,1376,860,6-19-2021,14-10-12,117,,,,,,,4015,501,1000,500,1000,499,feet,2,3,depth_discrimination_stimuli/003092_2014-06-24_21-01-49_094959634447_rgbf000049-resize_2/003092_2014-06-24_21-01-49_094959634447_rgbf000049-resize-original.jpg,3175,1112523,1152890,55
404590,DepthScenes,duration_discrimination,discrim_jsons/d0.json,http://54.173.234.186/DepthDuration/depth_discrimination_MTurk/DepthDiscrim_HTML.html#4,4,1364,860,1376,860,6-19-2021,14-10-12,118,,,,,,,4015,501,1000,500,1000,499,feet,2,2,depth_discrimination_stimuli/002763_2014-06-22_19-13-10_094959634447_rgbf000075-resize_4/002763_2014-06-22_19-13-10_094959634447_rgbf000075-resize-original.jpg,3056,1112523,1152890,55
404590,DepthScenes,duration_discrimination,discrim_jsons/d0.json,http://54.173.234.186/DepthDuration/depth_discrimination_MTurk/DepthDiscrim_HTML.html#4,4,1364,860,1376,860,6-19-2021,14-10-12,119,,,,,,,4015,501,1000,500,1000,499,feet,4,2,depth_discrimination_stimuli/002663_2014-06-13_15-50-26_094959634447_rgbf000075-resize_1/002663_2014-06-13_15-50-26_094959634447_rgbf000075-resize-original.jpg,3911,1112523,1152890,55
404590,DepthScenes,duration_discrimination,discrim_jsons/d0.json,http://54.173.234.186/DepthDuration/depth_discrimination_MTurk/DepthDiscrim_HTML.html#4,4,1364,860,1376,860,6-19-2021,14-10-12,120,,,,,,,4015,501,1000,500,1000,499,feet,4,2,scene_property_catch_stimuli/sun_bpzzatthlcapxzol.jpg,3768,1112523,1152890,55
404590,DepthScenes,duration_discrimination,discrim_jsons/d0.json,http://54.173.234.186/DepthDuration/depth_discrimination_MTurk/DepthDiscrim_HTML.html#4,4,1364,860,1376,860,6-19-2021,14-10-12,121,,,,,,,4015,501,1000,500,1000,499,feet,2,2,depth_discrimination_stimuli/002995_2014-06-15_12-31-26_094959634447_rgbf000150-resize_1/002995_2014-06-15_12-31-26_094959634447_rgbf000150-resize-original.jpg,2856,1112523,1152890,55
404590,DepthScenes,duration_discrimination,discrim_jsons/d0.json,http://54.173.234.186/DepthDuration/depth_discrimination_MTurk/DepthDiscrim_HTML.html#4,4,1364,860,1376,860,6-19-2021,14-10-12,122,,,,,,,4015,501,1000,500,1000,499,feet,3,2,depth_discrimination_stimuli/000642_2014-06-08_16-59-25_260595134347_rgbf000098-resize_2/000642_2014-06-08_16-59-25_260595134347_rgbf000098-resize-original.jpg,3928,1112523,1152890,55
404590,DepthScenes,duration_discrimination,discrim_jsons/d0.json,http://54.173.234.186/DepthDuration/depth_discrimination_MTurk/DepthDiscrim_HTML.html#4,4,1364,860,1376,860,6-19-2021,14-10-12,123,,,,,,,4015,501,1000,500,1000,499,feet,4,3,depth_discrimination_stimuli/002118_2014-06-25_20-32-08_260595134347_rgbf000078-resize_1/002118_2014-06-25_20-32-08_260595134347_rgbf000078-resize-original.jpg,3471,1112523,1152890,55
404590,DepthScenes,duration_discrimination,discrim_jsons/d0.json,http://54.173.234.186/DepthDuration/depth_discrimination_MTurk/DepthDiscrim_HTML.html#4,4,1364,860,1376,860,6-19-2021,14-10-12,124,,,,,,,4015,501,1000,500,1000,499,feet,3,3,depth_discrimination_stimuli/000927_2014-06-09_16-32-30_260595134347_rgbf000123-resize_3/000927_2014-06-09_16-32-30_260595134347_rgbf000123-resize-original.jpg,2736,1112523,1152890,55
404590,DepthScenes,duration_discrimination,discrim_jsons/d0.json,http://54.173.234.186/DepthDuration/depth_discrimination_MTurk/DepthDiscrim_HTML.html#4,4,1364,860,1376,860,6-19-2021,14-10-12,125,,,,,,,4015,501,1000,500,1000,499,feet,5,4,scene_property_catch_stimuli/sun_aoquhiddlfqapdlz.jpg,5079,1112523,1152890,55
404590,DepthScenes,duration_discrimination,discrim_jsons/d0.json,http://54.173.234.186/DepthDuration/depth_discrimination_MTurk/DepthDiscrim_HTML.html#4,4,1364,860,1376,860,6-19-2021,14-10-12,126,,,,,,,4015,501,1000,500,1000,499,feet,3,3,depth_discrimination_stimuli/002660_2014-06-13_15-44-18_094959634447_rgbf001878-resize_2/002660_2014-06-13_15-44-18_094959634447_rgbf001878-resize-original.jpg,6231,1112523,1152890,55
404590,DepthScenes,duration_discrimination,discrim_jsons/d0.json,http://54.173.234.186/DepthDuration/depth_discrimination_MTurk/DepthDiscrim_HTML.html#4,4,1364,860,1376,860,6-19-2021,14-10-12,127,,,,,,,4015,501,1000,500,1000,499,feet,3,3,depth_discrimination_stimuli/000191_2014-05-12_17-07-38_260595134347_rgbf000199-resize_0/000191_2014-05-12_17-07-38_260595134347_rgbf000199-resize-original.jpg,2647,1112523,1152890,55
404590,DepthScenes,duration_discrimination,discrim_jsons/d0.json,http://54.173.234.186/DepthDuration/depth_discrimination_MTurk/DepthDiscrim_HTML.html#4,4,1364,860,1376,860,6-19-2021,14-10-12,128,,,,,,,4015,501,1000,500,1000,499,feet,2,2,depth_discrimination_stimuli/003048_2014-06-15_13-49-43_094959634447_rgbf000150-resize_1/003048_2014-06-15_13-49-43_094959634447_rgbf000150-resize-original.jpg,5031,1112523,1152890,55
404590,DepthScenes,duration_discrimination,discrim_jsons/d0.json,http://54.173.234.186/DepthDuration/depth_discrimination_MTurk/DepthDiscrim_HTML.html#4,4,1364,860,1376,860,6-19-2021,14-10-12,129,,,,,,,4015,501,1000,500,1000,499,feet,4,2,depth_discrimination_stimuli/003546_2014-05-22_15-48-53_094959634447_rgbf004816-resize_3/003546_2014-05-22_15-48-53_094959634447_rgbf004816-resize-original.jpg,3304,1112523,1152890,55
404590,DepthScenes,duration_discrimination,discrim_jsons/d0.json,http://54.173.234.186/DepthDuration/depth_discrimination_MTurk/DepthDiscrim_HTML.html#4,4,1364,860,1376,860,6-19-2021,14-10-12,130,,,,,,,4015,501,1000,500,1000,499,feet,3,2,depth_discrimination_stimuli/001235_2014-06-17_16-37-36_260595134347_rgbf000084-resize_4/001235_2014-06-17_16-37-36_260595134347_rgbf000084-resize-original.jpg,3063,1112523,1152890,55
404590,DepthScenes,duration_discrimination,discrim_jsons/d0.json,http://54.173.234.186/DepthDuration/depth_discrimination_MTurk/DepthDiscrim_HTML.html#4,4,1364,860,1376,860,6-19-2021,14-10-12,131,,,,,,,4015,501,1000,500,1000,499,feet,2,2,depth_discrimination_stimuli/002988_2014-06-15_12-24-20_094959634447_rgbf000150-resize_1/002988_2014-06-15_12-24-20_094959634447_rgbf000150-resize-original.jpg,2802,1112523,1152890,55
404590,DepthScenes,duration_discrimination,discrim_jsons/d0.json,http://54.173.234.186/DepthDuration/depth_discrimination_MTurk/DepthDiscrim_HTML.html#4,4,1364,860,1376,860,6-19-2021,14-10-12,132,,,,,,,4015,501,1000,500,1000,499,feet,3,3,depth_discrimination_stimuli/002758_2014-06-22_19-11-20_094959634447_rgbf000128-resize_1/002758_2014-06-22_19-11-20_094959634447_rgbf000128-resize-original.jpg,2861,1112523,1152890,55
404590,DepthScenes,duration_discrimination,discrim_jsons/d0.json,http://54.173.234.186/DepthDuration/depth_discrimination_MTurk/DepthDiscrim_HTML.html#4,4,1364,860,1376,860,6-19-2021,14-10-12,133,,,,,,,4015,501,1000,500,1000,499,feet,4,4,depth_discrimination_stimuli/001181_2014-06-17_15-50-57_260595134347_rgbf000106-resize_4/001181_2014-06-17_15-50-57_260595134347_rgbf000106-resize-original.jpg,4583,1112523,1152890,55
404590,DepthScenes,duration_discrimination,discrim_jsons/d0.json,http://54.173.234.186/DepthDuration/depth_discrimination_MTurk/DepthDiscrim_HTML.html#4,4,1364,860,1376,860,6-19-2021,14-10-12,134,,,,,,,4015,501,1000,500,1000,499,feet,4,4,depth_discrimination_stimuli/002568_2014-06-24_13-59-21_094959634447_rgbf000062-resize_4/002568_2014-06-24_13-59-21_094959634447_rgbf000062-resize-original.jpg,2335,1112523,1152890,55
404590,DepthScenes,duration_discrimination,discrim_jsons/d0.json,http://54.173.234.186/DepthDuration/depth_discrimination_MTurk/DepthDiscrim_HTML.html#4,4,1364,860,1376,860,6-19-2021,14-10-12,135,,,,,,,4015,501,1000,500,1000,499,feet,3,3,depth_discrimination_stimuli/001100_2014-06-15_17-46-26_260595134347_rgbf000225-resize_2/001100_2014-06-15_17-46-26_260595134347_rgbf000225-resize-original.jpg,2616,1112523,1152890,55
404590,DepthScenes,duration_discrimination,discrim_jsons/d0.json,http://54.173.234.186/DepthDuration/depth_discrimination_MTurk/DepthDiscrim_HTML.html#4,4,1364,860,1376,860,6-19-2021,14-10-12,136,,,,,,,4015,501,1000,500,1000,499,feet,3,1,depth_discrimination_stimuli/002630_2014-06-24_14-47-50_094959634447_rgbf000055-resize_1/002630_2014-06-24_14-47-50_094959634447_rgbf000055-resize-original.jpg,4560,1112523,1152890,55
404590,DepthScenes,duration_discrimination,discrim_jsons/d0.json,http://54.173.234.186/DepthDuration/depth_discrimination_MTurk/DepthDiscrim_HTML.html#4,4,1364,860,1376,860,6-19-2021,14-10-12,137,,,,,,,4015,501,1000,500,1000,499,feet,3,3,depth_discrimination_stimuli/001188_2014-06-17_15-54-10_260595134347_rgbf000090-resize_2/001188_2014-06-17_15-54-10_260595134347_rgbf000090-resize-original.jpg,2600,1112523,1152890,55
404590,DepthScenes,duration_discrimination,discrim_jsons/d0.json,http://54.173.234.186/DepthDuration/depth_discrimination_MTurk/DepthDiscrim_HTML.html#4,4,1364,860,1376,860,6-19-2021,14-10-12,138,,,,,,,4015,501,1000,500,1000,499,feet,3,3,depth_discrimination_stimuli/001059_2014-06-08_21-53-27_260595134347_rgbf000061-resize_4/001059_2014-06-08_21-53-27_260595134347_rgbf000061-resize-original.jpg,2512,1112523,1152890,55
404590,DepthScenes,duration_discrimination,discrim_jsons/d0.json,http://54.173.234.186/DepthDuration/depth_discrimination_MTurk/DepthDiscrim_HTML.html#4,4,1364,860,1376,860,6-19-2021,14-10-12,139,,,,,,,4015,501,1000,500,1000,499,feet,2,2,depth_discrimination_stimuli/001447_2014-06-19_17-00-32_260595134347_rgbf000082-resize_5/001447_2014-06-19_17-00-32_260595134347_rgbf000082-resize-original.jpg,2696,1112523,1152890,55
404590,DepthScenes,duration_discrimination,discrim_jsons/d0.json,http://54.173.234.186/DepthDuration/depth_discrimination_MTurk/DepthDiscrim_HTML.html#4,4,1364,860,1376,860,6-19-2021,14-10-12,140,,,,,,,4015,501,1000,500,1000,499,feet,2,3,depth_discrimination_stimuli/000506_2014-06-08_23-21-00_260595134347_rgbf000070-resize_7/000506_2014-06-08_23-21-00_260595134347_rgbf000070-resize-original.jpg,2896,1112523,1152890,55
404590,DepthScenes,duration_discrimination,discrim_jsons/d0.json,http://54.173.234.186/DepthDuration/depth_discrimination_MTurk/DepthDiscrim_HTML.html#4,4,1364,860,1376,860,6-19-2021,14-10-12,141,,,,,,,4015,501,1000,500,1000,499,feet,4,3,depth_discrimination_stimuli/002600_2014-06-24_14-27-04_094959634447_rgbf000074-resize_2/002600_2014-06-24_14-27-04_094959634447_rgbf000074-resize-original.jpg,4119,1112523,1152890,55
404590,DepthScenes,duration_discrimination,discrim_jsons/d0.json,http://54.173.234.186/DepthDuration/depth_discrimination_MTurk/DepthDiscrim_HTML.html#4,4,1364,860,1376,860,6-19-2021,14-10-12,142,,,,,,,4015,501,1000,500,1000,499,feet,3,3,depth_discrimination_stimuli/001148_2014-06-17_15-26-42_260595134347_rgbf000129-resize_0/001148_2014-06-17_15-26-42_260595134347_rgbf000129-resize-original.jpg,3560,1112523,1152890,55
404590,DepthScenes,duration_discrimination,discrim_jsons/d0.json,http://54.173.234.186/DepthDuration/depth_discrimination_MTurk/DepthDiscrim_HTML.html#4,4,1364,860,1376,860,6-19-2021,14-10-12,143,,,,,,,4015,501,1000,500,1000,499,feet,3,3,depth_discrimination_stimuli/001516_2014-06-20_16-25-09_260595134347_rgbf000076-resize_2/001516_2014-06-20_16-25-09_260595134347_rgbf000076-resize-original.jpg,2384,1112523,1152890,55
404590,DepthScenes,duration_discrimination,discrim_jsons/d0.json,http://54.173.234.186/DepthDuration/depth_discrimination_MTurk/DepthDiscrim_HTML.html#4,4,1364,860,1376,860,6-19-2021,14-10-12,144,,,,,,,4015,501,1000,500,1000,499,feet,2,3,depth_discrimination_stimuli/001618_2014-06-20_11-37-31_260595134347_rgbf000027-resize_3/001618_2014-06-20_11-37-31_260595134347_rgbf000027-resize-original.jpg,2648,1112523,1152890,55
404590,DepthScenes,duration_discrimination,discrim_jsons/d0.json,http://54.173.234.186/DepthDuration/depth_discrimination_MTurk/DepthDiscrim_HTML.html#4,4,1364,860,1376,860,6-19-2021,14-10-12,145,,,,,,,4015,501,1000,500,1000,499,feet,4,3,depth_discrimination_stimuli/003292_2014-05-14_21-53-49_094959634447_rgbf000100-resize_2/003292_2014-05-14_21-53-49_094959634447_rgbf000100-resize-original.jpg,3640,1112523,1152890,55
404590,DepthScenes,duration_discrimination,discrim_jsons/d0.json,http://54.173.234.186/DepthDuration/depth_discrimination_MTurk/DepthDiscrim_HTML.html#4,4,1364,860,1376,860,6-19-2021,14-10-12,146,,,,,,,4015,501,1000,500,1000,499,feet,3,3,depth_discrimination_stimuli/000878_2014-06-08_22-52-45_260595134347_rgbf000045-resize_2/000878_2014-06-08_22-52-45_260595134347_rgbf000045-resize-original.jpg,2287,1112523,1152890,55
404590,DepthScenes,duration_discrimination,discrim_jsons/d0.json,http://54.173.234.186/DepthDuration/depth_discrimination_MTurk/DepthDiscrim_HTML.html#4,4,1364,860,1376,860,6-19-2021,14-10-12,147,,,,,,,4015,501,1000,500,1000,499,feet,3,3,depth_discrimination_stimuli/001808_2014-06-26_20-50-58_260595134347_rgbf000029-resize_1/001808_2014-06-26_20-50-58_260595134347_rgbf000029-resize-original.jpg,3161,1112523,1152890,55
404590,DepthScenes,duration_discrimination,discrim_jsons/d0.json,http://54.173.234.186/DepthDuration/depth_discrimination_MTurk/DepthDiscrim_HTML.html#4,4,1364,860,1376,860,6-19-2021,14-10-12,148,,,,,,,4015,501,1000,500,1000,499,feet,3,2,depth_discrimination_stimuli/001806_2014-06-26_20-50-20_260595134347_rgbf000091-resize_1/001806_2014-06-26_20-50-20_260595134347_rgbf000091-resize-original.jpg,3271,1112523,1152890,55
404590,DepthScenes,duration_discrimination,discrim_jsons/d0.json,http://54.173.234.186/DepthDuration/depth_discrimination_MTurk/DepthDiscrim_HTML.html#4,4,1364,860,1376,860,6-19-2021,14-10-12,149,,,,,,,4015,501,1000,500,1000,499,feet,3,2,depth_discrimination_stimuli/001650_2014-06-20_12-09-00_260595134347_rgbf000087-resize_3/001650_2014-06-20_12-09-00_260595134347_rgbf000087-resize-original.jpg,3088,1112523,1152890,55
404590,DepthScenes,duration_discrimination,discrim_jsons/d0.json,http://54.173.234.186/DepthDuration/depth_discrimination_MTurk/DepthDiscrim_HTML.html#4,4,1364,860,1376,860,6-19-2021,14-10-12,150,,,,,,,4015,501,1000,500,1000,499,feet,3,3,depth_discrimination_stimuli/000469_2014-06-09_19-42-10_260595134347_rgbf000081-resize_1/000469_2014-06-09_19-42-10_260595134347_rgbf000081-resize-original.jpg,3825,1112523,1152890,55
404590,DepthScenes,duration_discrimination,discrim_jsons/d0.json,http://54.173.234.186/DepthDuration/depth_discrimination_MTurk/DepthDiscrim_HTML.html#4,4,1364,860,1376,860,6-19-2021,14-10-12,151,,,,,,,4015,501,1000,500,1000,499,feet,3,2,depth_discrimination_stimuli/002279_2014-06-28_18-55-32_260595134347_rgbf000040-resize_5/002279_2014-06-28_18-55-32_260595134347_rgbf000040-resize-original.jpg,4080,1112523,1152890,55
404590,DepthScenes,duration_discrimination,discrim_jsons/d0.json,http://54.173.234.186/DepthDuration/depth_discrimination_MTurk/DepthDiscrim_HTML.html#4,4,1364,860,1376,860,6-19-2021,14-10-12,152,,,,,,,4015,501,1000,500,1000,499,feet,3,2,depth_discrimination_stimuli/000758_2014-06-08_22-05-08_260595134347_rgbf000085-resize_0/000758_2014-06-08_22-05-08_260595134347_rgbf000085-resize-original.jpg,3031,1112523,1152890,55
404590,DepthScenes,duration_discrimination,discrim_jsons/d0.json,http://54.173.234.186/DepthDuration/depth_discrimination_MTurk/DepthDiscrim_HTML.html#4,4,1364,860,1376,860,6-19-2021,14-10-12,153,,,,,,,4015,501,1000,500,1000,499,feet,3,2,depth_discrimination_stimuli/002043_2014-06-24_20-29-38_260595134347_rgbf000039-resize_4/002043_2014-06-24_20-29-38_260595134347_rgbf000039-resize-original.jpg,8743,1112523,1152890,55
404590,DepthScenes,duration_discrimination,discrim_jsons/d0.json,http://54.173.234.186/DepthDuration/depth_discrimination_MTurk/DepthDiscrim_HTML.html#4,4,1364,860,1376,860,6-19-2021,14-10-12,154,,,,,,,4015,501,1000,500,1000,499,feet,3,3,depth_discrimination_stimuli/001449_2014-06-19_17-01-27_260595134347_rgbf000116-resize_2/001449_2014-06-19_17-01-27_260595134347_rgbf000116-resize-original.jpg,2416,1112523,1152890,55
404590,DepthScenes,duration_discrimination,discrim_jsons/d0.json,http://54.173.234.186/DepthDuration/depth_discrimination_MTurk/DepthDiscrim_HTML.html#4,4,1364,860,1376,860,6-19-2021,14-10-12,155,,,,,,,4015,501,1000,500,1000,499,feet,2,2,depth_discrimination_stimuli/002953_2014-06-08_17-32-18_094959634447_rgbf000059-resize_5/002953_2014-06-08_17-32-18_094959634447_rgbf000059-resize-original.jpg,3032,1112523,1152890,55
404590,DepthScenes,duration_discrimination,discrim_jsons/d0.json,http://54.173.234.186/DepthDuration/depth_discrimination_MTurk/DepthDiscrim_HTML.html#4,4,1364,860,1376,860,6-19-2021,14-10-12,156,,,,,,,4015,501,1000,500,1000,499,feet,2,2,depth_discrimination_stimuli/001532_2014-06-20_16-50-41_260595134347_rgbf000081-resize_4/001532_2014-06-20_16-50-41_260595134347_rgbf000081-resize-original.jpg,2752,1112523,1152890,55
404590,DepthScenes,duration_discrimination,discrim_jsons/d0.json,http://54.173.234.186/DepthDuration/depth_discrimination_MTurk/DepthDiscrim_HTML.html#4,4,1364,860,1376,860,6-19-2021,14-10-12,157,,,,,,,4015,501,1000,500,1000,499,feet,3,2,depth_discrimination_stimuli/001150_2014-06-17_15-27-34_260595134347_rgbf000108-resize_2/001150_2014-06-17_15-27-34_260595134347_rgbf000108-resize-original.jpg,2480,1112523,1152890,55
404590,DepthScenes,duration_discrimination,discrim_jsons/d0.json,http://54.173.234.186/DepthDuration/depth_discrimination_MTurk/DepthDiscrim_HTML.html#4,4,1364,860,1376,860,6-19-2021,14-10-12,158,,,,,,,4015,501,1000,500,1000,499,feet,3,1,depth_discrimination_stimuli/001066_2014-06-08_22-03-20_260595134347_rgbf000066-resize_4/001066_2014-06-08_22-03-20_260595134347_rgbf000066-resize-original.jpg,4080,1112523,1152890,55
404590,DepthScenes,duration_discrimination,discrim_jsons/d0.json,http://54.173.234.186/DepthDuration/depth_discrimination_MTurk/DepthDiscrim_HTML.html#4,4,1364,860,1376,860,6-19-2021,14-10-12,159,,,,,,,4015,501,1000,500,1000,499,feet,4,2,depth_discrimination_stimuli/000677_2014-06-08_23-10-32_260595134347_rgbf000158-resize_6/000677_2014-06-08_23-10-32_260595134347_rgbf000158-resize-original.jpg,3951,1112523,1152890,55
404590,DepthScenes,duration_discrimination,discrim_jsons/d0.json,http://54.173.234.186/DepthDuration/depth_discrimination_MTurk/DepthDiscrim_HTML.html#4,4,1364,860,1376,860,6-19-2021,14-10-12,160,,,,,,,4015,501,1000,500,1000,499,feet,3,2,depth_discrimination_stimuli/003492_2014-05-21_15-50-55_094959634447_rgbf000828-resize_1/003492_2014-05-21_15-50-55_094959634447_rgbf000828-resize-original.jpg,3015,1112523,1152890,55
404590,DepthScenes,duration_discrimination,discrim_jsons/d0.json,http://54.173.234.186/DepthDuration/depth_discrimination_MTurk/DepthDiscrim_HTML.html#4,4,1364,860,1376,860,6-19-2021,14-10-12,161,,,,,,,4015,501,1000,500,1000,499,feet,4,2,depth_discrimination_stimuli/002445_2014-06-28_20-32-16_260595134347_rgbf000029-resize_4/002445_2014-06-28_20-32-16_260595134347_rgbf000029-resize-original.jpg,3296,1112523,1152890,55
404590,DepthScenes,duration_discrimination,discrim_jsons/d0.json,http://54.173.234.186/DepthDuration/depth_discrimination_MTurk/DepthDiscrim_HTML.html#4,4,1364,860,1376,860,6-19-2021,14-10-12,162,,,,,,,4015,501,1000,500,1000,499,feet,3,2,depth_discrimination_stimuli/000109_2014-05-14_23-41-52_260595134347_rgbf000035-resize_9/000109_2014-05-14_23-41-52_260595134347_rgbf000035-resize-original.jpg,2616,1112523,1152890,55
404590,DepthScenes,duration_discrimination,discrim_jsons/d0.json,http://54.173.234.186/DepthDuration/depth_discrimination_MTurk/DepthDiscrim_HTML.html#4,4,1364,860,1376,860,6-19-2021,14-10-12,163,,,,,,,4015,501,1000,500,1000,499,feet,3,3,depth_discrimination_stimuli/001815_2014-06-26_20-52-55_260595134347_rgbf000020-resize_0/001815_2014-06-26_20-52-55_260595134347_rgbf000020-resize-original.jpg,4040,1112523,1152890,55
404590,DepthScenes,duration_discrimination,discrim_jsons/d0.json,http://54.173.234.186/DepthDuration/depth_discrimination_MTurk/DepthDiscrim_HTML.html#4,4,1364,860,1376,860,6-19-2021,14-10-12,164,,,,,,,4015,501,1000,500,1000,499,feet,3,2,depth_discrimination_stimuli/002444_2014-06-28_20-32-08_260595134347_rgbf000027-resize_0/002444_2014-06-28_20-32-08_260595134347_rgbf000027-resize-original.jpg,3423,1112523,1152890,55
404590,DepthScenes,duration_discrimination,discrim_jsons/d0.json,http://54.173.234.186/DepthDuration/depth_discrimination_MTurk/DepthDiscrim_HTML.html#4,4,1364,860,1376,860,6-19-2021,14-10-12,165,,,,,,,4015,501,1000,500,1000,499,feet,2,2,depth_discrimination_stimuli/002964_2014-06-08_17-46-11_094959634447_rgbf000091-resize_4/002964_2014-06-08_17-46-11_094959634447_rgbf000091-resize-original.jpg,3433,1112523,1152890,55
404590,DepthScenes,duration_discrimination,discrim_jsons/d0.json,http://54.173.234.186/DepthDuration/depth_discrimination_MTurk/DepthDiscrim_HTML.html#4,4,1364,860,1376,860,6-19-2021,14-10-12,166,,,,,,,4015,501,1000,500,1000,499,feet,3,1,depth_discrimination_stimuli/002272_2014-06-28_18-53-56_260595134347_rgbf000067-resize_2/002272_2014-06-28_18-53-56_260595134347_rgbf000067-resize-original.jpg,3351,1112523,1152890,55
404590,DepthScenes,duration_discrimination,discrim_jsons/d0.json,http://54.173.234.186/DepthDuration/depth_discrimination_MTurk/DepthDiscrim_HTML.html#4,4,1364,860,1376,860,6-19-2021,14-10-12,167,,,,,,,4015,501,1000,500,1000,499,feet,3,2,depth_discrimination_stimuli/002748_2014-06-22_19-07-22_094959634447_rgbf000078-resize_1/002748_2014-06-22_19-07-22_094959634447_rgbf000078-resize-original.jpg,2887,1112523,1152890,55
404590,DepthScenes,duration_discrimination,discrim_jsons/d0.json,http://54.173.234.186/DepthDuration/depth_discrimination_MTurk/DepthDiscrim_HTML.html#4,4,1364,860,1376,860,6-19-2021,14-10-12,168,,,,,,,4015,501,1000,500,1000,499,feet,3,2,depth_discrimination_stimuli/000800_2014-06-08_22-42-09_260595134347_rgbf000095-resize_3/000800_2014-06-08_22-42-09_260595134347_rgbf000095-resize-original.jpg,3127,1112523,1152890,55
404590,DepthScenes,duration_discrimination,discrim_jsons/d0.json,http://54.173.234.186/DepthDuration/depth_discrimination_MTurk/DepthDiscrim_HTML.html#4,4,1364,860,1376,860,6-19-2021,14-10-12,169,,,,,,,4015,501,1000,500,1000,499,feet,3,2,depth_discrimination_stimuli/002788_2014-06-22_19-36-03_094959634447_rgbf000088-resize_2/002788_2014-06-22_19-36-03_094959634447_rgbf000088-resize-original.jpg,2416,1112523,1152890,55
404590,DepthScenes,duration_discrimination,discrim_jsons/d0.json,http://54.173.234.186/DepthDuration/depth_discrimination_MTurk/DepthDiscrim_HTML.html#4,4,1364,860,1376,860,6-19-2021,14-10-12,170,,,,,,,4015,501,1000,500,1000,499,feet,4,2,depth_discrimination_stimuli/000549_2014-06-08_22-10-24_260595134347_rgbf000247-resize_3/000549_2014-06-08_22-10-24_260595134347_rgbf000247-resize-original.jpg,5303,1112523,1152890,55
404590,DepthScenes,duration_discrimination,discrim_jsons/d0.json,http://54.173.234.186/DepthDuration/depth_discrimination_MTurk/DepthDiscrim_HTML.html#4,4,1364,860,1376,860,6-19-2021,14-10-12,171,,,,,,,4015,501,1000,500,1000,499,feet,2,3,depth_discrimination_stimuli/003587_2014-05-23_16-48-02_094959634447_rgbf002384-resize_2/003587_2014-05-23_16-48-02_094959634447_rgbf002384-resize-original.jpg,3639,1112523,1152890,55
404590,DepthScenes,duration_discrimination,discrim_jsons/d0.json,http://54.173.234.186/DepthDuration/depth_discrimination_MTurk/DepthDiscrim_HTML.html#4,4,1364,860,1376,860,6-19-2021,14-10-12,172,,,,,,,4015,501,1000,500,1000,499,feet,3,2,depth_discrimination_stimuli/002700_2014-06-22_11-27-02_094959634447_rgbf000124-resize_3/002700_2014-06-22_11-27-02_094959634447_rgbf000124-resize-original.jpg,2807,1112523,1152890,55
404590,DepthScenes,duration_discrimination,discrim_jsons/d0.json,http://54.173.234.186/DepthDuration/depth_discrimination_MTurk/DepthDiscrim_HTML.html#4,4,1364,860,1376,860,6-19-2021,14-10-12,173,,,,,,,4015,501,1000,500,1000,499,feet,3,2,depth_discrimination_stimuli/002468_2014-06-28_20-38-39_260595134347_rgbf000045-resize_1/002468_2014-06-28_20-38-39_260595134347_rgbf000045-resize-original.jpg,3080,1112523,1152890,55
404590,DepthScenes,duration_discrimination,discrim_jsons/d0.json,http://54.173.234.186/DepthDuration/depth_discrimination_MTurk/DepthDiscrim_HTML.html#4,4,1364,860,1376,860,6-19-2021,14-10-12,174,,,,,,,4015,501,1000,500,1000,499,feet,3,3,depth_discrimination_stimuli/000917_2014-06-09_22-45-29_260595134347_rgbf000149-resize_3/000917_2014-06-09_22-45-29_260595134347_rgbf000149-resize-original.jpg,3103,1112523,1152890,55
404590,DepthScenes,duration_discrimination,discrim_jsons/d0.json,http://54.173.234.186/DepthDuration/depth_discrimination_MTurk/DepthDiscrim_HTML.html#4,4,1364,860,1376,860,6-19-2021,14-10-12,175,,,,,,,4015,501,1000,500,1000,499,feet,3,3,depth_discrimination_stimuli/002549_2014-06-24_13-41-39_094959634447_rgbf000022-resize_3/002549_2014-06-24_13-41-39_094959634447_rgbf000022-resize-original.jpg,3576,1112523,1152890,55
404590,DepthScenes,duration_discrimination,discrim_jsons/d0.json,http://54.173.234.186/DepthDuration/depth_discrimination_MTurk/DepthDiscrim_HTML.html#4,4,1364,860,1376,860,6-19-2021,14-10-12,176,,,,,,,4015,501,1000,500,1000,499,feet,3,2,depth_discrimination_stimuli/000866_2014-06-09_20-45-42_260595134347_rgbf000139-resize_1/000866_2014-06-09_20-45-42_260595134347_rgbf000139-resize-original.jpg,3559,1112523,1152890,55
404590,DepthScenes,duration_discrimination,discrim_jsons/d0.json,http://54.173.234.186/DepthDuration/depth_discrimination_MTurk/DepthDiscrim_HTML.html#4,4,1364,860,1376,860,6-19-2021,14-10-12,177,,,,,,,4015,501,1000,500,1000,499,feet,3,2,depth_discrimination_stimuli/000555_2014-06-09_22-42-23_260595134347_rgbf000037-resize_4/000555_2014-06-09_22-42-23_260595134347_rgbf000037-resize-original.jpg,3608,1112523,1152890,55
404590,DepthScenes,duration_discrimination,discrim_jsons/d0.json,http://54.173.234.186/DepthDuration/depth_discrimination_MTurk/DepthDiscrim_HTML.html#4,4,1364,860,1376,860,6-19-2021,14-10-12,178,,,,,,,4015,501,1000,500,1000,499,feet,3,2,depth_discrimination_stimuli/001214_2014-06-17_16-13-55_260595134347_rgbf000111-resize_0/001214_2014-06-17_16-13-55_260595134347_rgbf000111-resize-original.jpg,3257,1112523,1152890,55
404590,DepthScenes,duration_discrimination,discrim_jsons/d0.json,http://54.173.234.186/DepthDuration/depth_discrimination_MTurk/DepthDiscrim_HTML.html#4,4,1364,860,1376,860,6-19-2021,14-10-12,179,,,,,,,4015,501,1000,500,1000,499,feet,3,2,depth_discrimination_stimuli/000368_2014-06-09_15-53-01_260595134347_rgbf000155-resize_2/000368_2014-06-09_15-53-01_260595134347_rgbf000155-resize-original.jpg,2974,1112523,1152890,55
404590,DepthScenes,duration_discrimination,discrim_jsons/d0.json,http://54.173.234.186/DepthDuration/depth_discrimination_MTurk/DepthDiscrim_HTML.html#4,4,1364,860,1376,860,6-19-2021,14-10-12,180,,,,,,,4015,501,1000,500,1000,499,feet,3,2,depth_discrimination_stimuli/003081_2014-06-15_15-19-16_094959634447_rgbf000150-resize_1/003081_2014-06-15_15-19-16_094959634447_rgbf000150-resize-original.jpg,2760,1112523,1152890,55
404590,DepthScenes,duration_discrimination,discrim_jsons/d0.json,http://54.173.234.186/DepthDuration/depth_discrimination_MTurk/DepthDiscrim_HTML.html#4,4,1364,860,1376,860,6-19-2021,14-10-12,181,,,,,,,4015,501,1000,500,1000,499,feet,3,3,depth_discrimination_stimuli/002467_2014-06-28_20-38-07_260595134347_rgbf000026-resize_2/002467_2014-06-28_20-38-07_260595134347_rgbf000026-resize-original.jpg,2655,1112523,1152890,55
404590,DepthScenes,duration_discrimination,discrim_jsons/d0.json,http://54.173.234.186/DepthDuration/depth_discrimination_MTurk/DepthDiscrim_HTML.html#4,4,1364,860,1376,860,6-19-2021,14-10-12,182,,,,,,,4015,501,1000,500,1000,499,feet,3,2,depth_discrimination_stimuli/002344_2014-06-28_20-06-29_260595134347_rgbf000030-resize_1/002344_2014-06-28_20-06-29_260595134347_rgbf000030-resize-original.jpg,2344,1112523,1152890,55
404590,DepthScenes,duration_discrimination,discrim_jsons/d0.json,http://54.173.234.186/DepthDuration/depth_discrimination_MTurk/DepthDiscrim_HTML.html#4,4,1364,860,1376,860,6-19-2021,14-10-12,183,,,,,,,4015,501,1000,500,1000,499,feet,3,1,depth_discrimination_stimuli/000736_2014-06-08_18-24-15_260595134347_rgbf000206-resize_3/000736_2014-06-08_18-24-15_260595134347_rgbf000206-resize-original.jpg,2464,1112523,1152890,55
404590,DepthScenes,duration_discrimination,discrim_jsons/d0.json,http://54.173.234.186/DepthDuration/depth_discrimination_MTurk/DepthDiscrim_HTML.html#4,4,1364,860,1376,860,6-19-2021,14-10-12,184,,,,,,,4015,501,1000,500,1000,499,feet,3,2,depth_discrimination_stimuli/000556_2014-06-09_22-42-56_260595134347_rgbf000214-resize_1/000556_2014-06-09_22-42-56_260595134347_rgbf000214-resize-original.jpg,2792,1112523,1152890,55
404590,DepthScenes,duration_discrimination,discrim_jsons/d0.json,http://54.173.234.186/DepthDuration/depth_discrimination_MTurk/DepthDiscrim_HTML.html#4,4,1364,860,1376,860,6-19-2021,14-10-12,185,,,,,,,4015,501,1000,500,1000,499,feet,3,2,depth_discrimination_stimuli/000522_2014-06-08_13-35-06_260595134347_rgbf000244-resize_1/000522_2014-06-08_13-35-06_260595134347_rgbf000244-resize-original.jpg,2599,1112523,1152890,55
404590,DepthScenes,duration_discrimination,discrim_jsons/d0.json,http://54.173.234.186/DepthDuration/depth_discrimination_MTurk/DepthDiscrim_HTML.html#4,4,1364,860,1376,860,6-19-2021,14-10-12,186,,,,,,,4015,501,1000,500,1000,499,feet,3,2,depth_discrimination_stimuli/003069_2014-06-15_14-57-50_094959634447_rgbf000150-resize_4/003069_2014-06-15_14-57-50_094959634447_rgbf000150-resize-original.jpg,2639,1112523,1152890,55
404590,DepthScenes,duration_discrimination,discrim_jsons/d0.json,http://54.173.234.186/DepthDuration/depth_discrimination_MTurk/DepthDiscrim_HTML.html#4,4,1364,860,1376,860,6-19-2021,14-10-12,187,,,,,,,4015,501,1000,500,1000,499,feet,3,2,depth_discrimination_stimuli/000505_2014-06-08_23-03-23_260595134347_rgbf000091-resize_0/000505_2014-06-08_23-03-23_260595134347_rgbf000091-resize-original.jpg,2743,1112523,1152890,55
404590,DepthScenes,duration_discrimination,discrim_jsons/d0.json,http://54.173.234.186/DepthDuration/depth_discrimination_MTurk/DepthDiscrim_HTML.html#4,4,1364,860,1376,860,6-19-2021,14-10-12,188,,,,,,,4015,501,1000,500,1000,499,feet,4,4,depth_discrimination_stimuli/000691_2014-06-08_13-08-50_260595134347_rgbf000132-resize_3/000691_2014-06-08_13-08-50_260595134347_rgbf000132-resize-original.jpg,4640,1112523,1152890,55
404590,DepthScenes,duration_discrimination,discrim_jsons/d0.json,http://54.173.234.186/DepthDuration/depth_discrimination_MTurk/DepthDiscrim_HTML.html#4,4,1364,860,1376,860,6-19-2021,14-10-12,189,,,,,,,4015,501,1000,500,1000,499,feet,4,3,depth_discrimination_stimuli/000830_2014-06-04_19-49-31_260595134347_rgbf000096-resize_2/000830_2014-06-04_19-49-31_260595134347_rgbf000096-resize-original.jpg,3391,1112523,1152890,55
404590,DepthScenes,duration_discrimination,discrim_jsons/d0.json,http://54.173.234.186/DepthDuration/depth_discrimination_MTurk/DepthDiscrim_HTML.html#4,4,1364,860,1376,860,6-19-2021,14-10-12,190,,,,,,,4015,501,1000,500,1000,499,feet,1,3,depth_discrimination_stimuli/002987_2014-06-08_18-48-20_094959634447_rgbf000022-resize_0/002987_2014-06-08_18-48-20_094959634447_rgbf000022-resize-original.jpg,6192,1112523,1152890,55
404590,DepthScenes,duration_discrimination,discrim_jsons/d0.json,http://54.173.234.186/DepthDuration/depth_discrimination_MTurk/DepthDiscrim_HTML.html#4,4,1364,860,1376,860,6-19-2021,14-10-12,191,,,,,,,4015,501,1000,500,1000,499,feet,3,2,depth_discrimination_stimuli/000470_2014-06-09_19-42-40_260595134347_rgbf000094-resize_1/000470_2014-06-09_19-42-40_260595134347_rgbf000094-resize-original.jpg,3224,1112523,1152890,55
404590,DepthScenes,duration_discrimination,discrim_jsons/d0.json,http://54.173.234.186/DepthDuration/depth_discrimination_MTurk/DepthDiscrim_HTML.html#4,4,1364,860,1376,860,6-19-2021,14-10-12,192,,,,,,,4015,501,1000,500,1000,499,feet,3,2,depth_discrimination_stimuli/003534_2014-05-22_15-06-10_094959634447_rgbf000102-resize_4/003534_2014-05-22_15-06-10_094959634447_rgbf000102-resize-original.jpg,2623,1112523,1152890,55
404590,DepthScenes,duration_discrimination,discrim_jsons/d0.json,http://54.173.234.186/DepthDuration/depth_discrimination_MTurk/DepthDiscrim_HTML.html#4,4,1364,860,1376,860,6-19-2021,14-10-12,193,,,,,,,4015,501,1000,500,1000,499,feet,3,2,depth_discrimination_stimuli/000869_2014-06-09_20-50-18_260595134347_rgbf000060-resize_3/000869_2014-06-09_20-50-18_260595134347_rgbf000060-resize-original.jpg,2280,1112523,1152890,55
404590,DepthScenes,duration_discrimination,discrim_jsons/d0.json,http://54.173.234.186/DepthDuration/depth_discrimination_MTurk/DepthDiscrim_HTML.html#4,4,1364,860,1376,860,6-19-2021,14-10-12,194,,,,,,,4015,501,1000,500,1000,499,feet,3,2,depth_discrimination_stimuli/002637_2014-06-24_14-51-13_094959634447_rgbf000066-resize_4/002637_2014-06-24_14-51-13_094959634447_rgbf000066-resize-original.jpg,2879,1112523,1152890,55
404590,DepthScenes,duration_discrimination,discrim_jsons/d0.json,http://54.173.234.186/DepthDuration/depth_discrimination_MTurk/DepthDiscrim_HTML.html#4,4,1364,860,1376,860,6-19-2021,14-10-12,195,,,,,,,4015,501,1000,500,1000,499,feet,3,3,depth_discrimination_stimuli/000635_2014-06-08_16-38-42_260595134347_rgbf000106-resize_1/000635_2014-06-08_16-38-42_260595134347_rgbf000106-resize-original.jpg,3207,1112523,1152890,55
404590,DepthScenes,duration_discrimination,discrim_jsons/d0.json,http://54.173.234.186/DepthDuration/depth_discrimination_MTurk/DepthDiscrim_HTML.html#4,4,1364,860,1376,860,6-19-2021,14-10-12,196,,,,,,,4015,501,1000,500,1000,499,feet,3,3,depth_discrimination_stimuli/001016_2014-06-09_16-16-10_260595134347_rgbf000112-resize_5/001016_2014-06-09_16-16-10_260595134347_rgbf000112-resize-original.jpg,2105,1112523,1152890,55
404590,DepthScenes,duration_discrimination,discrim_jsons/d0.json,http://54.173.234.186/DepthDuration/depth_discrimination_MTurk/DepthDiscrim_HTML.html#4,4,1364,860,1376,860,6-19-2021,14-10-12,197,,,,,,,4015,501,1000,500,1000,499,feet,3,3,depth_discrimination_stimuli/001617_2014-06-20_11-35-32_260595134347_rgbf000066-resize_1/001617_2014-06-20_11-35-32_260595134347_rgbf000066-resize-original.jpg,2792,1112523,1152890,55
404590,DepthScenes,duration_discrimination,discrim_jsons/d0.json,http://54.173.234.186/DepthDuration/depth_discrimination_MTurk/DepthDiscrim_HTML.html#4,4,1364,860,1376,860,6-19-2021,14-10-12,198,,,,,,,4015,501,1000,500,1000,499,feet,3,1,depth_discrimination_stimuli/001724_2014-06-26_19-28-50_260595134347_rgbf000037-resize_7/001724_2014-06-26_19-28-50_260595134347_rgbf000037-resize-original.jpg,4264,1112523,1152890,55
