subjID,experimentName,versionName,sequenceName,url,selected_row,windowWidth,windowHeight,screenWidth,screenHeight,startDate,startTime,trial,stimulus_0,stimulus_1,duration,actual_depth_0,actual_depth_1,discrim_choice,trial_RT,log_fixation,log_sceneDuration1,log_mask1,log_sceneDuration2,log_mask2,unitSelection,meanDepth_rating,navigability_rating,rated_stimulus,rating_RT,experimentTime,totalTime,age
764820,DepthScenes,duration_discrimination,discrim_jsons/d0_dr.json,http://54.173.234.186/DepthDuration/depth_discrimination_MTurk/DepthDiscrim_HTML.html#1,1,1920,946,1920,1080,6-19-2021,16-16-38,1,depth_discrimination_stimuli/002639_2014-06-24_14-51-37_094959634447_rgbf000074-resize_4/002639_2014-06-24_14-51-37_094959634447_rgbf000074-resize_4-target.png,depth_discrimination_stimuli/001132_2014-06-17_14-48-54_260595134347_rgbf000100-resize_2/001132_2014-06-17_14-48-54_260595134347_rgbf000100-resize_2-target.png,250,4.0375,3.753,0,1265,507,250,499,250,500,feet,,,,,2034303,2451813,51
764820,DepthScenes,duration_discrimination,discrim_jsons/d0_dr.json,http://54.173.234.186/DepthDuration/depth_discrimination_MTurk/DepthDiscrim_HTML.html#1,1,1920,946,1920,1080,6-19-2021,16-16-38,2,depth_discrimination_stimuli/001100_2014-06-15_17-46-26_260595134347_rgbf000225-resize_2/001100_2014-06-15_17-46-26_260595134347_rgbf000225-resize_2-target.png,depth_discrimination_stimuli/002131_2014-06-25_21-12-01_260595134347_rgbf000083-resize_0/002131_2014-06-25_21-12-01_260595134347_rgbf000083-resize_0-target.png,250,2.24,1.7685,0,1442,504,250,500,250,500,feet,,,,,2034303,2451813,51
764820,DepthScenes,duration_discrimination,discrim_jsons/d0_dr.json,http://54.173.234.186/DepthDuration/depth_discrimination_MTurk/DepthDiscrim_HTML.html#1,1,1920,946,1920,1080,6-19-2021,16-16-38,3,depth_discrimination_stimuli/002444_2014-06-28_20-32-08_260595134347_rgbf000027-resize_0/002444_2014-06-28_20-32-08_260595134347_rgbf000027-resize_0-target.png,depth_discrimination_stimuli/003048_2014-06-15_13-49-43_094959634447_rgbf000150-resize_1/003048_2014-06-15_13-49-43_094959634447_rgbf000150-resize_1-target.png,250,4.389,4.0035,0,1733,509,249,500,250,500,feet,,,,,2034303,2451813,51
764820,DepthScenes,duration_discrimination,discrim_jsons/d0_dr.json,http://54.173.234.186/DepthDuration/depth_discrimination_MTurk/DepthDiscrim_HTML.html#1,1,1920,946,1920,1080,6-19-2021,16-16-38,4,depth_discrimination_stimuli/002549_2014-06-24_13-41-39_094959634447_rgbf000022-resize_3/002549_2014-06-24_13-41-39_094959634447_rgbf000022-resize_3-target.png,depth_discrimination_stimuli/002545_2014-06-24_13-38-53_094959634447_rgbf000080-resize_4/002545_2014-06-24_13-38-53_094959634447_rgbf000080-resize_4-target.png,1000,1.476,1.9205,0,1977,507,1000,500,1000,500,feet,,,,,2034303,2451813,51
764820,DepthScenes,duration_discrimination,discrim_jsons/d0_dr.json,http://54.173.234.186/DepthDuration/depth_discrimination_MTurk/DepthDiscrim_HTML.html#1,1,1920,946,1920,1080,6-19-2021,16-16-38,5,depth_discrimination_stimuli/000454_2014-06-08_16-37-28_260595134347_rgbf000048-resize_2/000454_2014-06-08_16-37-28_260595134347_rgbf000048-resize_2-target.png,depth_discrimination_stimuli/000375_2014-06-08_11-17-29_260595134347_rgbf000133-resize_2/000375_2014-06-08_11-17-29_260595134347_rgbf000133-resize_2-target.png,1000,1.213,4.718,0,2317,503,1000,500,1000,500,feet,,,,,2034303,2451813,51
764820,DepthScenes,duration_discrimination,discrim_jsons/d0_dr.json,http://54.173.234.186/DepthDuration/depth_discrimination_MTurk/DepthDiscrim_HTML.html#1,1,1920,946,1920,1080,6-19-2021,16-16-38,6,depth_discrimination_stimuli/002467_2014-06-28_20-38-07_260595134347_rgbf000026-resize_2/002467_2014-06-28_20-38-07_260595134347_rgbf000026-resize_2-target.png,depth_discrimination_stimuli/001175_2014-06-17_15-45-55_260595134347_rgbf000129-resize_4/001175_2014-06-17_15-45-55_260595134347_rgbf000129-resize_4-target.png,250,4.742,4.255,1,1516,502,250,500,250,500,feet,,,,,2034303,2451813,51
764820,DepthScenes,duration_discrimination,discrim_jsons/d0_dr.json,http://54.173.234.186/DepthDuration/depth_discrimination_MTurk/DepthDiscrim_HTML.html#1,1,1920,946,1920,1080,6-19-2021,16-16-38,7,depth_discrimination_stimuli/002279_2014-06-28_18-55-32_260595134347_rgbf000040-resize_5/002279_2014-06-28_18-55-32_260595134347_rgbf000040-resize_5-target.png,depth_discrimination_stimuli/002949_2014-06-26_15-57-42_094959634447_rgbf000079-resize_1/002949_2014-06-26_15-57-42_094959634447_rgbf000079-resize_1-target.png,250,1.5043333333333,1.8915,1,1945,504,250,500,250,500,feet,,,,,2034303,2451813,51
764820,DepthScenes,duration_discrimination,discrim_jsons/d0_dr.json,http://54.173.234.186/DepthDuration/depth_discrimination_MTurk/DepthDiscrim_HTML.html#1,1,1920,946,1920,1080,6-19-2021,16-16-38,8,depth_discrimination_stimuli/001450_2014-06-19_17-02-03_260595134347_rgbf000203-resize_4/001450_2014-06-19_17-02-03_260595134347_rgbf000203-resize_4-target.png,depth_discrimination_stimuli/002039_2014-06-24_20-22-38_260595134347_rgbf000084-resize_1/002039_2014-06-24_20-22-38_260595134347_rgbf000084-resize_1-target.png,1000,4.0106666666667,4.408,0,2812,504,1000,500,1000,500,feet,,,,,2034303,2451813,51
764820,DepthScenes,duration_discrimination,discrim_jsons/d0_dr.json,http://54.173.234.186/DepthDuration/depth_discrimination_MTurk/DepthDiscrim_HTML.html#1,1,1920,946,1920,1080,6-19-2021,16-16-38,9,depth_discrimination_stimuli/000469_2014-06-09_19-42-10_260595134347_rgbf000081-resize_1/000469_2014-06-09_19-42-10_260595134347_rgbf000081-resize_1-target.png,depth_discrimination_stimuli/002136_2014-06-25_21-18-03_260595134347_rgbf000109-resize_3/002136_2014-06-25_21-18-03_260595134347_rgbf000109-resize_3-target.png,1000,1.652,1.957,0,2343,508,999,501,1000,500,feet,,,,,2034303,2451813,51
764820,DepthScenes,duration_discrimination,discrim_jsons/d0_dr.json,http://54.173.234.186/DepthDuration/depth_discrimination_MTurk/DepthDiscrim_HTML.html#1,1,1920,946,1920,1080,6-19-2021,16-16-38,10,depth_discrimination_stimuli/000635_2014-06-08_16-38-42_260595134347_rgbf000106-resize_1/000635_2014-06-08_16-38-42_260595134347_rgbf000106-resize_1-target.png,depth_discrimination_stimuli/001516_2014-06-20_16-25-09_260595134347_rgbf000076-resize_2/001516_2014-06-20_16-25-09_260595134347_rgbf000076-resize_2-target.png,250,2.074,1.7445,0,2184,507,250,499,251,500,feet,,,,,2034303,2451813,51
764820,DepthScenes,duration_discrimination,discrim_jsons/d0_dr.json,http://54.173.234.186/DepthDuration/depth_discrimination_MTurk/DepthDiscrim_HTML.html#1,1,1920,946,1920,1080,6-19-2021,16-16-38,11,depth_discrimination_stimuli/002579_2014-06-24_14-08-03_094959634447_rgbf000061-resize_2/002579_2014-06-24_14-08-03_094959634447_rgbf000061-resize_2-target.png,depth_discrimination_stimuli/002468_2014-06-28_20-38-39_260595134347_rgbf000045-resize_1/002468_2014-06-28_20-38-39_260595134347_rgbf000045-resize_1-target.png,1000,2.223125,1.956,0,2594,505,1001,499,1000,500,feet,,,,,2034303,2451813,51
764820,DepthScenes,duration_discrimination,discrim_jsons/d0_dr.json,http://54.173.234.186/DepthDuration/depth_discrimination_MTurk/DepthDiscrim_HTML.html#1,1,1920,946,1920,1080,6-19-2021,16-16-38,12,depth_discrimination_stimuli/000692_2014-06-08_13-09-42_260595134347_rgbf000199-resize_2/000692_2014-06-08_13-09-42_260595134347_rgbf000199-resize_2-target.png,depth_discrimination_stimuli/002103_2014-06-25_20-00-40_260595134347_rgbf000049-resize_0/002103_2014-06-25_20-00-40_260595134347_rgbf000049-resize_0-target.png,1000,3.661,4.105,0,2242,505,1000,500,1001,500,feet,,,,,2034303,2451813,51
764820,DepthScenes,duration_discrimination,discrim_jsons/d0_dr.json,http://54.173.234.186/DepthDuration/depth_discrimination_MTurk/DepthDiscrim_HTML.html#1,1,1920,946,1920,1080,6-19-2021,16-16-38,13,depth_discrimination_stimuli/002460_2014-06-28_20-35-43_260595134347_rgbf000028-resize_4/002460_2014-06-28_20-35-43_260595134347_rgbf000028-resize_4-target.png,depth_discrimination_stimuli/001806_2014-06-26_20-50-20_260595134347_rgbf000091-resize_1/001806_2014-06-26_20-50-20_260595134347_rgbf000091-resize_1-target.png,250,2.269,2.7305,0,3197,508,251,500,249,500,feet,,,,,2034303,2451813,51
764820,DepthScenes,duration_discrimination,discrim_jsons/d0_dr.json,http://54.173.234.186/DepthDuration/depth_discrimination_MTurk/DepthDiscrim_HTML.html#1,1,1920,946,1920,1080,6-19-2021,16-16-38,14,depth_discrimination_stimuli/003587_2014-05-23_16-48-02_094959634447_rgbf002384-resize_2/003587_2014-05-23_16-48-02_094959634447_rgbf002384-resize_2-target.png,depth_discrimination_stimuli/000709_2014-06-08_13-51-55_260595134347_rgbf000068-resize_3/000709_2014-06-08_13-51-55_260595134347_rgbf000068-resize_3-target.png,1000,1.357,1.803,0,4005,503,999,501,1000,499,feet,,,,,2034303,2451813,51
764820,DepthScenes,duration_discrimination,discrim_jsons/d0_dr.json,http://54.173.234.186/DepthDuration/depth_discrimination_MTurk/DepthDiscrim_HTML.html#1,1,1920,946,1920,1080,6-19-2021,16-16-38,15,depth_discrimination_stimuli/000734_2014-06-08_17-39-11_260595134347_rgbf000128-resize_2/000734_2014-06-08_17-39-11_260595134347_rgbf000128-resize_2-target.png,depth_discrimination_stimuli/001148_2014-06-17_15-26-42_260595134347_rgbf000129-resize_0/001148_2014-06-17_15-26-42_260595134347_rgbf000129-resize_0-target.png,1000,4.098,4.368,0,1610,505,999,501,999,501,feet,,,,,2034303,2451813,51
764820,DepthScenes,duration_discrimination,discrim_jsons/d0_dr.json,http://54.173.234.186/DepthDuration/depth_discrimination_MTurk/DepthDiscrim_HTML.html#1,1,1920,946,1920,1080,6-19-2021,16-16-38,16,depth_discrimination_stimuli/002445_2014-06-28_20-32-16_260595134347_rgbf000029-resize_4/002445_2014-06-28_20-32-16_260595134347_rgbf000029-resize_4-target.png,depth_discrimination_stimuli/002043_2014-06-24_20-29-38_260595134347_rgbf000039-resize_4/002043_2014-06-24_20-29-38_260595134347_rgbf000039-resize_4-target.png,1000,2.5315,2.8435,0,4087,508,1000,501,999,501,feet,,,,,2034303,2451813,51
764820,DepthScenes,duration_discrimination,discrim_jsons/d0_dr.json,http://54.173.234.186/DepthDuration/depth_discrimination_MTurk/DepthDiscrim_HTML.html#1,1,1920,946,1920,1080,6-19-2021,16-16-38,17,depth_discrimination_stimuli/003395_2014-05-20_15-39-18_094959634447_rgbf000101-resize_0/003395_2014-05-20_15-39-18_094959634447_rgbf000101-resize_0-target.png,depth_discrimination_stimuli/001540_2014-06-20_17-01-05_260595134347_rgbf000086-resize_2/001540_2014-06-20_17-01-05_260595134347_rgbf000086-resize_2-target.png,250,4.835,1.459,1,3372,502,251,499,251,499,feet,,,,,2034303,2451813,51
764820,DepthScenes,duration_discrimination,discrim_jsons/d0_dr.json,http://54.173.234.186/DepthDuration/depth_discrimination_MTurk/DepthDiscrim_HTML.html#1,1,1920,946,1920,1080,6-19-2021,16-16-38,18,depth_discrimination_stimuli/001449_2014-06-19_17-01-27_260595134347_rgbf000116-resize_2/001449_2014-06-19_17-01-27_260595134347_rgbf000116-resize_2-target.png,depth_discrimination_stimuli/002630_2014-06-24_14-47-50_094959634447_rgbf000055-resize_1/002630_2014-06-24_14-47-50_094959634447_rgbf000055-resize_1-target.png,1000,3.452,3.0095,0,3599,508,1000,500,1001,500,feet,,,,,2034303,2451813,51
764820,DepthScenes,duration_discrimination,discrim_jsons/d0_dr.json,http://54.173.234.186/DepthDuration/depth_discrimination_MTurk/DepthDiscrim_HTML.html#1,1,1920,946,1920,1080,6-19-2021,16-16-38,19,depth_discrimination_stimuli/001555_2014-06-20_17-12-10_260595134347_rgbf000065-resize_4/001555_2014-06-20_17-12-10_260595134347_rgbf000065-resize_4-target.png,depth_discrimination_stimuli/000943_2014-06-09_19-31-07_260595134347_rgbf000128-resize_1/000943_2014-06-09_19-31-07_260595134347_rgbf000128-resize_1-target.png,250,1.633,1.9765,1,3047,500,251,500,250,500,feet,,,,,2034303,2451813,51
764820,DepthScenes,duration_discrimination,discrim_jsons/d0_dr.json,http://54.173.234.186/DepthDuration/depth_discrimination_MTurk/DepthDiscrim_HTML.html#1,1,1920,946,1920,1080,6-19-2021,16-16-38,20,depth_discrimination_stimuli/001808_2014-06-26_20-50-58_260595134347_rgbf000029-resize_1/001808_2014-06-26_20-50-58_260595134347_rgbf000029-resize_1-target.png,depth_discrimination_stimuli/003621_2014-05-23_18-06-08_094959634447_rgbf000101-resize_1/003621_2014-05-23_18-06-08_094959634447_rgbf000101-resize_1-target.png,1000,4.249,3.9835,0,3323,503,1000,500,1000,500,feet,,,,,2034303,2451813,51
764820,DepthScenes,duration_discrimination,discrim_jsons/d0_dr.json,http://54.173.234.186/DepthDuration/depth_discrimination_MTurk/DepthDiscrim_HTML.html#1,1,1920,946,1920,1080,6-19-2021,16-16-38,21,depth_discrimination_stimuli/000691_2014-06-08_13-08-50_260595134347_rgbf000132-resize_3/000691_2014-06-08_13-08-50_260595134347_rgbf000132-resize_3-target.png,depth_discrimination_stimuli/000137_2014-05-20_17-04-49_260595134347_rgbf000120-resize_1/000137_2014-05-20_17-04-49_260595134347_rgbf000120-resize_1-target.png,1000,4.153,3.786,0,2489,506,1001,500,1000,500,feet,,,,,2034303,2451813,51
764820,DepthScenes,duration_discrimination,discrim_jsons/d0_dr.json,http://54.173.234.186/DepthDuration/depth_discrimination_MTurk/DepthDiscrim_HTML.html#1,1,1920,946,1920,1080,6-19-2021,16-16-38,22,depth_discrimination_stimuli/002509_2014-06-24_13-19-22_094959634447_rgbf000077-resize_0/002509_2014-06-24_13-19-22_094959634447_rgbf000077-resize_0-target.png,depth_discrimination_stimuli/002344_2014-06-28_20-06-29_260595134347_rgbf000030-resize_1/002344_2014-06-28_20-06-29_260595134347_rgbf000030-resize_1-target.png,1000,1.3065,1.5795,1,1567,501,1000,500,1000,499,feet,,,,,2034303,2451813,51
764820,DepthScenes,duration_discrimination,discrim_jsons/d0_dr.json,http://54.173.234.186/DepthDuration/depth_discrimination_MTurk/DepthDiscrim_HTML.html#1,1,1920,946,1920,1080,6-19-2021,16-16-38,23,depth_discrimination_stimuli/002784_2014-06-22_19-26-30_094959634447_rgbf000083-resize_3/002784_2014-06-22_19-26-30_094959634447_rgbf000083-resize_3-target.png,depth_discrimination_stimuli/001532_2014-06-20_16-50-41_260595134347_rgbf000081-resize_4/001532_2014-06-20_16-50-41_260595134347_rgbf000081-resize_4-target.png,250,1.8046666666667,1.5758333333333,1,3195,502,251,500,250,500,feet,,,,,2034303,2451813,51
764820,DepthScenes,duration_discrimination,discrim_jsons/d0_dr.json,http://54.173.234.186/DepthDuration/depth_discrimination_MTurk/DepthDiscrim_HTML.html#1,1,1920,946,1920,1080,6-19-2021,16-16-38,24,depth_discrimination_stimuli/000409_2014-06-04_19-23-33_260595134347_rgbf000067-resize_0/000409_2014-06-04_19-23-33_260595134347_rgbf000067-resize_0-target.png,depth_discrimination_stimuli/002464_2014-06-28_20-36-57_260595134347_rgbf000029-resize_0/002464_2014-06-28_20-36-57_260595134347_rgbf000029-resize_0-target.png,250,3.7335,3.9525,0,2264,504,250,499,250,500,feet,,,,,2034303,2451813,51
764820,DepthScenes,duration_discrimination,discrim_jsons/d0_dr.json,http://54.173.234.186/DepthDuration/depth_discrimination_MTurk/DepthDiscrim_HTML.html#1,1,1920,946,1920,1080,6-19-2021,16-16-38,25,depth_discrimination_stimuli/000665_2014-06-09_20-42-35_260595134347_rgbf000110-resize_1/000665_2014-06-09_20-42-35_260595134347_rgbf000110-resize_1-target.png,depth_discrimination_stimuli/001214_2014-06-17_16-13-55_260595134347_rgbf000111-resize_0/001214_2014-06-17_16-13-55_260595134347_rgbf000111-resize_0-target.png,1000,3.057,2.6505,1,3115,505,1000,500,1000,500,feet,,,,,2034303,2451813,51
764820,DepthScenes,duration_discrimination,discrim_jsons/d0_dr.json,http://54.173.234.186/DepthDuration/depth_discrimination_MTurk/DepthDiscrim_HTML.html#1,1,1920,946,1920,1080,6-19-2021,16-16-38,26,depth_discrimination_stimuli/001164_2014-06-17_15-35-46_260595134347_rgbf000085-resize_3/001164_2014-06-17_15-35-46_260595134347_rgbf000085-resize_3-target.png,depth_discrimination_stimuli/003228_2014-05-14_13-42-35_094959634447_rgbf000101-resize_1/003228_2014-05-14_13-42-35_094959634447_rgbf000101-resize_1-target.png,1000,2.354,1.968,1,2179,505,999,501,999,501,feet,,,,,2034303,2451813,51
764820,DepthScenes,duration_discrimination,discrim_jsons/d0_dr.json,http://54.173.234.186/DepthDuration/depth_discrimination_MTurk/DepthDiscrim_HTML.html#1,1,1920,946,1920,1080,6-19-2021,16-16-38,27,depth_discrimination_stimuli/002953_2014-06-08_17-32-18_094959634447_rgbf000059-resize_5/002953_2014-06-08_17-32-18_094959634447_rgbf000059-resize_5-target.png,depth_discrimination_stimuli/001571_2014-06-20_17-21-32_260595134347_rgbf000089-resize_1/001571_2014-06-20_17-21-32_260595134347_rgbf000089-resize_1-target.png,250,1.551,1.86,0,1302,500,250,500,250,501,feet,,,,,2034303,2451813,51
764820,DepthScenes,duration_discrimination,discrim_jsons/d0_dr.json,http://54.173.234.186/DepthDuration/depth_discrimination_MTurk/DepthDiscrim_HTML.html#1,1,1920,946,1920,1080,6-19-2021,16-16-38,28,depth_discrimination_stimuli/002700_2014-06-22_11-27-02_094959634447_rgbf000124-resize_3/002700_2014-06-22_11-27-02_094959634447_rgbf000124-resize_3-target.png,depth_discrimination_stimuli/000800_2014-06-08_22-42-09_260595134347_rgbf000095-resize_3/000800_2014-06-08_22-42-09_260595134347_rgbf000095-resize_3-target.png,250,3.301,2.8,1,1429,508,250,500,250,501,feet,,,,,2034303,2451813,51
764820,DepthScenes,duration_discrimination,discrim_jsons/d0_dr.json,http://54.173.234.186/DepthDuration/depth_discrimination_MTurk/DepthDiscrim_HTML.html#1,1,1920,946,1920,1080,6-19-2021,16-16-38,29,depth_discrimination_stimuli/003546_2014-05-22_15-48-53_094959634447_rgbf004816-resize_3/003546_2014-05-22_15-48-53_094959634447_rgbf004816-resize_3-target.png,depth_discrimination_stimuli/003010_2014-06-15_12-54-35_094959634447_rgbf000112-resize_0/003010_2014-06-15_12-54-35_094959634447_rgbf000112-resize_0-target.png,250,2.62625,3.1185,0,1990,500,250,500,250,500,feet,,,,,2034303,2451813,51
764820,DepthScenes,duration_discrimination,discrim_jsons/d0_dr.json,http://54.173.234.186/DepthDuration/depth_discrimination_MTurk/DepthDiscrim_HTML.html#1,1,1920,946,1920,1080,6-19-2021,16-16-38,30,depth_discrimination_stimuli/000735_2014-06-08_18-23-50_260595134347_rgbf000163-resize_2/000735_2014-06-08_18-23-50_260595134347_rgbf000163-resize_2-target.png,depth_discrimination_stimuli/003288_2014-05-14_21-50-30_094959634447_rgbf000028-resize_3/003288_2014-05-14_21-50-30_094959634447_rgbf000028-resize_3-target.png,1000,4.1695,3.877,1,1870,501,999,501,999,501,feet,,,,,2034303,2451813,51
764820,DepthScenes,duration_discrimination,discrim_jsons/d0_dr.json,http://54.173.234.186/DepthDuration/depth_discrimination_MTurk/DepthDiscrim_HTML.html#1,1,1920,946,1920,1080,6-19-2021,16-16-38,31,depth_discrimination_stimuli/001170_2014-06-17_15-43-44_260595134347_rgbf000096-resize_6/001170_2014-06-17_15-43-44_260595134347_rgbf000096-resize_6-target.png,depth_discrimination_stimuli/002364_2014-06-28_20-11-05_260595134347_rgbf000042-resize_0/002364_2014-06-28_20-11-05_260595134347_rgbf000042-resize_0-target.png,1000,1.191,4.682,0,1639,508,1000,500,1001,499,feet,,,,,2034303,2451813,51
764820,DepthScenes,duration_discrimination,discrim_jsons/d0_dr.json,http://54.173.234.186/DepthDuration/depth_discrimination_MTurk/DepthDiscrim_HTML.html#1,1,1920,946,1920,1080,6-19-2021,16-16-38,32,depth_discrimination_stimuli/001016_2014-06-09_16-16-10_260595134347_rgbf000112-resize_5/001016_2014-06-09_16-16-10_260595134347_rgbf000112-resize_5-target.png,depth_discrimination_stimuli/001618_2014-06-20_11-37-31_260595134347_rgbf000027-resize_3/001618_2014-06-20_11-37-31_260595134347_rgbf000027-resize_3-target.png,1000,1.6565,1.8725,1,3919,501,1000,501,999,500,feet,,,,,2034303,2451813,51
764820,DepthScenes,duration_discrimination,discrim_jsons/d0_dr.json,http://54.173.234.186/DepthDuration/depth_discrimination_MTurk/DepthDiscrim_HTML.html#1,1,1920,946,1920,1080,6-19-2021,16-16-38,33,depth_discrimination_stimuli/000739_2014-06-08_18-45-58_260595134347_rgbf000068-resize_1/000739_2014-06-08_18-45-58_260595134347_rgbf000068-resize_1-target.png,depth_discrimination_stimuli/002995_2014-06-15_12-31-26_094959634447_rgbf000150-resize_1/002995_2014-06-15_12-31-26_094959634447_rgbf000150-resize_1-target.png,250,3.534,3.836,0,1684,500,251,500,250,499,feet,,,,,2034303,2451813,51
764820,DepthScenes,duration_discrimination,discrim_jsons/d0_dr.json,http://54.173.234.186/DepthDuration/depth_discrimination_MTurk/DepthDiscrim_HTML.html#1,1,1920,946,1920,1080,6-19-2021,16-16-38,34,depth_discrimination_stimuli/001092_2014-06-15_17-34-58_260595134347_rgbf000171-resize_3/001092_2014-06-15_17-34-58_260595134347_rgbf000171-resize_3-target.png,depth_discrimination_stimuli/000522_2014-06-08_13-35-06_260595134347_rgbf000244-resize_1/000522_2014-06-08_13-35-06_260595134347_rgbf000244-resize_1-target.png,1000,2.6935,2.3715,1,3739,504,1000,500,1000,500,feet,,,,,2034303,2451813,51
764820,DepthScenes,duration_discrimination,discrim_jsons/d0_dr.json,http://54.173.234.186/DepthDuration/depth_discrimination_MTurk/DepthDiscrim_HTML.html#1,1,1920,946,1920,1080,6-19-2021,16-16-38,35,depth_discrimination_stimuli/002657_2014-06-13_15-29-54_094959634447_rgbf000150-resize_1/002657_2014-06-13_15-29-54_094959634447_rgbf000150-resize_1-target.png,depth_discrimination_stimuli/002748_2014-06-22_19-07-22_094959634447_rgbf000078-resize_1/002748_2014-06-22_19-07-22_094959634447_rgbf000078-resize_1-target.png,1000,4.919,4.6705,0,2799,501,1000,500,1000,500,feet,,,,,2034303,2451813,51
764820,DepthScenes,duration_discrimination,discrim_jsons/d0_dr.json,http://54.173.234.186/DepthDuration/depth_discrimination_MTurk/DepthDiscrim_HTML.html#1,1,1920,946,1920,1080,6-19-2021,16-16-38,36,depth_discrimination_stimuli/002375_2014-06-28_20-13-44_260595134347_rgbf000032-resize_1/002375_2014-06-28_20-13-44_260595134347_rgbf000032-resize_1-target.png,depth_discrimination_stimuli/001570_2014-06-20_17-21-09_260595134347_rgbf000135-resize_4/001570_2014-06-20_17-21-09_260595134347_rgbf000135-resize_4-target.png,1000,4.0175,4.467,0,2440,500,999,501,1000,500,feet,,,,,2034303,2451813,51
764820,DepthScenes,duration_discrimination,discrim_jsons/d0_dr.json,http://54.173.234.186/DepthDuration/depth_discrimination_MTurk/DepthDiscrim_HTML.html#1,1,1920,946,1920,1080,6-19-2021,16-16-38,37,depth_discrimination_stimuli/002989_2014-06-15_12-25-03_094959634447_rgbf000150-resize_3/002989_2014-06-15_12-25-03_094959634447_rgbf000150-resize_3-target.png,depth_discrimination_stimuli/001724_2014-06-26_19-28-50_260595134347_rgbf000037-resize_7/001724_2014-06-26_19-28-50_260595134347_rgbf000037-resize_7-target.png,250,4.1975,3.827,0,2133,500,250,500,250,500,feet,,,,,2034303,2451813,51
764820,DepthScenes,duration_discrimination,discrim_jsons/d0_dr.json,http://54.173.234.186/DepthDuration/depth_discrimination_MTurk/DepthDiscrim_HTML.html#1,1,1920,946,1920,1080,6-19-2021,16-16-38,38,depth_discrimination_stimuli/000749_2014-06-08_21-55-06_260595134347_rgbf000070-resize_2/000749_2014-06-08_21-55-06_260595134347_rgbf000070-resize_2-target.png,depth_discrimination_stimuli/002875_2014-06-01_15-19-00_094959634447_rgbf000151-resize_1/002875_2014-06-01_15-19-00_094959634447_rgbf000151-resize_1-target.png,1000,2.331,1.9675,1,2386,507,1000,499,1001,499,feet,,,,,2034303,2451813,51
764820,DepthScenes,duration_discrimination,discrim_jsons/d0_dr.json,http://54.173.234.186/DepthDuration/depth_discrimination_MTurk/DepthDiscrim_HTML.html#1,1,1920,946,1920,1080,6-19-2021,16-16-38,39,depth_discrimination_stimuli/003534_2014-05-22_15-06-10_094959634447_rgbf000102-resize_4/003534_2014-05-22_15-06-10_094959634447_rgbf000102-resize_4-target.png,depth_discrimination_stimuli/002272_2014-06-28_18-53-56_260595134347_rgbf000067-resize_2/002272_2014-06-28_18-53-56_260595134347_rgbf000067-resize_2-target.png,250,1.426,1.138,1,1672,504,249,501,249,500,feet,,,,,2034303,2451813,51
764820,DepthScenes,duration_discrimination,discrim_jsons/d0_dr.json,http://54.173.234.186/DepthDuration/depth_discrimination_MTurk/DepthDiscrim_HTML.html#1,1,1920,946,1920,1080,6-19-2021,16-16-38,40,depth_discrimination_stimuli/001059_2014-06-08_21-53-27_260595134347_rgbf000061-resize_4/001059_2014-06-08_21-53-27_260595134347_rgbf000061-resize_4-target.png,depth_discrimination_stimuli/000906_2014-06-08_13-35-43_260595134347_rgbf000155-resize_1/000906_2014-06-08_13-35-43_260595134347_rgbf000155-resize_1-target.png,1000,2.4185,2.849,0,2226,506,1001,499,1000,500,feet,,,,,2034303,2451813,51
764820,DepthScenes,duration_discrimination,discrim_jsons/d0_dr.json,http://54.173.234.186/DepthDuration/depth_discrimination_MTurk/DepthDiscrim_HTML.html#1,1,1920,946,1920,1080,6-19-2021,16-16-38,41,depth_discrimination_stimuli/001264_2014-06-16_16-10-23_260595134347_rgbf000109-resize_1/001264_2014-06-16_16-10-23_260595134347_rgbf000109-resize_1-target.png,depth_discrimination_stimuli/002340_2014-06-28_20-05-46_260595134347_rgbf000113-resize_0/002340_2014-06-28_20-05-46_260595134347_rgbf000113-resize_0-target.png,250,2.9665,2.4735,0,2273,503,251,500,250,500,feet,,,,,2034303,2451813,51
764820,DepthScenes,duration_discrimination,discrim_jsons/d0_dr.json,http://54.173.234.186/DepthDuration/depth_discrimination_MTurk/DepthDiscrim_HTML.html#1,1,1920,946,1920,1080,6-19-2021,16-16-38,42,depth_discrimination_stimuli/003081_2014-06-15_15-19-16_094959634447_rgbf000150-resize_1/003081_2014-06-15_15-19-16_094959634447_rgbf000150-resize_1-target.png,depth_discrimination_stimuli/000917_2014-06-09_22-45-29_260595134347_rgbf000149-resize_3/000917_2014-06-09_22-45-29_260595134347_rgbf000149-resize_3-target.png,1000,3.9125,4.1865,0,2488,506,1000,501,1000,500,feet,,,,,2034303,2451813,51
764820,DepthScenes,duration_discrimination,discrim_jsons/d0_dr.json,http://54.173.234.186/DepthDuration/depth_discrimination_MTurk/DepthDiscrim_HTML.html#1,1,1920,946,1920,1080,6-19-2021,16-16-38,43,depth_discrimination_stimuli/000569_2014-06-09_22-51-47_260595134347_rgbf000141-resize_3/000569_2014-06-09_22-51-47_260595134347_rgbf000141-resize_3-target.png,depth_discrimination_stimuli/000868_2014-06-09_20-49-52_260595134347_rgbf000064-resize_4/000868_2014-06-09_20-49-52_260595134347_rgbf000064-resize_4-target.png,250,4.512,1.2815,0,1741,500,251,499,251,499,feet,,,,,2034303,2451813,51
764820,DepthScenes,duration_discrimination,discrim_jsons/d0_dr.json,http://54.173.234.186/DepthDuration/depth_discrimination_MTurk/DepthDiscrim_HTML.html#1,1,1920,946,1920,1080,6-19-2021,16-16-38,44,depth_discrimination_stimuli/002988_2014-06-15_12-24-20_094959634447_rgbf000150-resize_1/002988_2014-06-15_12-24-20_094959634447_rgbf000150-resize_1-target.png,depth_discrimination_stimuli/000447_2014-06-08_16-15-46_260595134347_rgbf000130-resize_1/000447_2014-06-08_16-15-46_260595134347_rgbf000130-resize_1-target.png,250,4.767,4.479,1,1590,508,250,500,251,499,feet,,,,,2034303,2451813,51
764820,DepthScenes,duration_discrimination,discrim_jsons/d0_dr.json,http://54.173.234.186/DepthDuration/depth_discrimination_MTurk/DepthDiscrim_HTML.html#1,1,1920,946,1920,1080,6-19-2021,16-16-38,45,depth_discrimination_stimuli/000457_2014-06-08_16-52-43_260595134347_rgbf000199-resize_1/000457_2014-06-08_16-52-43_260595134347_rgbf000199-resize_1-target.png,depth_discrimination_stimuli/002365_2014-06-28_20-11-21_260595134347_rgbf000102-resize_1/002365_2014-06-28_20-11-21_260595134347_rgbf000102-resize_1-target.png,250,3.649,4.013,0,1740,500,250,501,250,500,feet,,,,,2034303,2451813,51
764820,DepthScenes,duration_discrimination,discrim_jsons/d0_dr.json,http://54.173.234.186/DepthDuration/depth_discrimination_MTurk/DepthDiscrim_HTML.html#1,1,1920,946,1920,1080,6-19-2021,16-16-38,46,depth_discrimination_stimuli/002118_2014-06-25_20-32-08_260595134347_rgbf000078-resize_1/002118_2014-06-25_20-32-08_260595134347_rgbf000078-resize_1-target.png,depth_discrimination_stimuli/000542_2014-06-08_18-27-08_260595134347_rgbf000118-resize_1/000542_2014-06-08_18-27-08_260595134347_rgbf000118-resize_1-target.png,250,2.646,3,1,1525,509,250,500,250,500,feet,,,,,2034303,2451813,51
764820,DepthScenes,duration_discrimination,discrim_jsons/d0_dr.json,http://54.173.234.186/DepthDuration/depth_discrimination_MTurk/DepthDiscrim_HTML.html#1,1,1920,946,1920,1080,6-19-2021,16-16-38,47,depth_discrimination_stimuli/000682_2014-06-08_23-14-58_260595134347_rgbf000041-resize_5/000682_2014-06-08_23-14-58_260595134347_rgbf000041-resize_5-target.png,depth_discrimination_stimuli/000866_2014-06-09_20-45-42_260595134347_rgbf000139-resize_1/000866_2014-06-09_20-45-42_260595134347_rgbf000139-resize_1-target.png,1000,2.724,3.2155,0,2219,505,1001,500,999,501,feet,,,,,2034303,2451813,51
764820,DepthScenes,duration_discrimination,discrim_jsons/d0_dr.json,http://54.173.234.186/DepthDuration/depth_discrimination_MTurk/DepthDiscrim_HTML.html#1,1,1920,946,1920,1080,6-19-2021,16-16-38,48,depth_discrimination_stimuli/002323_2014-06-28_20-01-54_260595134347_rgbf000051-resize_4/002323_2014-06-28_20-01-54_260595134347_rgbf000051-resize_4-target.png,depth_discrimination_stimuli/000736_2014-06-08_18-24-15_260595134347_rgbf000206-resize_3/000736_2014-06-08_18-24-15_260595134347_rgbf000206-resize_3-target.png,1000,3.731,3.515,1,2120,500,1001,499,1001,499,feet,,,,,2034303,2451813,51
764820,DepthScenes,duration_discrimination,discrim_jsons/d0_dr.json,http://54.173.234.186/DepthDuration/depth_discrimination_MTurk/DepthDiscrim_HTML.html#1,1,1920,946,1920,1080,6-19-2021,16-16-38,49,depth_discrimination_stimuli/001235_2014-06-17_16-37-36_260595134347_rgbf000084-resize_4/001235_2014-06-17_16-37-36_260595134347_rgbf000084-resize_4-target.png,depth_discrimination_stimuli/003423_2014-05-21_10-23-26_094959634447_rgbf002665-resize_2/003423_2014-05-21_10-23-26_094959634447_rgbf002665-resize_2-target.png,250,3.6605,3.2575,0,2220,500,250,501,249,500,feet,,,,,2034303,2451813,51
764820,DepthScenes,duration_discrimination,discrim_jsons/d0_dr.json,http://54.173.234.186/DepthDuration/depth_discrimination_MTurk/DepthDiscrim_HTML.html#1,1,1920,946,1920,1080,6-19-2021,16-16-38,50,depth_discrimination_stimuli/002568_2014-06-24_13-59-21_094959634447_rgbf000062-resize_4/002568_2014-06-24_13-59-21_094959634447_rgbf000062-resize_4-target.png,depth_discrimination_stimuli/000636_2014-06-08_16-39-02_260595134347_rgbf000108-resize_4/000636_2014-06-08_16-39-02_260595134347_rgbf000108-resize_4-target.png,1000,3.015,2.682,0,2967,509,1000,500,1000,500,feet,,,,,2034303,2451813,51
764820,DepthScenes,duration_discrimination,discrim_jsons/d0_dr.json,http://54.173.234.186/DepthDuration/depth_discrimination_MTurk/DepthDiscrim_HTML.html#1,1,1920,946,1920,1080,6-19-2021,16-16-38,51,depth_discrimination_stimuli/001289_2014-06-16_16-25-52_260595134347_rgbf000067-resize_1/001289_2014-06-16_16-25-52_260595134347_rgbf000067-resize_1-target.png,depth_discrimination_stimuli/002788_2014-06-22_19-36-03_094959634447_rgbf000088-resize_2/002788_2014-06-22_19-36-03_094959634447_rgbf000088-resize_2-target.png,250,1.8835,1.6465,0,1403,503,250,500,250,500,feet,,,,,2034303,2451813,51
764820,DepthScenes,duration_discrimination,discrim_jsons/d0_dr.json,http://54.173.234.186/DepthDuration/depth_discrimination_MTurk/DepthDiscrim_HTML.html#1,1,1920,946,1920,1080,6-19-2021,16-16-38,52,depth_discrimination_stimuli/000549_2014-06-08_22-10-24_260595134347_rgbf000247-resize_3/000549_2014-06-08_22-10-24_260595134347_rgbf000247-resize_3-target.png,depth_discrimination_stimuli/002139_2014-06-25_21-19-37_260595134347_rgbf000124-resize_2/002139_2014-06-25_21-19-37_260595134347_rgbf000124-resize_2-target.png,1000,1.841,2.107,0,2137,506,1000,500,1000,500,feet,,,,,2034303,2451813,51
764820,DepthScenes,duration_discrimination,discrim_jsons/d0_dr.json,http://54.173.234.186/DepthDuration/depth_discrimination_MTurk/DepthDiscrim_HTML.html#1,1,1920,946,1920,1080,6-19-2021,16-16-38,53,depth_discrimination_stimuli/001810_2014-06-26_20-51-35_260595134347_rgbf000040-resize_3/001810_2014-06-26_20-51-35_260595134347_rgbf000040-resize_3-target.png,depth_discrimination_stimuli/000927_2014-06-09_16-32-30_260595134347_rgbf000123-resize_3/000927_2014-06-09_16-32-30_260595134347_rgbf000123-resize_3-target.png,1000,2.2525,2.6785,0,1565,503,1000,500,1000,500,feet,,,,,2034303,2451813,51
764820,DepthScenes,duration_discrimination,discrim_jsons/d0_dr.json,http://54.173.234.186/DepthDuration/depth_discrimination_MTurk/DepthDiscrim_HTML.html#1,1,1920,946,1920,1080,6-19-2021,16-16-38,54,depth_discrimination_stimuli/002199_2014-06-28_18-33-56_260595134347_rgbf000074-resize_0/002199_2014-06-28_18-33-56_260595134347_rgbf000074-resize_0-target.png,depth_discrimination_stimuli/000368_2014-06-09_15-53-01_260595134347_rgbf000155-resize_2/000368_2014-06-09_15-53-01_260595134347_rgbf000155-resize_2-target.png,1000,1.996,2.486,0,2171,505,1000,500,1000,500,feet,,,,,2034303,2451813,51
764820,DepthScenes,duration_discrimination,discrim_jsons/d0_dr.json,http://54.173.234.186/DepthDuration/depth_discrimination_MTurk/DepthDiscrim_HTML.html#1,1,1920,946,1920,1080,6-19-2021,16-16-38,55,depth_discrimination_stimuli/000878_2014-06-08_22-52-45_260595134347_rgbf000045-resize_2/000878_2014-06-08_22-52-45_260595134347_rgbf000045-resize_2-target.png,depth_discrimination_stimuli/003338_2014-05-20_11-01-23_094959634447_rgbf000051-resize_6/003338_2014-05-20_11-01-23_094959634447_rgbf000051-resize_6-target.png,250,2.092,1.693,1,1677,509,250,500,249,501,feet,,,,,2034303,2451813,51
764820,DepthScenes,duration_discrimination,discrim_jsons/d0_dr.json,http://54.173.234.186/DepthDuration/depth_discrimination_MTurk/DepthDiscrim_HTML.html#1,1,1920,946,1920,1080,6-19-2021,16-16-38,56,depth_discrimination_stimuli/002660_2014-06-13_15-44-18_094959634447_rgbf001878-resize_2/002660_2014-06-13_15-44-18_094959634447_rgbf001878-resize_2-target.png,depth_discrimination_stimuli/000009_2014-05-26_14-32-05_260595134347_rgbf000034-resize_3/000009_2014-05-26_14-32-05_260595134347_rgbf000034-resize_3-target.png,250,3.576,3.8715,1,2003,503,250,500,250,500,feet,,,,,2034303,2451813,51
764820,DepthScenes,duration_discrimination,discrim_jsons/d0_dr.json,http://54.173.234.186/DepthDuration/depth_discrimination_MTurk/DepthDiscrim_HTML.html#1,1,1920,946,1920,1080,6-19-2021,16-16-38,57,depth_discrimination_stimuli/001167_2014-06-17_15-38-07_260595134347_rgbf000108-resize_0/001167_2014-06-17_15-38-07_260595134347_rgbf000108-resize_0-target.png,depth_discrimination_stimuli/003495_2014-05-21_16-01-51_094959634447_rgbf000100-resize_3/003495_2014-05-21_16-01-51_094959634447_rgbf000100-resize_3-target.png,1000,1.8505,1.6255,0,2794,506,1000,499,1001,500,feet,,,,,2034303,2451813,51
764820,DepthScenes,duration_discrimination,discrim_jsons/d0_dr.json,http://54.173.234.186/DepthDuration/depth_discrimination_MTurk/DepthDiscrim_HTML.html#1,1,1920,946,1920,1080,6-19-2021,16-16-38,58,depth_discrimination_stimuli/003070_2014-06-15_14-58-27_094959634447_rgbf000150-resize_3/003070_2014-06-15_14-58-27_094959634447_rgbf000150-resize_3-target.png,depth_discrimination_stimuli/000758_2014-06-08_22-05-08_260595134347_rgbf000085-resize_0/000758_2014-06-08_22-05-08_260595134347_rgbf000085-resize_0-target.png,250,2.9415,3.381,0,2303,507,250,500,249,501,feet,,,,,2034303,2451813,51
764820,DepthScenes,duration_discrimination,discrim_jsons/d0_dr.json,http://54.173.234.186/DepthDuration/depth_discrimination_MTurk/DepthDiscrim_HTML.html#1,1,1920,946,1920,1080,6-19-2021,16-16-38,59,depth_discrimination_stimuli/001199_2014-06-17_16-03-48_260595134347_rgbf000077-resize_0/001199_2014-06-17_16-03-48_260595134347_rgbf000077-resize_0-target.png,depth_discrimination_stimuli/001029_2014-06-08_13-17-57_260595134347_rgbf000065-resize_1/001029_2014-06-08_13-17-57_260595134347_rgbf000065-resize_1-target.png,1000,3.4375,3.0835,1,2088,507,999,501,1000,500,feet,,,,,2034303,2451813,51
764820,DepthScenes,duration_discrimination,discrim_jsons/d0_dr.json,http://54.173.234.186/DepthDuration/depth_discrimination_MTurk/DepthDiscrim_HTML.html#1,1,1920,946,1920,1080,6-19-2021,16-16-38,60,depth_discrimination_stimuli/000929_2014-06-09_16-33-19_260595134347_rgbf000139-resize_0/000929_2014-06-09_16-33-19_260595134347_rgbf000139-resize_0-target.png,depth_discrimination_stimuli/000830_2014-06-04_19-49-31_260595134347_rgbf000096-resize_2/000830_2014-06-04_19-49-31_260595134347_rgbf000096-resize_2-target.png,1000,2.868,2.6353333333333,1,2119,502,999,501,999,501,feet,,,,,2034303,2451813,51
764820,DepthScenes,duration_discrimination,discrim_jsons/d0_dr.json,http://54.173.234.186/DepthDuration/depth_discrimination_MTurk/DepthDiscrim_HTML.html#1,1,1920,946,1920,1080,6-19-2021,16-16-38,61,depth_discrimination_stimuli/003292_2014-05-14_21-53-49_094959634447_rgbf000100-resize_2/003292_2014-05-14_21-53-49_094959634447_rgbf000100-resize_2-target.png,depth_discrimination_stimuli/002805_2014-06-22_19-54-03_094959634447_rgbf000079-resize_1/002805_2014-06-22_19-54-03_094959634447_rgbf000079-resize_1-target.png,250,3.4815,3.144,1,3325,501,249,501,249,501,feet,,,,,2034303,2451813,51
764820,DepthScenes,duration_discrimination,discrim_jsons/d0_dr.json,http://54.173.234.186/DepthDuration/depth_discrimination_MTurk/DepthDiscrim_HTML.html#1,1,1920,946,1920,1080,6-19-2021,16-16-38,62,depth_discrimination_stimuli/001498_2014-06-19_17-45-14_260595134347_rgbf000129-resize_4/001498_2014-06-19_17-45-14_260595134347_rgbf000129-resize_4-target.png,depth_discrimination_stimuli/003125_2014-05-12_10-39-22_094959634447_rgbf000100-resize_0/003125_2014-05-12_10-39-22_094959634447_rgbf000100-resize_0-target.png,250,1.4075,4.8655,1,3376,505,249,501,249,501,feet,,,,,2034303,2451813,51
764820,DepthScenes,duration_discrimination,discrim_jsons/d0_dr.json,http://54.173.234.186/DepthDuration/depth_discrimination_MTurk/DepthDiscrim_HTML.html#1,1,1920,946,1920,1080,6-19-2021,16-16-38,63,depth_discrimination_stimuli/000953_2014-06-08_11-42-19_260595134347_rgbf000083-resize_0/000953_2014-06-08_11-42-19_260595134347_rgbf000083-resize_0-target.png,depth_discrimination_stimuli/000787_2014-06-08_22-33-53_260595134347_rgbf000175-resize_1/000787_2014-06-08_22-33-53_260595134347_rgbf000175-resize_1-target.png,1000,1.369,4.784,0,2515,502,1002,500,1000,499,feet,,,,,2034303,2451813,51
764820,DepthScenes,duration_discrimination,discrim_jsons/d0_dr.json,http://54.173.234.186/DepthDuration/depth_discrimination_MTurk/DepthDiscrim_HTML.html#1,1,1920,946,1920,1080,6-19-2021,16-16-38,64,depth_discrimination_stimuli/000720_2014-06-08_18-37-27_260595134347_rgbf000203-resize_4/000720_2014-06-08_18-37-27_260595134347_rgbf000203-resize_4-target.png,depth_discrimination_stimuli/002637_2014-06-24_14-51-13_094959634447_rgbf000066-resize_4/002637_2014-06-24_14-51-13_094959634447_rgbf000066-resize_4-target.png,250,1.558,1.9955,0,1449,504,250,500,250,501,feet,,,,,2034303,2451813,51
764820,DepthScenes,duration_discrimination,discrim_jsons/d0_dr.json,http://54.173.234.186/DepthDuration/depth_discrimination_MTurk/DepthDiscrim_HTML.html#1,1,1920,946,1920,1080,6-19-2021,16-16-38,65,depth_discrimination_stimuli/000521_2014-06-08_13-34-35_260595134347_rgbf000191-resize_2/000521_2014-06-08_13-34-35_260595134347_rgbf000191-resize_2-target.png,depth_discrimination_stimuli/000788_2014-06-08_22-34-36_260595134347_rgbf000131-resize_1/000788_2014-06-08_22-34-36_260595134347_rgbf000131-resize_1-target.png,1000,3.0385,3.359,0,4231,500,1000,500,1000,500,feet,,,,,2034303,2451813,51
764820,DepthScenes,duration_discrimination,discrim_jsons/d0_dr.json,http://54.173.234.186/DepthDuration/depth_discrimination_MTurk/DepthDiscrim_HTML.html#1,1,1920,946,1920,1080,6-19-2021,16-16-38,66,depth_discrimination_stimuli/000780_2014-06-08_22-28-29_260595134347_rgbf000126-resize_1/000780_2014-06-08_22-28-29_260595134347_rgbf000126-resize_1-target.png,depth_discrimination_stimuli/000191_2014-05-12_17-07-38_260595134347_rgbf000199-resize_0/000191_2014-05-12_17-07-38_260595134347_rgbf000199-resize_0-target.png,250,3.3825,3.7995,0,2261,509,250,500,250,501,feet,,,,,2034303,2451813,51
764820,DepthScenes,duration_discrimination,discrim_jsons/d0_dr.json,http://54.173.234.186/DepthDuration/depth_discrimination_MTurk/DepthDiscrim_HTML.html#1,1,1920,946,1920,1080,6-19-2021,16-16-38,67,depth_discrimination_stimuli/000753_2014-06-08_21-57-44_260595134347_rgbf000123-resize_3/000753_2014-06-08_21-57-44_260595134347_rgbf000123-resize_3-target.png,depth_discrimination_stimuli/003092_2014-06-24_21-01-49_094959634447_rgbf000049-resize_2/003092_2014-06-24_21-01-49_094959634447_rgbf000049-resize_2-target.png,250,1.916,1.666,1,1589,509,250,500,250,500,feet,,,,,2034303,2451813,51
764820,DepthScenes,duration_discrimination,discrim_jsons/d0_dr.json,http://54.173.234.186/DepthDuration/depth_discrimination_MTurk/DepthDiscrim_HTML.html#1,1,1920,946,1920,1080,6-19-2021,16-16-38,68,depth_discrimination_stimuli/000869_2014-06-09_20-50-18_260595134347_rgbf000060-resize_3/000869_2014-06-09_20-50-18_260595134347_rgbf000060-resize_3-target.png,depth_discrimination_stimuli/001136_2014-06-17_15-19-41_260595134347_rgbf000076-resize_3/001136_2014-06-17_15-19-41_260595134347_rgbf000076-resize_3-target.png,1000,2.266,1.8655,1,2143,501,1000,500,1000,500,feet,,,,,2034303,2451813,51
764820,DepthScenes,duration_discrimination,discrim_jsons/d0_dr.json,http://54.173.234.186/DepthDuration/depth_discrimination_MTurk/DepthDiscrim_HTML.html#1,1,1920,946,1920,1080,6-19-2021,16-16-38,69,depth_discrimination_stimuli/001417_2014-06-19_16-25-36_260595134347_rgbf000115-resize_5/001417_2014-06-19_16-25-36_260595134347_rgbf000115-resize_5-target.png,depth_discrimination_stimuli/003083_2014-06-15_15-21-03_094959634447_rgbf000063-resize_1/003083_2014-06-15_15-21-03_094959634447_rgbf000063-resize_1-target.png,1000,4.6255,4.1405,0,2489,507,1000,500,1000,500,feet,,,,,2034303,2451813,51
764820,DepthScenes,duration_discrimination,discrim_jsons/d0_dr.json,http://54.173.234.186/DepthDuration/depth_discrimination_MTurk/DepthDiscrim_HTML.html#1,1,1920,946,1920,1080,6-19-2021,16-16-38,70,depth_discrimination_stimuli/000642_2014-06-08_16-59-25_260595134347_rgbf000098-resize_2/000642_2014-06-08_16-59-25_260595134347_rgbf000098-resize_2-target.png,depth_discrimination_stimuli/001815_2014-06-26_20-52-55_260595134347_rgbf000020-resize_0/001815_2014-06-26_20-52-55_260595134347_rgbf000020-resize_0-target.png,250,2.8815,3.3865,0,1581,500,251,500,250,500,feet,,,,,2034303,2451813,51
764820,DepthScenes,duration_discrimination,discrim_jsons/d0_dr.json,http://54.173.234.186/DepthDuration/depth_discrimination_MTurk/DepthDiscrim_HTML.html#1,1,1920,946,1920,1080,6-19-2021,16-16-38,71,depth_discrimination_stimuli/001617_2014-06-20_11-35-32_260595134347_rgbf000066-resize_1/001617_2014-06-20_11-35-32_260595134347_rgbf000066-resize_1-target.png,depth_discrimination_stimuli/001133_2014-06-17_14-49-16_260595134347_rgbf000100-resize_0/001133_2014-06-17_14-49-16_260595134347_rgbf000100-resize_0-target.png,250,3.791,4.2115,1,1877,509,249,501,250,500,feet,,,,,2034303,2451813,51
764820,DepthScenes,duration_discrimination,discrim_jsons/d0_dr.json,http://54.173.234.186/DepthDuration/depth_discrimination_MTurk/DepthDiscrim_HTML.html#1,1,1920,946,1920,1080,6-19-2021,16-16-38,72,depth_discrimination_stimuli/002425_2014-06-28_20-27-29_260595134347_rgbf000031-resize_8/002425_2014-06-28_20-27-29_260595134347_rgbf000031-resize_8-target.png,depth_discrimination_stimuli/001181_2014-06-17_15-50-57_260595134347_rgbf000106-resize_4/001181_2014-06-17_15-50-57_260595134347_rgbf000106-resize_4-target.png,1000,3.896,4.149,0,2677,503,1000,500,1000,500,feet,,,,,2034303,2451813,51
764820,DepthScenes,duration_discrimination,discrim_jsons/d0_dr.json,http://54.173.234.186/DepthDuration/depth_discrimination_MTurk/DepthDiscrim_HTML.html#1,1,1920,946,1920,1080,6-19-2021,16-16-38,73,depth_discrimination_stimuli/001110_2014-06-15_17-25-28_260595134347_rgbf000150-resize_1/001110_2014-06-15_17-25-28_260595134347_rgbf000150-resize_1-target.png,depth_discrimination_stimuli/000555_2014-06-09_22-42-23_260595134347_rgbf000037-resize_4/000555_2014-06-09_22-42-23_260595134347_rgbf000037-resize_4-target.png,1000,1.7115,1.9765,1,2180,503,999,501,1000,499,feet,,,,,2034303,2451813,51
764820,DepthScenes,duration_discrimination,discrim_jsons/d0_dr.json,http://54.173.234.186/DepthDuration/depth_discrimination_MTurk/DepthDiscrim_HTML.html#1,1,1920,946,1920,1080,6-19-2021,16-16-38,74,depth_discrimination_stimuli/001032_2014-06-08_13-23-17_260595134347_rgbf000021-resize_3/001032_2014-06-08_13-23-17_260595134347_rgbf000021-resize_3-target.png,depth_discrimination_stimuli/002790_2014-06-22_19-36-35_094959634447_rgbf000074-resize_4/002790_2014-06-22_19-36-35_094959634447_rgbf000074-resize_4-target.png,250,3.2725,3.512,1,1933,509,250,500,249,501,feet,,,,,2034303,2451813,51
764820,DepthScenes,duration_discrimination,discrim_jsons/d0_dr.json,http://54.173.234.186/DepthDuration/depth_discrimination_MTurk/DepthDiscrim_HTML.html#1,1,1920,946,1920,1080,6-19-2021,16-16-38,75,depth_discrimination_stimuli/000773_2014-06-08_22-24-54_260595134347_rgbf000093-resize_1/000773_2014-06-08_22-24-54_260595134347_rgbf000093-resize_1-target.png,depth_discrimination_stimuli/000742_2014-06-08_18-48-09_260595134347_rgbf000164-resize_4/000742_2014-06-08_18-48-09_260595134347_rgbf000164-resize_4-target.png,1000,4.973,4.632,0,3945,507,999,501,999,501,feet,,,,,2034303,2451813,51
764820,DepthScenes,duration_discrimination,discrim_jsons/d0_dr.json,http://54.173.234.186/DepthDuration/depth_discrimination_MTurk/DepthDiscrim_HTML.html#1,1,1920,946,1920,1080,6-19-2021,16-16-38,76,depth_discrimination_stimuli/001244_2014-06-17_16-47-45_260595134347_rgbf000030-resize_4/001244_2014-06-17_16-47-45_260595134347_rgbf000030-resize_4-target.png,depth_discrimination_stimuli/002763_2014-06-22_19-13-10_094959634447_rgbf000075-resize_4/002763_2014-06-22_19-13-10_094959634447_rgbf000075-resize_4-target.png,250,2.0425,1.68375,0,3393,504,250,499,251,500,feet,,,,,2034303,2451813,51
764820,DepthScenes,duration_discrimination,discrim_jsons/d0_dr.json,http://54.173.234.186/DepthDuration/depth_discrimination_MTurk/DepthDiscrim_HTML.html#1,1,1920,946,1920,1080,6-19-2021,16-16-38,77,depth_discrimination_stimuli/001011_2014-06-08_23-18-54_260595134347_rgbf000044-resize_4/001011_2014-06-08_23-18-54_260595134347_rgbf000044-resize_4-target.png,depth_discrimination_stimuli/002678_2014-06-13_16-15-32_094959634447_rgbf000151-resize_6/002678_2014-06-13_16-15-32_094959634447_rgbf000151-resize_6-target.png,250,2.473,2.183,0,2046,507,250,500,250,499,feet,,,,,2034303,2451813,51
764820,DepthScenes,duration_discrimination,discrim_jsons/d0_dr.json,http://54.173.234.186/DepthDuration/depth_discrimination_MTurk/DepthDiscrim_HTML.html#1,1,1920,946,1920,1080,6-19-2021,16-16-38,78,depth_discrimination_stimuli/001056_2014-06-08_18-46-44_260595134347_rgbf000068-resize_0/001056_2014-06-08_18-46-44_260595134347_rgbf000068-resize_0-target.png,depth_discrimination_stimuli/003079_2014-06-15_15-18-20_094959634447_rgbf000152-resize_8/003079_2014-06-15_15-18-20_094959634447_rgbf000152-resize_8-target.png,1000,2.6625,2.8775,0,2525,503,1001,499,1000,501,feet,,,,,2034303,2451813,51
764820,DepthScenes,duration_discrimination,discrim_jsons/d0_dr.json,http://54.173.234.186/DepthDuration/depth_discrimination_MTurk/DepthDiscrim_HTML.html#1,1,1920,946,1920,1080,6-19-2021,16-16-38,79,depth_discrimination_stimuli/001158_2014-06-17_15-32-16_260595134347_rgbf000138-resize_2/001158_2014-06-17_15-32-16_260595134347_rgbf000138-resize_2-target.png,depth_discrimination_stimuli/003492_2014-05-21_15-50-55_094959634447_rgbf000828-resize_1/003492_2014-05-21_15-50-55_094959634447_rgbf000828-resize_1-target.png,1000,4.5315,4.06875,0,2267,504,1000,500,1001,499,feet,,,,,2034303,2451813,51
764820,DepthScenes,duration_discrimination,discrim_jsons/d0_dr.json,http://54.173.234.186/DepthDuration/depth_discrimination_MTurk/DepthDiscrim_HTML.html#1,1,1920,946,1920,1080,6-19-2021,16-16-38,80,depth_discrimination_stimuli/001392_2014-06-19_16-07-59_260595134347_rgbf000046-resize_1/001392_2014-06-19_16-07-59_260595134347_rgbf000046-resize_1-target.png,depth_discrimination_stimuli/003490_2014-05-21_15-50-11_094959634447_rgbf000101-resize_3/003490_2014-05-21_15-50-11_094959634447_rgbf000101-resize_3-target.png,250,4.135,3.6445,1,1707,503,251,499,251,500,feet,,,,,2034303,2451813,51
764820,DepthScenes,duration_discrimination,discrim_jsons/d0_dr.json,http://54.173.234.186/DepthDuration/depth_discrimination_MTurk/DepthDiscrim_HTML.html#1,1,1920,946,1920,1080,6-19-2021,16-16-38,81,depth_discrimination_stimuli/000854_2014-06-09_19-43-13_260595134347_rgbf000066-resize_0/000854_2014-06-09_19-43-13_260595134347_rgbf000066-resize_0-target.png,depth_discrimination_stimuli/002758_2014-06-22_19-11-20_094959634447_rgbf000128-resize_1/002758_2014-06-22_19-11-20_094959634447_rgbf000128-resize_1-target.png,250,3.068,2.555,1,1811,502,250,500,251,499,feet,,,,,2034303,2451813,51
764820,DepthScenes,duration_discrimination,discrim_jsons/d0_dr.json,http://54.173.234.186/DepthDuration/depth_discrimination_MTurk/DepthDiscrim_HTML.html#1,1,1920,946,1920,1080,6-19-2021,16-16-38,82,depth_discrimination_stimuli/002414_2014-06-28_20-24-58_260595134347_rgbf000067-resize_4/002414_2014-06-28_20-24-58_260595134347_rgbf000067-resize_4-target.png,depth_discrimination_stimuli/001828_2014-06-26_21-40-03_260595134347_rgbf000024-resize_0/001828_2014-06-26_21-40-03_260595134347_rgbf000024-resize_0-target.png,250,4.363,4.826,0,1820,509,250,501,249,500,feet,,,,,2034303,2451813,51
764820,DepthScenes,duration_discrimination,discrim_jsons/d0_dr.json,http://54.173.234.186/DepthDuration/depth_discrimination_MTurk/DepthDiscrim_HTML.html#1,1,1920,946,1920,1080,6-19-2021,16-16-38,83,depth_discrimination_stimuli/000502_2014-06-08_23-02-32_260595134347_rgbf000063-resize_4/000502_2014-06-08_23-02-32_260595134347_rgbf000063-resize_4-target.png,depth_discrimination_stimuli/002987_2014-06-08_18-48-20_094959634447_rgbf000022-resize_0/002987_2014-06-08_18-48-20_094959634447_rgbf000022-resize_0-target.png,250,2.431,2.6775,1,1749,509,250,500,250,500,feet,,,,,2034303,2451813,51
764820,DepthScenes,duration_discrimination,discrim_jsons/d0_dr.json,http://54.173.234.186/DepthDuration/depth_discrimination_MTurk/DepthDiscrim_HTML.html#1,1,1920,946,1920,1080,6-19-2021,16-16-38,84,depth_discrimination_stimuli/000740_2014-06-08_18-46-23_260595134347_rgbf000049-resize_6/000740_2014-06-08_18-46-23_260595134347_rgbf000049-resize_6-target.png,depth_discrimination_stimuli/002905_2014-06-03_18-04-43_094959634447_rgbf000151-resize_2/002905_2014-06-03_18-04-43_094959634447_rgbf000151-resize_2-target.png,250,1.687,2.0295,0,1485,500,250,500,250,500,feet,,,,,2034303,2451813,51
764820,DepthScenes,duration_discrimination,discrim_jsons/d0_dr.json,http://54.173.234.186/DepthDuration/depth_discrimination_MTurk/DepthDiscrim_HTML.html#1,1,1920,946,1920,1080,6-19-2021,16-16-38,85,depth_discrimination_stimuli/001055_2014-06-08_18-45-35_260595134347_rgbf000111-resize_4/001055_2014-06-08_18-45-35_260595134347_rgbf000111-resize_4-target.png,depth_discrimination_stimuli/002209_2014-06-28_18-36-10_260595134347_rgbf000051-resize_1/002209_2014-06-28_18-36-10_260595134347_rgbf000051-resize_1-target.png,1000,2.429,2.057,1,2043,504,1000,500,1000,500,feet,,,,,2034303,2451813,51
764820,DepthScenes,duration_discrimination,discrim_jsons/d0_dr.json,http://54.173.234.186/DepthDuration/depth_discrimination_MTurk/DepthDiscrim_HTML.html#1,1,1920,946,1920,1080,6-19-2021,16-16-38,86,depth_discrimination_stimuli/000103_2014-05-14_22-01-17_260595134347_rgbf000152-resize_5/000103_2014-05-14_22-01-17_260595134347_rgbf000152-resize_5-target.png,depth_discrimination_stimuli/000810_2014-06-08_17-20-01_260595134347_rgbf000105-resize_0/000810_2014-06-08_17-20-01_260595134347_rgbf000105-resize_0-target.png,250,1.993,1.4865,1,1831,507,250,500,250,500,feet,,,,,2034303,2451813,51
764820,DepthScenes,duration_discrimination,discrim_jsons/d0_dr.json,http://54.173.234.186/DepthDuration/depth_discrimination_MTurk/DepthDiscrim_HTML.html#1,1,1920,946,1920,1080,6-19-2021,16-16-38,87,depth_discrimination_stimuli/002750_2014-06-22_19-08-03_094959634447_rgbf000094-resize_4/002750_2014-06-22_19-08-03_094959634447_rgbf000094-resize_4-target.png,depth_discrimination_stimuli/001188_2014-06-17_15-54-10_260595134347_rgbf000090-resize_2/001188_2014-06-17_15-54-10_260595134347_rgbf000090-resize_2-target.png,1000,2.354,2.744,1,2303,509,1000,500,1000,500,feet,,,,,2034303,2451813,51
764820,DepthScenes,duration_discrimination,discrim_jsons/d0_dr.json,http://54.173.234.186/DepthDuration/depth_discrimination_MTurk/DepthDiscrim_HTML.html#1,1,1920,946,1920,1080,6-19-2021,16-16-38,88,depth_discrimination_stimuli/000470_2014-06-09_19-42-40_260595134347_rgbf000094-resize_1/000470_2014-06-09_19-42-40_260595134347_rgbf000094-resize_1-target.png,depth_discrimination_stimuli/000109_2014-05-14_23-41-52_260595134347_rgbf000035-resize_9/000109_2014-05-14_23-41-52_260595134347_rgbf000035-resize_9-target.png,250,1.831,1.3545,1,1919,507,250,500,250,500,feet,,,,,2034303,2451813,51
764820,DepthScenes,duration_discrimination,discrim_jsons/d0_dr.json,http://54.173.234.186/DepthDuration/depth_discrimination_MTurk/DepthDiscrim_HTML.html#1,1,1920,946,1920,1080,6-19-2021,16-16-38,89,depth_discrimination_stimuli/002570_2014-06-24_13-59-54_094959634447_rgbf000059-resize_0/002570_2014-06-24_13-59-54_094959634447_rgbf000059-resize_0-target.png,depth_discrimination_stimuli/001584_2014-06-20_11-07-43_260595134347_rgbf000002-resize_1/001584_2014-06-20_11-07-43_260595134347_rgbf000002-resize_1-target.png,1000,4.037,3.53,1,2239,501,1000,500,999,500,feet,,,,,2034303,2451813,51
764820,DepthScenes,duration_discrimination,discrim_jsons/d0_dr.json,http://54.173.234.186/DepthDuration/depth_discrimination_MTurk/DepthDiscrim_HTML.html#1,1,1920,946,1920,1080,6-19-2021,16-16-38,90,depth_discrimination_stimuli/002725_2014-06-22_11-47-51_094959634447_rgbf000070-resize_1/002725_2014-06-22_11-47-51_094959634447_rgbf000070-resize_1-target.png,depth_discrimination_stimuli/002153_2014-06-25_21-27-18_260595134347_rgbf000038-resize_5/002153_2014-06-25_21-27-18_260595134347_rgbf000038-resize_5-target.png,250,2.195,2.505,1,2444,501,249,501,250,500,feet,,,,,2034303,2451813,51
764820,DepthScenes,duration_discrimination,discrim_jsons/d0_dr.json,http://54.173.234.186/DepthDuration/depth_discrimination_MTurk/DepthDiscrim_HTML.html#1,1,1920,946,1920,1080,6-19-2021,16-16-38,91,depth_discrimination_stimuli/002072_2014-06-24_21-48-06_260595134347_rgbf000115-resize_0/002072_2014-06-24_21-48-06_260595134347_rgbf000115-resize_0-target.png,depth_discrimination_stimuli/001012_2014-06-08_23-19-38_260595134347_rgbf000057-resize_0/001012_2014-06-08_23-19-38_260595134347_rgbf000057-resize_0-target.png,250,4.702,1.38325,0,2354,504,251,499,250,500,feet,,,,,2034303,2451813,51
764820,DepthScenes,duration_discrimination,discrim_jsons/d0_dr.json,http://54.173.234.186/DepthDuration/depth_discrimination_MTurk/DepthDiscrim_HTML.html#1,1,1920,946,1920,1080,6-19-2021,16-16-38,92,depth_discrimination_stimuli/002675_2014-06-13_16-08-49_094959634447_rgbf000151-resize_2/002675_2014-06-13_16-08-49_094959634447_rgbf000151-resize_2-target.png,depth_discrimination_stimuli/001222_2014-06-17_16-24-06_260595134347_rgbf000073-resize_0/001222_2014-06-17_16-24-06_260595134347_rgbf000073-resize_0-target.png,1000,4.5065,1.4385,1,2152,507,999,501,999,501,feet,,,,,2034303,2451813,51
764820,DepthScenes,duration_discrimination,discrim_jsons/d0_dr.json,http://54.173.234.186/DepthDuration/depth_discrimination_MTurk/DepthDiscrim_HTML.html#1,1,1920,946,1920,1080,6-19-2021,16-16-38,93,depth_discrimination_stimuli/000414_2014-06-04_19-49-13_260595134347_rgbf000044-resize_0/000414_2014-06-04_19-49-13_260595134347_rgbf000044-resize_0-target.png,depth_discrimination_stimuli/002663_2014-06-13_15-50-26_094959634447_rgbf000075-resize_1/002663_2014-06-13_15-50-26_094959634447_rgbf000075-resize_1-target.png,250,4.329,4.7495,0,2095,507,250,500,250,500,feet,,,,,2034303,2451813,51
764820,DepthScenes,duration_discrimination,discrim_jsons/d0_dr.json,http://54.173.234.186/DepthDuration/depth_discrimination_MTurk/DepthDiscrim_HTML.html#1,1,1920,946,1920,1080,6-19-2021,16-16-38,94,depth_discrimination_stimuli/000483_2014-06-09_20-41-45_260595134347_rgbf000116-resize_4/000483_2014-06-09_20-41-45_260595134347_rgbf000116-resize_4-target.png,depth_discrimination_stimuli/002964_2014-06-08_17-46-11_094959634447_rgbf000091-resize_4/002964_2014-06-08_17-46-11_094959634447_rgbf000091-resize_4-target.png,1000,1.337,1.691,1,2002,505,999,501,1000,500,feet,,,,,2034303,2451813,51
764820,DepthScenes,duration_discrimination,discrim_jsons/d0_dr.json,http://54.173.234.186/DepthDuration/depth_discrimination_MTurk/DepthDiscrim_HTML.html#1,1,1920,946,1920,1080,6-19-2021,16-16-38,95,depth_discrimination_stimuli/000677_2014-06-08_23-10-32_260595134347_rgbf000158-resize_6/000677_2014-06-08_23-10-32_260595134347_rgbf000158-resize_6-target.png,depth_discrimination_stimuli/001150_2014-06-17_15-27-34_260595134347_rgbf000108-resize_2/001150_2014-06-17_15-27-34_260595134347_rgbf000108-resize_2-target.png,1000,3.556,4.0325,0,2282,508,1000,499,1000,500,feet,,,,,2034303,2451813,51
764820,DepthScenes,duration_discrimination,discrim_jsons/d0_dr.json,http://54.173.234.186/DepthDuration/depth_discrimination_MTurk/DepthDiscrim_HTML.html#1,1,1920,946,1920,1080,6-19-2021,16-16-38,96,depth_discrimination_stimuli/000505_2014-06-08_23-03-23_260595134347_rgbf000091-resize_0/000505_2014-06-08_23-03-23_260595134347_rgbf000091-resize_0-target.png,depth_discrimination_stimuli/002057_2014-06-24_21-00-13_260595134347_rgbf000120-resize_1/002057_2014-06-24_21-00-13_260595134347_rgbf000120-resize_1-target.png,250,3.3105,2.967,0,1789,508,250,501,249,501,feet,,,,,2034303,2451813,51
764820,DepthScenes,duration_discrimination,discrim_jsons/d0_dr.json,http://54.173.234.186/DepthDuration/depth_discrimination_MTurk/DepthDiscrim_HTML.html#1,1,1920,946,1920,1080,6-19-2021,16-16-38,96,,,,,,,1789,508,250,501,249,501,feet,,,,,2034303,2451813,51
764820,DepthScenes,duration_discrimination,discrim_jsons/d0_dr.json,http://54.173.234.186/DepthDuration/depth_discrimination_MTurk/DepthDiscrim_HTML.html#1,1,1904,946,1920,1080,6-19-2021,16-16-38,98,,,,,,,1789,508,250,501,249,501,feet,2,3,depth_discrimination_stimuli/000780_2014-06-08_22-28-29_260595134347_rgbf000126-resize_1/000780_2014-06-08_22-28-29_260595134347_rgbf000126-resize-original.jpg,42443,2034303,2451813,51
764820,DepthScenes,duration_discrimination,discrim_jsons/d0_dr.json,http://54.173.234.186/DepthDuration/depth_discrimination_MTurk/DepthDiscrim_HTML.html#1,1,1904,946,1920,1080,6-19-2021,16-16-38,99,,,,,,,1789,508,250,501,249,501,feet,2,3,depth_discrimination_stimuli/002637_2014-06-24_14-51-13_094959634447_rgbf000066-resize_4/002637_2014-06-24_14-51-13_094959634447_rgbf000066-resize-original.jpg,13254,2034303,2451813,51
764820,DepthScenes,duration_discrimination,discrim_jsons/d0_dr.json,http://54.173.234.186/DepthDuration/depth_discrimination_MTurk/DepthDiscrim_HTML.html#1,1,1904,946,1920,1080,6-19-2021,16-16-38,100,,,,,,,1789,508,250,501,249,501,feet,2,3,depth_discrimination_stimuli/000709_2014-06-08_13-51-55_260595134347_rgbf000068-resize_3/000709_2014-06-08_13-51-55_260595134347_rgbf000068-resize-original.jpg,16864,2034303,2451813,51
764820,DepthScenes,duration_discrimination,discrim_jsons/d0_dr.json,http://54.173.234.186/DepthDuration/depth_discrimination_MTurk/DepthDiscrim_HTML.html#1,1,1904,946,1920,1080,6-19-2021,16-16-38,101,,,,,,,1789,508,250,501,249,501,feet,2,3,depth_discrimination_stimuli/003546_2014-05-22_15-48-53_094959634447_rgbf004816-resize_3/003546_2014-05-22_15-48-53_094959634447_rgbf004816-resize-original.jpg,12753,2034303,2451813,51
764820,DepthScenes,duration_discrimination,discrim_jsons/d0_dr.json,http://54.173.234.186/DepthDuration/depth_discrimination_MTurk/DepthDiscrim_HTML.html#1,1,1904,946,1920,1080,6-19-2021,16-16-38,102,,,,,,,1789,508,250,501,249,501,feet,1,3,depth_discrimination_stimuli/000753_2014-06-08_21-57-44_260595134347_rgbf000123-resize_3/000753_2014-06-08_21-57-44_260595134347_rgbf000123-resize-original.jpg,10055,2034303,2451813,51
764820,DepthScenes,duration_discrimination,discrim_jsons/d0_dr.json,http://54.173.234.186/DepthDuration/depth_discrimination_MTurk/DepthDiscrim_HTML.html#1,1,1904,946,1920,1080,6-19-2021,16-16-38,103,,,,,,,1789,508,250,501,249,501,feet,2,4,depth_discrimination_stimuli/003079_2014-06-15_15-18-20_094959634447_rgbf000152-resize_8/003079_2014-06-15_15-18-20_094959634447_rgbf000152-resize-original.jpg,20513,2034303,2451813,51
764820,DepthScenes,duration_discrimination,discrim_jsons/d0_dr.json,http://54.173.234.186/DepthDuration/depth_discrimination_MTurk/DepthDiscrim_HTML.html#1,1,1904,946,1920,1080,6-19-2021,16-16-38,104,,,,,,,1789,508,250,501,249,501,feet,1,2,depth_discrimination_stimuli/001618_2014-06-20_11-37-31_260595134347_rgbf000027-resize_3/001618_2014-06-20_11-37-31_260595134347_rgbf000027-resize-original.jpg,12894,2034303,2451813,51
764820,DepthScenes,duration_discrimination,discrim_jsons/d0_dr.json,http://54.173.234.186/DepthDuration/depth_discrimination_MTurk/DepthDiscrim_HTML.html#1,1,1904,946,1920,1080,6-19-2021,16-16-38,105,,,,,,,1789,508,250,501,249,501,feet,3,3,depth_discrimination_stimuli/000505_2014-06-08_23-03-23_260595134347_rgbf000091-resize_0/000505_2014-06-08_23-03-23_260595134347_rgbf000091-resize-original.jpg,12503,2034303,2451813,51
764820,DepthScenes,duration_discrimination,discrim_jsons/d0_dr.json,http://54.173.234.186/DepthDuration/depth_discrimination_MTurk/DepthDiscrim_HTML.html#1,1,1904,946,1920,1080,6-19-2021,16-16-38,106,,,,,,,1789,508,250,501,249,501,feet,2,1,depth_discrimination_stimuli/000137_2014-05-20_17-04-49_260595134347_rgbf000120-resize_1/000137_2014-05-20_17-04-49_260595134347_rgbf000120-resize-original.jpg,10394,2034303,2451813,51
764820,DepthScenes,duration_discrimination,discrim_jsons/d0_dr.json,http://54.173.234.186/DepthDuration/depth_discrimination_MTurk/DepthDiscrim_HTML.html#1,1,1904,946,1920,1080,6-19-2021,16-16-38,107,,,,,,,1789,508,250,501,249,501,feet,2,3,depth_discrimination_stimuli/001828_2014-06-26_21-40-03_260595134347_rgbf000024-resize_0/001828_2014-06-26_21-40-03_260595134347_rgbf000024-resize-original.jpg,10884,2034303,2451813,51
764820,DepthScenes,duration_discrimination,discrim_jsons/d0_dr.json,http://54.173.234.186/DepthDuration/depth_discrimination_MTurk/DepthDiscrim_HTML.html#1,1,1904,946,1920,1080,6-19-2021,16-16-38,108,,,,,,,1789,508,250,501,249,501,feet,1,3,depth_discrimination_stimuli/003495_2014-05-21_16-01-51_094959634447_rgbf000100-resize_3/003495_2014-05-21_16-01-51_094959634447_rgbf000100-resize-original.jpg,10774,2034303,2451813,51
764820,DepthScenes,duration_discrimination,discrim_jsons/d0_dr.json,http://54.173.234.186/DepthDuration/depth_discrimination_MTurk/DepthDiscrim_HTML.html#1,1,1904,946,1920,1080,6-19-2021,16-16-38,109,,,,,,,1789,508,250,501,249,501,feet,1,3,depth_discrimination_stimuli/002279_2014-06-28_18-55-32_260595134347_rgbf000040-resize_5/002279_2014-06-28_18-55-32_260595134347_rgbf000040-resize-original.jpg,7173,2034303,2451813,51
764820,DepthScenes,duration_discrimination,discrim_jsons/d0_dr.json,http://54.173.234.186/DepthDuration/depth_discrimination_MTurk/DepthDiscrim_HTML.html#1,1,1904,946,1920,1080,6-19-2021,16-16-38,110,,,,,,,1789,508,250,501,249,501,feet,1,2,depth_discrimination_stimuli/001244_2014-06-17_16-47-45_260595134347_rgbf000030-resize_4/001244_2014-06-17_16-47-45_260595134347_rgbf000030-resize-original.jpg,8143,2034303,2451813,51
764820,DepthScenes,duration_discrimination,discrim_jsons/d0_dr.json,http://54.173.234.186/DepthDuration/depth_discrimination_MTurk/DepthDiscrim_HTML.html#1,1,1904,946,1920,1080,6-19-2021,16-16-38,111,,,,,,,1789,508,250,501,249,501,feet,2,3,depth_discrimination_stimuli/002989_2014-06-15_12-25-03_094959634447_rgbf000150-resize_3/002989_2014-06-15_12-25-03_094959634447_rgbf000150-resize-original.jpg,6226,2034303,2451813,51
764820,DepthScenes,duration_discrimination,discrim_jsons/d0_dr.json,http://54.173.234.186/DepthDuration/depth_discrimination_MTurk/DepthDiscrim_HTML.html#1,1,1904,946,1920,1080,6-19-2021,16-16-38,112,,,,,,,1789,508,250,501,249,501,feet,3,4,depth_discrimination_stimuli/001264_2014-06-16_16-10-23_260595134347_rgbf000109-resize_1/001264_2014-06-16_16-10-23_260595134347_rgbf000109-resize-original.jpg,12643,2034303,2451813,51
764820,DepthScenes,duration_discrimination,discrim_jsons/d0_dr.json,http://54.173.234.186/DepthDuration/depth_discrimination_MTurk/DepthDiscrim_HTML.html#1,1,1904,946,1920,1080,6-19-2021,16-16-38,113,,,,,,,1789,508,250,501,249,501,feet,1,2,depth_discrimination_stimuli/001289_2014-06-16_16-25-52_260595134347_rgbf000067-resize_1/001289_2014-06-16_16-25-52_260595134347_rgbf000067-resize-original.jpg,10064,2034303,2451813,51
764820,DepthScenes,duration_discrimination,discrim_jsons/d0_dr.json,http://54.173.234.186/DepthDuration/depth_discrimination_MTurk/DepthDiscrim_HTML.html#1,1,1904,946,1920,1080,6-19-2021,16-16-38,114,,,,,,,1789,508,250,501,249,501,feet,3,4,depth_discrimination_stimuli/002445_2014-06-28_20-32-16_260595134347_rgbf000029-resize_4/002445_2014-06-28_20-32-16_260595134347_rgbf000029-resize-original.jpg,12503,2034303,2451813,51
764820,DepthScenes,duration_discrimination,discrim_jsons/d0_dr.json,http://54.173.234.186/DepthDuration/depth_discrimination_MTurk/DepthDiscrim_HTML.html#1,1,1904,946,1920,1080,6-19-2021,16-16-38,115,,,,,,,1789,508,250,501,249,501,feet,2,2,depth_discrimination_stimuli/002790_2014-06-22_19-36-35_094959634447_rgbf000074-resize_4/002790_2014-06-22_19-36-35_094959634447_rgbf000074-resize-original.jpg,8624,2034303,2451813,51
764820,DepthScenes,duration_discrimination,discrim_jsons/d0_dr.json,http://54.173.234.186/DepthDuration/depth_discrimination_MTurk/DepthDiscrim_HTML.html#1,1,1904,946,1920,1080,6-19-2021,16-16-38,116,,,,,,,1789,508,250,501,249,501,feet,2,2,depth_discrimination_stimuli/000368_2014-06-09_15-53-01_260595134347_rgbf000155-resize_2/000368_2014-06-09_15-53-01_260595134347_rgbf000155-resize-original.jpg,8284,2034303,2451813,51
764820,DepthScenes,duration_discrimination,discrim_jsons/d0_dr.json,http://54.173.234.186/DepthDuration/depth_discrimination_MTurk/DepthDiscrim_HTML.html#1,1,1904,946,1920,1080,6-19-2021,16-16-38,117,,,,,,,1789,508,250,501,249,501,feet,2,4,depth_discrimination_stimuli/000691_2014-06-08_13-08-50_260595134347_rgbf000132-resize_3/000691_2014-06-08_13-08-50_260595134347_rgbf000132-resize-original.jpg,12084,2034303,2451813,51
764820,DepthScenes,duration_discrimination,discrim_jsons/d0_dr.json,http://54.173.234.186/DepthDuration/depth_discrimination_MTurk/DepthDiscrim_HTML.html#1,1,1904,946,1920,1080,6-19-2021,16-16-38,118,,,,,,,1789,508,250,501,249,501,feet,3,3,depth_discrimination_stimuli/000736_2014-06-08_18-24-15_260595134347_rgbf000206-resize_3/000736_2014-06-08_18-24-15_260595134347_rgbf000206-resize-original.jpg,7913,2034303,2451813,51
764820,DepthScenes,duration_discrimination,discrim_jsons/d0_dr.json,http://54.173.234.186/DepthDuration/depth_discrimination_MTurk/DepthDiscrim_HTML.html#1,1,1904,946,1920,1080,6-19-2021,16-16-38,119,,,,,,,1789,508,250,501,249,501,feet,2,3,depth_discrimination_stimuli/002444_2014-06-28_20-32-08_260595134347_rgbf000027-resize_0/002444_2014-06-28_20-32-08_260595134347_rgbf000027-resize-original.jpg,6223,2034303,2451813,51
764820,DepthScenes,duration_discrimination,discrim_jsons/d0_dr.json,http://54.173.234.186/DepthDuration/depth_discrimination_MTurk/DepthDiscrim_HTML.html#1,1,1904,946,1920,1080,6-19-2021,16-16-38,120,,,,,,,1789,508,250,501,249,501,feet,3,4,depth_discrimination_stimuli/002375_2014-06-28_20-13-44_260595134347_rgbf000032-resize_1/002375_2014-06-28_20-13-44_260595134347_rgbf000032-resize-original.jpg,8634,2034303,2451813,51
764820,DepthScenes,duration_discrimination,discrim_jsons/d0_dr.json,http://54.173.234.186/DepthDuration/depth_discrimination_MTurk/DepthDiscrim_HTML.html#1,1,1904,946,1920,1080,6-19-2021,16-16-38,121,,,,,,,1789,508,250,501,249,501,feet,1,2,depth_discrimination_stimuli/001059_2014-06-08_21-53-27_260595134347_rgbf000061-resize_4/001059_2014-06-08_21-53-27_260595134347_rgbf000061-resize-original.jpg,5564,2034303,2451813,51
764820,DepthScenes,duration_discrimination,discrim_jsons/d0_dr.json,http://54.173.234.186/DepthDuration/depth_discrimination_MTurk/DepthDiscrim_HTML.html#1,1,1904,946,1920,1080,6-19-2021,16-16-38,122,,,,,,,1789,508,250,501,249,501,feet,2,4,depth_discrimination_stimuli/001392_2014-06-19_16-07-59_260595134347_rgbf000046-resize_1/001392_2014-06-19_16-07-59_260595134347_rgbf000046-resize-original.jpg,10494,2034303,2451813,51
764820,DepthScenes,duration_discrimination,discrim_jsons/d0_dr.json,http://54.173.234.186/DepthDuration/depth_discrimination_MTurk/DepthDiscrim_HTML.html#1,1,1904,946,1920,1080,6-19-2021,16-16-38,123,,,,,,,1789,508,250,501,249,501,feet,2,2,depth_discrimination_stimuli/003621_2014-05-23_18-06-08_094959634447_rgbf000101-resize_1/003621_2014-05-23_18-06-08_094959634447_rgbf000101-resize-original.jpg,6304,2034303,2451813,51
764820,DepthScenes,duration_discrimination,discrim_jsons/d0_dr.json,http://54.173.234.186/DepthDuration/depth_discrimination_MTurk/DepthDiscrim_HTML.html#1,1,1904,946,1920,1080,6-19-2021,16-16-38,124,,,,,,,1789,508,250,501,249,501,feet,1,3,depth_discrimination_stimuli/001449_2014-06-19_17-01-27_260595134347_rgbf000116-resize_2/001449_2014-06-19_17-01-27_260595134347_rgbf000116-resize-original.jpg,5014,2034303,2451813,51
764820,DepthScenes,duration_discrimination,discrim_jsons/d0_dr.json,http://54.173.234.186/DepthDuration/depth_discrimination_MTurk/DepthDiscrim_HTML.html#1,1,1904,946,1920,1080,6-19-2021,16-16-38,125,,,,,,,1789,508,250,501,249,501,feet,2,2,depth_discrimination_stimuli/002509_2014-06-24_13-19-22_094959634447_rgbf000077-resize_0/002509_2014-06-24_13-19-22_094959634447_rgbf000077-resize-original.jpg,6434,2034303,2451813,51
764820,DepthScenes,duration_discrimination,discrim_jsons/d0_dr.json,http://54.173.234.186/DepthDuration/depth_discrimination_MTurk/DepthDiscrim_HTML.html#1,1,1904,946,1920,1080,6-19-2021,16-16-38,126,,,,,,,1789,508,250,501,249,501,feet,2,2,depth_discrimination_stimuli/003048_2014-06-15_13-49-43_094959634447_rgbf000150-resize_1/003048_2014-06-15_13-49-43_094959634447_rgbf000150-resize-original.jpg,7713,2034303,2451813,51
764820,DepthScenes,duration_discrimination,discrim_jsons/d0_dr.json,http://54.173.234.186/DepthDuration/depth_discrimination_MTurk/DepthDiscrim_HTML.html#1,1,1904,946,1920,1080,6-19-2021,16-16-38,127,,,,,,,1789,508,250,501,249,501,feet,4,4,depth_discrimination_stimuli/002118_2014-06-25_20-32-08_260595134347_rgbf000078-resize_1/002118_2014-06-25_20-32-08_260595134347_rgbf000078-resize-original.jpg,18024,2034303,2451813,51
764820,DepthScenes,duration_discrimination,discrim_jsons/d0_dr.json,http://54.173.234.186/DepthDuration/depth_discrimination_MTurk/DepthDiscrim_HTML.html#1,1,1904,946,1920,1080,6-19-2021,16-16-38,128,,,,,,,1789,508,250,501,249,501,feet,2,3,depth_discrimination_stimuli/000483_2014-06-09_20-41-45_260595134347_rgbf000116-resize_4/000483_2014-06-09_20-41-45_260595134347_rgbf000116-resize-original.jpg,8266,2034303,2451813,51
764820,DepthScenes,duration_discrimination,discrim_jsons/d0_dr.json,http://54.173.234.186/DepthDuration/depth_discrimination_MTurk/DepthDiscrim_HTML.html#1,1,1904,946,1920,1080,6-19-2021,16-16-38,129,,,,,,,1789,508,250,501,249,501,feet,2,3,depth_discrimination_stimuli/003081_2014-06-15_15-19-16_094959634447_rgbf000150-resize_1/003081_2014-06-15_15-19-16_094959634447_rgbf000150-resize-original.jpg,5794,2034303,2451813,51
764820,DepthScenes,duration_discrimination,discrim_jsons/d0_dr.json,http://54.173.234.186/DepthDuration/depth_discrimination_MTurk/DepthDiscrim_HTML.html#1,1,1904,946,1920,1080,6-19-2021,16-16-38,130,,,,,,,1789,508,250,501,249,501,feet,2,3,depth_discrimination_stimuli/001133_2014-06-17_14-49-16_260595134347_rgbf000100-resize_0/001133_2014-06-17_14-49-16_260595134347_rgbf000100-resize-original.jpg,9634,2034303,2451813,51
764820,DepthScenes,duration_discrimination,discrim_jsons/d0_dr.json,http://54.173.234.186/DepthDuration/depth_discrimination_MTurk/DepthDiscrim_HTML.html#1,1,1904,946,1920,1080,6-19-2021,16-16-38,131,,,,,,,1789,508,250,501,249,501,feet,3,4,depth_discrimination_stimuli/003587_2014-05-23_16-48-02_094959634447_rgbf002384-resize_2/003587_2014-05-23_16-48-02_094959634447_rgbf002384-resize-original.jpg,11784,2034303,2451813,51
764820,DepthScenes,duration_discrimination,discrim_jsons/d0_dr.json,http://54.173.234.186/DepthDuration/depth_discrimination_MTurk/DepthDiscrim_HTML.html#1,1,1904,946,1920,1080,6-19-2021,16-16-38,132,,,,,,,1789,508,250,501,249,501,feet,2,4,depth_discrimination_stimuli/002748_2014-06-22_19-07-22_094959634447_rgbf000078-resize_1/002748_2014-06-22_19-07-22_094959634447_rgbf000078-resize-original.jpg,10193,2034303,2451813,51
764820,DepthScenes,duration_discrimination,discrim_jsons/d0_dr.json,http://54.173.234.186/DepthDuration/depth_discrimination_MTurk/DepthDiscrim_HTML.html#1,1,1904,946,1920,1080,6-19-2021,16-16-38,133,,,,,,,1789,508,250,501,249,501,feet,2,2,depth_discrimination_stimuli/001056_2014-06-08_18-46-44_260595134347_rgbf000068-resize_0/001056_2014-06-08_18-46-44_260595134347_rgbf000068-resize-original.jpg,6003,2034303,2451813,51
764820,DepthScenes,duration_discrimination,discrim_jsons/d0_dr.json,http://54.173.234.186/DepthDuration/depth_discrimination_MTurk/DepthDiscrim_HTML.html#1,1,1904,946,1920,1080,6-19-2021,16-16-38,134,,,,,,,1789,508,250,501,249,501,feet,1,2,depth_discrimination_stimuli/001555_2014-06-20_17-12-10_260595134347_rgbf000065-resize_4/001555_2014-06-20_17-12-10_260595134347_rgbf000065-resize-original.jpg,9113,2034303,2451813,51
764820,DepthScenes,duration_discrimination,discrim_jsons/d0_dr.json,http://54.173.234.186/DepthDuration/depth_discrimination_MTurk/DepthDiscrim_HTML.html#1,1,1904,946,1920,1080,6-19-2021,16-16-38,135,,,,,,,1789,508,250,501,249,501,feet,2,3,depth_discrimination_stimuli/001100_2014-06-15_17-46-26_260595134347_rgbf000225-resize_2/001100_2014-06-15_17-46-26_260595134347_rgbf000225-resize-original.jpg,6014,2034303,2451813,51
764820,DepthScenes,duration_discrimination,discrim_jsons/d0_dr.json,http://54.173.234.186/DepthDuration/depth_discrimination_MTurk/DepthDiscrim_HTML.html#1,1,1904,946,1920,1080,6-19-2021,16-16-38,136,,,,,,,1789,508,250,501,249,501,feet,2,3,depth_discrimination_stimuli/002344_2014-06-28_20-06-29_260595134347_rgbf000030-resize_1/002344_2014-06-28_20-06-29_260595134347_rgbf000030-resize-original.jpg,7684,2034303,2451813,51
764820,DepthScenes,duration_discrimination,discrim_jsons/d0_dr.json,http://54.173.234.186/DepthDuration/depth_discrimination_MTurk/DepthDiscrim_HTML.html#1,1,1904,946,1920,1080,6-19-2021,16-16-38,137,,,,,,,1789,508,250,501,249,501,feet,2,4,depth_discrimination_stimuli/002568_2014-06-24_13-59-21_094959634447_rgbf000062-resize_4/002568_2014-06-24_13-59-21_094959634447_rgbf000062-resize-original.jpg,7954,2034303,2451813,51
764820,DepthScenes,duration_discrimination,discrim_jsons/d0_dr.json,http://54.173.234.186/DepthDuration/depth_discrimination_MTurk/DepthDiscrim_HTML.html#1,1,1904,946,1920,1080,6-19-2021,16-16-38,138,,,,,,,1789,508,250,501,249,501,feet,2,3,depth_discrimination_stimuli/002464_2014-06-28_20-36-57_260595134347_rgbf000029-resize_0/002464_2014-06-28_20-36-57_260595134347_rgbf000029-resize-original.jpg,11154,2034303,2451813,51
764820,DepthScenes,duration_discrimination,discrim_jsons/d0_dr.json,http://54.173.234.186/DepthDuration/depth_discrimination_MTurk/DepthDiscrim_HTML.html#1,1,1904,946,1920,1080,6-19-2021,16-16-38,139,,,,,,,1789,508,250,501,249,501,feet,2,2,depth_discrimination_stimuli/001066_2014-06-08_22-03-20_260595134347_rgbf000066-resize_4/001066_2014-06-08_22-03-20_260595134347_rgbf000066-resize-original.jpg,9183,2034303,2451813,51
764820,DepthScenes,duration_discrimination,discrim_jsons/d0_dr.json,http://54.173.234.186/DepthDuration/depth_discrimination_MTurk/DepthDiscrim_HTML.html#1,1,1904,946,1920,1080,6-19-2021,16-16-38,140,,,,,,,1789,508,250,501,249,501,feet,1,4,depth_discrimination_stimuli/002905_2014-06-03_18-04-43_094959634447_rgbf000151-resize_2/002905_2014-06-03_18-04-43_094959634447_rgbf000151-resize-original.jpg,8104,2034303,2451813,51
764820,DepthScenes,duration_discrimination,discrim_jsons/d0_dr.json,http://54.173.234.186/DepthDuration/depth_discrimination_MTurk/DepthDiscrim_HTML.html#1,1,1904,946,1920,1080,6-19-2021,16-16-38,141,,,,,,,1789,508,250,501,249,501,feet,1,4,depth_discrimination_stimuli/000810_2014-06-08_17-20-01_260595134347_rgbf000105-resize_0/000810_2014-06-08_17-20-01_260595134347_rgbf000105-resize-original.jpg,4604,2034303,2451813,51
764820,DepthScenes,duration_discrimination,discrim_jsons/d0_dr.json,http://54.173.234.186/DepthDuration/depth_discrimination_MTurk/DepthDiscrim_HTML.html#1,1,1904,946,1920,1080,6-19-2021,16-16-38,142,,,,,,,1789,508,250,501,249,501,feet,2,4,depth_discrimination_stimuli/001197_2014-06-17_16-01-50_260595134347_rgbf000103-resize_4/001197_2014-06-17_16-01-50_260595134347_rgbf000103-resize-original.jpg,6954,2034303,2451813,51
764820,DepthScenes,duration_discrimination,discrim_jsons/d0_dr.json,http://54.173.234.186/DepthDuration/depth_discrimination_MTurk/DepthDiscrim_HTML.html#1,1,1904,946,1920,1080,6-19-2021,16-16-38,143,,,,,,,1789,508,250,501,249,501,feet,2,2,depth_discrimination_stimuli/001532_2014-06-20_16-50-41_260595134347_rgbf000081-resize_4/001532_2014-06-20_16-50-41_260595134347_rgbf000081-resize-original.jpg,9773,2034303,2451813,51
764820,DepthScenes,duration_discrimination,discrim_jsons/d0_dr.json,http://54.173.234.186/DepthDuration/depth_discrimination_MTurk/DepthDiscrim_HTML.html#1,1,1904,946,1920,1080,6-19-2021,16-16-38,144,,,,,,,1789,508,250,501,249,501,feet,2,2,depth_discrimination_stimuli/000854_2014-06-09_19-43-13_260595134347_rgbf000066-resize_0/000854_2014-06-09_19-43-13_260595134347_rgbf000066-resize-original.jpg,4403,2034303,2451813,51
764820,DepthScenes,duration_discrimination,discrim_jsons/d0_dr.json,http://54.173.234.186/DepthDuration/depth_discrimination_MTurk/DepthDiscrim_HTML.html#1,1,1904,946,1920,1080,6-19-2021,16-16-38,145,,,,,,,1789,508,250,501,249,501,feet,2,3,depth_discrimination_stimuli/002039_2014-06-24_20-22-38_260595134347_rgbf000084-resize_1/002039_2014-06-24_20-22-38_260595134347_rgbf000084-resize-original.jpg,4294,2034303,2451813,51
764820,DepthScenes,duration_discrimination,discrim_jsons/d0_dr.json,http://54.173.234.186/DepthDuration/depth_discrimination_MTurk/DepthDiscrim_HTML.html#1,1,1904,946,1920,1080,6-19-2021,16-16-38,146,,,,,,,1789,508,250,501,249,501,feet,2,4,depth_discrimination_stimuli/000502_2014-06-08_23-02-32_260595134347_rgbf000063-resize_4/000502_2014-06-08_23-02-32_260595134347_rgbf000063-resize-original.jpg,5563,2034303,2451813,51
764820,DepthScenes,duration_discrimination,discrim_jsons/d0_dr.json,http://54.173.234.186/DepthDuration/depth_discrimination_MTurk/DepthDiscrim_HTML.html#1,1,1904,946,1920,1080,6-19-2021,16-16-38,147,,,,,,,1789,508,250,501,249,501,feet,2,3,depth_discrimination_stimuli/000436_2014-06-09_22-25-11_260595134347_rgbf000137-resize_1/000436_2014-06-09_22-25-11_260595134347_rgbf000137-resize-original.jpg,5224,2034303,2451813,51
764820,DepthScenes,duration_discrimination,discrim_jsons/d0_dr.json,http://54.173.234.186/DepthDuration/depth_discrimination_MTurk/DepthDiscrim_HTML.html#1,1,1904,946,1920,1080,6-19-2021,16-16-38,148,,,,,,,1789,508,250,501,249,501,feet,2,3,depth_discrimination_stimuli/001136_2014-06-17_15-19-41_260595134347_rgbf000076-resize_3/001136_2014-06-17_15-19-41_260595134347_rgbf000076-resize-original.jpg,5114,2034303,2451813,51
764820,DepthScenes,duration_discrimination,discrim_jsons/d0_dr.json,http://54.173.234.186/DepthDuration/depth_discrimination_MTurk/DepthDiscrim_HTML.html#1,1,1904,946,1920,1080,6-19-2021,16-16-38,149,,,,,,,1789,508,250,501,249,501,feet,2,2,depth_discrimination_stimuli/000665_2014-06-09_20-42-35_260595134347_rgbf000110-resize_1/000665_2014-06-09_20-42-35_260595134347_rgbf000110-resize-original.jpg,12364,2034303,2451813,51
764820,DepthScenes,duration_discrimination,discrim_jsons/d0_dr.json,http://54.173.234.186/DepthDuration/depth_discrimination_MTurk/DepthDiscrim_HTML.html#1,1,1904,946,1920,1080,6-19-2021,16-16-38,150,,,,,,,1789,508,250,501,249,501,feet,2,3,depth_discrimination_stimuli/001167_2014-06-17_15-38-07_260595134347_rgbf000108-resize_0/001167_2014-06-17_15-38-07_260595134347_rgbf000108-resize-original.jpg,7924,2034303,2451813,51
764820,DepthScenes,duration_discrimination,discrim_jsons/d0_dr.json,http://54.173.234.186/DepthDuration/depth_discrimination_MTurk/DepthDiscrim_HTML.html#1,1,1904,946,1920,1080,6-19-2021,16-16-38,151,,,,,,,1789,508,250,501,249,501,feet,2,3,depth_discrimination_stimuli/000749_2014-06-08_21-55-06_260595134347_rgbf000070-resize_2/000749_2014-06-08_21-55-06_260595134347_rgbf000070-resize-original.jpg,9333,2034303,2451813,51
764820,DepthScenes,duration_discrimination,discrim_jsons/d0_dr.json,http://54.173.234.186/DepthDuration/depth_discrimination_MTurk/DepthDiscrim_HTML.html#1,1,1904,946,1920,1080,6-19-2021,16-16-38,152,,,,,,,1789,508,250,501,249,501,feet,1,3,depth_discrimination_stimuli/000878_2014-06-08_22-52-45_260595134347_rgbf000045-resize_2/000878_2014-06-08_22-52-45_260595134347_rgbf000045-resize-original.jpg,10143,2034303,2451813,51
764820,DepthScenes,duration_discrimination,discrim_jsons/d0_dr.json,http://54.173.234.186/DepthDuration/depth_discrimination_MTurk/DepthDiscrim_HTML.html#1,1,1904,946,1920,1080,6-19-2021,16-16-38,153,,,,,,,1789,508,250,501,249,501,feet,2,4,depth_discrimination_stimuli/003534_2014-05-22_15-06-10_094959634447_rgbf000102-resize_4/003534_2014-05-22_15-06-10_094959634447_rgbf000102-resize-original.jpg,14024,2034303,2451813,51
764820,DepthScenes,duration_discrimination,discrim_jsons/d0_dr.json,http://54.173.234.186/DepthDuration/depth_discrimination_MTurk/DepthDiscrim_HTML.html#1,1,1904,946,1920,1080,6-19-2021,16-16-38,154,,,,,,,1789,508,250,501,249,501,feet,2,4,depth_discrimination_stimuli/001188_2014-06-17_15-54-10_260595134347_rgbf000090-resize_2/001188_2014-06-17_15-54-10_260595134347_rgbf000090-resize-original.jpg,5034,2034303,2451813,51
764820,DepthScenes,duration_discrimination,discrim_jsons/d0_dr.json,http://54.173.234.186/DepthDuration/depth_discrimination_MTurk/DepthDiscrim_HTML.html#1,1,1904,946,1920,1080,6-19-2021,16-16-38,155,,,,,,,1789,508,250,501,249,501,feet,3,4,depth_discrimination_stimuli/001815_2014-06-26_20-52-55_260595134347_rgbf000020-resize_0/001815_2014-06-26_20-52-55_260595134347_rgbf000020-resize-original.jpg,11723,2034303,2451813,51
764820,DepthScenes,duration_discrimination,discrim_jsons/d0_dr.json,http://54.173.234.186/DepthDuration/depth_discrimination_MTurk/DepthDiscrim_HTML.html#1,1,1904,946,1920,1080,6-19-2021,16-16-38,156,,,,,,,1789,508,250,501,249,501,feet,4,4,depth_discrimination_stimuli/002570_2014-06-24_13-59-54_094959634447_rgbf000059-resize_0/002570_2014-06-24_13-59-54_094959634447_rgbf000059-resize-original.jpg,9414,2034303,2451813,51
764820,DepthScenes,duration_discrimination,discrim_jsons/d0_dr.json,http://54.173.234.186/DepthDuration/depth_discrimination_MTurk/DepthDiscrim_HTML.html#1,1,1904,946,1920,1080,6-19-2021,16-16-38,157,,,,,,,1789,508,250,501,249,501,feet,2,2,depth_discrimination_stimuli/002987_2014-06-08_18-48-20_094959634447_rgbf000022-resize_0/002987_2014-06-08_18-48-20_094959634447_rgbf000022-resize-original.jpg,7244,2034303,2451813,51
764820,DepthScenes,duration_discrimination,discrim_jsons/d0_dr.json,http://54.173.234.186/DepthDuration/depth_discrimination_MTurk/DepthDiscrim_HTML.html#1,1,1904,946,1920,1080,6-19-2021,16-16-38,158,,,,,,,1789,508,250,501,249,501,feet,2,3,depth_discrimination_stimuli/001617_2014-06-20_11-35-32_260595134347_rgbf000066-resize_1/001617_2014-06-20_11-35-32_260595134347_rgbf000066-resize-original.jpg,5654,2034303,2451813,51
764820,DepthScenes,duration_discrimination,discrim_jsons/d0_dr.json,http://54.173.234.186/DepthDuration/depth_discrimination_MTurk/DepthDiscrim_HTML.html#1,1,1904,946,1920,1080,6-19-2021,16-16-38,159,,,,,,,1789,508,250,501,249,501,feet,1,3,depth_discrimination_stimuli/000866_2014-06-09_20-45-42_260595134347_rgbf000139-resize_1/000866_2014-06-09_20-45-42_260595134347_rgbf000139-resize-original.jpg,4554,2034303,2451813,51
764820,DepthScenes,duration_discrimination,discrim_jsons/d0_dr.json,http://54.173.234.186/DepthDuration/depth_discrimination_MTurk/DepthDiscrim_HTML.html#1,1,1904,946,1920,1080,6-19-2021,16-16-38,160,,,,,,,1789,508,250,501,249,501,feet,2,3,depth_discrimination_stimuli/000636_2014-06-08_16-39-02_260595134347_rgbf000108-resize_4/000636_2014-06-08_16-39-02_260595134347_rgbf000108-resize-original.jpg,6194,2034303,2451813,51
764820,DepthScenes,duration_discrimination,discrim_jsons/d0_dr.json,http://54.173.234.186/DepthDuration/depth_discrimination_MTurk/DepthDiscrim_HTML.html#1,1,1904,946,1920,1080,6-19-2021,16-16-38,161,,,,,,,1789,508,250,501,249,501,feet,1,4,depth_discrimination_stimuli/002784_2014-06-22_19-26-30_094959634447_rgbf000083-resize_3/002784_2014-06-22_19-26-30_094959634447_rgbf000083-resize-original.jpg,7803,2034303,2451813,51
764820,DepthScenes,duration_discrimination,discrim_jsons/d0_dr.json,http://54.173.234.186/DepthDuration/depth_discrimination_MTurk/DepthDiscrim_HTML.html#1,1,1904,946,1920,1080,6-19-2021,16-16-38,162,,,,,,,1789,508,250,501,249,501,feet,2,2,depth_discrimination_stimuli/002579_2014-06-24_14-08-03_094959634447_rgbf000061-resize_2/002579_2014-06-24_14-08-03_094959634447_rgbf000061-resize-original.jpg,7225,2034303,2451813,51
764820,DepthScenes,duration_discrimination,discrim_jsons/d0_dr.json,http://54.173.234.186/DepthDuration/depth_discrimination_MTurk/DepthDiscrim_HTML.html#1,1,1904,946,1920,1080,6-19-2021,16-16-38,163,,,,,,,1789,508,250,501,249,501,feet,2,2,depth_discrimination_stimuli/002305_2014-06-28_19-56-50_260595134347_rgbf000102-resize_7/002305_2014-06-28_19-56-50_260595134347_rgbf000102-resize-original.jpg,10233,2034303,2451813,51
764820,DepthScenes,duration_discrimination,discrim_jsons/d0_dr.json,http://54.173.234.186/DepthDuration/depth_discrimination_MTurk/DepthDiscrim_HTML.html#1,1,1904,946,1920,1080,6-19-2021,16-16-38,164,,,,,,,1789,508,250,501,249,501,feet,2,3,depth_discrimination_stimuli/001808_2014-06-26_20-50-58_260595134347_rgbf000029-resize_1/001808_2014-06-26_20-50-58_260595134347_rgbf000029-resize-original.jpg,4984,2034303,2451813,51
764820,DepthScenes,duration_discrimination,discrim_jsons/d0_dr.json,http://54.173.234.186/DepthDuration/depth_discrimination_MTurk/DepthDiscrim_HTML.html#1,1,1904,946,1920,1080,6-19-2021,16-16-38,165,,,,,,,1789,508,250,501,249,501,feet,2,3,depth_discrimination_stimuli/003288_2014-05-14_21-50-30_094959634447_rgbf000028-resize_3/003288_2014-05-14_21-50-30_094959634447_rgbf000028-resize-original.jpg,8613,2034303,2451813,51
764820,DepthScenes,duration_discrimination,discrim_jsons/d0_dr.json,http://54.173.234.186/DepthDuration/depth_discrimination_MTurk/DepthDiscrim_HTML.html#1,1,1904,946,1920,1080,6-19-2021,16-16-38,166,,,,,,,1789,508,250,501,249,501,feet,3,4,depth_discrimination_stimuli/001724_2014-06-26_19-28-50_260595134347_rgbf000037-resize_7/001724_2014-06-26_19-28-50_260595134347_rgbf000037-resize-original.jpg,11046,2034303,2451813,51
764820,DepthScenes,duration_discrimination,discrim_jsons/d0_dr.json,http://54.173.234.186/DepthDuration/depth_discrimination_MTurk/DepthDiscrim_HTML.html#1,1,1904,946,1920,1080,6-19-2021,16-16-38,167,,,,,,,1789,508,250,501,249,501,feet,2,3,depth_discrimination_stimuli/003228_2014-05-14_13-42-35_094959634447_rgbf000101-resize_1/003228_2014-05-14_13-42-35_094959634447_rgbf000101-resize-original.jpg,8344,2034303,2451813,51
764820,DepthScenes,duration_discrimination,discrim_jsons/d0_dr.json,http://54.173.234.186/DepthDuration/depth_discrimination_MTurk/DepthDiscrim_HTML.html#1,1,1904,946,1920,1080,6-19-2021,16-16-38,168,,,,,,,1789,508,250,501,249,501,feet,2,3,depth_discrimination_stimuli/001094_2014-06-15_17-36-00_260595134347_rgbf000205-resize_0/001094_2014-06-15_17-36-00_260595134347_rgbf000205-resize-original.jpg,6933,2034303,2451813,51
764820,DepthScenes,duration_discrimination,discrim_jsons/d0_dr.json,http://54.173.234.186/DepthDuration/depth_discrimination_MTurk/DepthDiscrim_HTML.html#1,1,1904,946,1920,1080,6-19-2021,16-16-38,169,,,,,,,1789,508,250,501,249,501,feet,2,4,depth_discrimination_stimuli/003083_2014-06-15_15-21-03_094959634447_rgbf000063-resize_1/003083_2014-06-15_15-21-03_094959634447_rgbf000063-resize-original.jpg,6084,2034303,2451813,51
764820,DepthScenes,duration_discrimination,discrim_jsons/d0_dr.json,http://54.173.234.186/DepthDuration/depth_discrimination_MTurk/DepthDiscrim_HTML.html#1,1,1904,946,1920,1080,6-19-2021,16-16-38,170,,,,,,,1789,508,250,501,249,501,feet,3,3,depth_discrimination_stimuli/002323_2014-06-28_20-01-54_260595134347_rgbf000051-resize_4/002323_2014-06-28_20-01-54_260595134347_rgbf000051-resize-original.jpg,10123,2034303,2451813,51
764820,DepthScenes,duration_discrimination,discrim_jsons/d0_dr.json,http://54.173.234.186/DepthDuration/depth_discrimination_MTurk/DepthDiscrim_HTML.html#1,1,1904,946,1920,1080,6-19-2021,16-16-38,171,,,,,,,1789,508,250,501,249,501,feet,2,4,depth_discrimination_stimuli/000469_2014-06-09_19-42-10_260595134347_rgbf000081-resize_1/000469_2014-06-09_19-42-10_260595134347_rgbf000081-resize-original.jpg,9405,2034303,2451813,51
764820,DepthScenes,duration_discrimination,discrim_jsons/d0_dr.json,http://54.173.234.186/DepthDuration/depth_discrimination_MTurk/DepthDiscrim_HTML.html#1,1,1904,946,1920,1080,6-19-2021,16-16-38,172,,,,,,,1789,508,250,501,249,501,feet,2,3,depth_discrimination_stimuli/001235_2014-06-17_16-37-36_260595134347_rgbf000084-resize_4/001235_2014-06-17_16-37-36_260595134347_rgbf000084-resize-original.jpg,10644,2034303,2451813,51
764820,DepthScenes,duration_discrimination,discrim_jsons/d0_dr.json,http://54.173.234.186/DepthDuration/depth_discrimination_MTurk/DepthDiscrim_HTML.html#1,1,1904,946,1920,1080,6-19-2021,16-16-38,173,,,,,,,1789,508,250,501,249,501,feet,2,3,depth_discrimination_stimuli/000506_2014-06-08_23-21-00_260595134347_rgbf000070-resize_7/000506_2014-06-08_23-21-00_260595134347_rgbf000070-resize-original.jpg,5033,2034303,2451813,51
764820,DepthScenes,duration_discrimination,discrim_jsons/d0_dr.json,http://54.173.234.186/DepthDuration/depth_discrimination_MTurk/DepthDiscrim_HTML.html#1,1,1904,946,1920,1080,6-19-2021,16-16-38,174,,,,,,,1789,508,250,501,249,501,feet,2,4,depth_discrimination_stimuli/002545_2014-06-24_13-38-53_094959634447_rgbf000080-resize_4/002545_2014-06-24_13-38-53_094959634447_rgbf000080-resize-original.jpg,5094,2034303,2451813,51
764820,DepthScenes,duration_discrimination,discrim_jsons/d0_dr.json,http://54.173.234.186/DepthDuration/depth_discrimination_MTurk/DepthDiscrim_HTML.html#1,1,1904,946,1920,1080,6-19-2021,16-16-38,175,,,,,,,1789,508,250,501,249,501,feet,2,3,depth_discrimination_stimuli/002460_2014-06-28_20-35-43_260595134347_rgbf000028-resize_4/002460_2014-06-28_20-35-43_260595134347_rgbf000028-resize-original.jpg,5414,2034303,2451813,51
764820,DepthScenes,duration_discrimination,discrim_jsons/d0_dr.json,http://54.173.234.186/DepthDuration/depth_discrimination_MTurk/DepthDiscrim_HTML.html#1,1,1904,946,1920,1080,6-19-2021,16-16-38,176,,,,,,,1789,508,250,501,249,501,feet,2,3,depth_discrimination_stimuli/002700_2014-06-22_11-27-02_094959634447_rgbf000124-resize_3/002700_2014-06-22_11-27-02_094959634447_rgbf000124-resize-original.jpg,7056,2034303,2451813,51
764820,DepthScenes,duration_discrimination,discrim_jsons/d0_dr.json,http://54.173.234.186/DepthDuration/depth_discrimination_MTurk/DepthDiscrim_HTML.html#1,1,1904,946,1920,1080,6-19-2021,16-16-38,177,,,,,,,1789,508,250,501,249,501,feet,2,4,depth_discrimination_stimuli/000493_2014-06-09_21-01-18_260595134347_rgbf000196-resize_3/000493_2014-06-09_21-01-18_260595134347_rgbf000196-resize-original.jpg,8254,2034303,2451813,51
764820,DepthScenes,duration_discrimination,discrim_jsons/d0_dr.json,http://54.173.234.186/DepthDuration/depth_discrimination_MTurk/DepthDiscrim_HTML.html#1,1,1904,946,1920,1080,6-19-2021,16-16-38,178,,,,,,,1789,508,250,501,249,501,feet,2,3,depth_discrimination_stimuli/000542_2014-06-08_18-27-08_260595134347_rgbf000118-resize_1/000542_2014-06-08_18-27-08_260595134347_rgbf000118-resize-original.jpg,7384,2034303,2451813,51
764820,DepthScenes,duration_discrimination,discrim_jsons/d0_dr.json,http://54.173.234.186/DepthDuration/depth_discrimination_MTurk/DepthDiscrim_HTML.html#1,1,1904,946,1920,1080,6-19-2021,16-16-38,179,,,,,,,1789,508,250,501,249,501,feet,2,3,depth_discrimination_stimuli/000470_2014-06-09_19-42-40_260595134347_rgbf000094-resize_1/000470_2014-06-09_19-42-40_260595134347_rgbf000094-resize-original.jpg,9353,2034303,2451813,51
764820,DepthScenes,duration_discrimination,discrim_jsons/d0_dr.json,http://54.173.234.186/DepthDuration/depth_discrimination_MTurk/DepthDiscrim_HTML.html#1,1,1904,946,1920,1080,6-19-2021,16-16-38,180,,,,,,,1789,508,250,501,249,501,feet,1,4,depth_discrimination_stimuli/001016_2014-06-09_16-16-10_260595134347_rgbf000112-resize_5/001016_2014-06-09_16-16-10_260595134347_rgbf000112-resize-original.jpg,6194,2034303,2451813,51
764820,DepthScenes,duration_discrimination,discrim_jsons/d0_dr.json,http://54.173.234.186/DepthDuration/depth_discrimination_MTurk/DepthDiscrim_HTML.html#1,1,1904,946,1920,1080,6-19-2021,16-16-38,181,,,,,,,1789,508,250,501,249,501,feet,2,3,depth_discrimination_stimuli/002340_2014-06-28_20-05-46_260595134347_rgbf000113-resize_0/002340_2014-06-28_20-05-46_260595134347_rgbf000113-resize-original.jpg,4733,2034303,2451813,51
764820,DepthScenes,duration_discrimination,discrim_jsons/d0_dr.json,http://54.173.234.186/DepthDuration/depth_discrimination_MTurk/DepthDiscrim_HTML.html#1,1,1904,946,1920,1080,6-19-2021,16-16-38,182,,,,,,,1789,508,250,501,249,501,feet,2,3,depth_discrimination_stimuli/002949_2014-06-26_15-57-42_094959634447_rgbf000079-resize_1/002949_2014-06-26_15-57-42_094959634447_rgbf000079-resize-original.jpg,10314,2034303,2451813,51
764820,DepthScenes,duration_discrimination,discrim_jsons/d0_dr.json,http://54.173.234.186/DepthDuration/depth_discrimination_MTurk/DepthDiscrim_HTML.html#1,1,1904,946,1920,1080,6-19-2021,16-16-38,183,,,,,,,1789,508,250,501,249,501,feet,2,3,depth_discrimination_stimuli/001055_2014-06-08_18-45-35_260595134347_rgbf000111-resize_4/001055_2014-06-08_18-45-35_260595134347_rgbf000111-resize-original.jpg,8214,2034303,2451813,51
764820,DepthScenes,duration_discrimination,discrim_jsons/d0_dr.json,http://54.173.234.186/DepthDuration/depth_discrimination_MTurk/DepthDiscrim_HTML.html#1,1,1904,946,1920,1080,6-19-2021,16-16-38,184,,,,,,,1789,508,250,501,249,501,feet,2,3,depth_discrimination_stimuli/000742_2014-06-08_18-48-09_260595134347_rgbf000164-resize_4/000742_2014-06-08_18-48-09_260595134347_rgbf000164-resize-original.jpg,7213,2034303,2451813,51
764820,DepthScenes,duration_discrimination,discrim_jsons/d0_dr.json,http://54.173.234.186/DepthDuration/depth_discrimination_MTurk/DepthDiscrim_HTML.html#1,1,1904,946,1920,1080,6-19-2021,16-16-38,185,,,,,,,1789,508,250,501,249,501,feet,1,4,depth_discrimination_stimuli/002875_2014-06-01_15-19-00_094959634447_rgbf000151-resize_1/002875_2014-06-01_15-19-00_094959634447_rgbf000151-resize-original.jpg,16764,2034303,2451813,51
764820,DepthScenes,duration_discrimination,discrim_jsons/d0_dr.json,http://54.173.234.186/DepthDuration/depth_discrimination_MTurk/DepthDiscrim_HTML.html#1,1,1904,946,1920,1080,6-19-2021,16-16-38,186,,,,,,,1789,508,250,501,249,501,feet,3,3,depth_discrimination_stimuli/001052_2014-06-08_18-24-54_260595134347_rgbf000130-resize_1/001052_2014-06-08_18-24-54_260595134347_rgbf000130-resize-original.jpg,8433,2034303,2451813,51
764820,DepthScenes,duration_discrimination,discrim_jsons/d0_dr.json,http://54.173.234.186/DepthDuration/depth_discrimination_MTurk/DepthDiscrim_HTML.html#1,1,1904,946,1920,1080,6-19-2021,16-16-38,187,,,,,,,1789,508,250,501,249,501,feet,2,3,depth_discrimination_stimuli/003490_2014-05-21_15-50-11_094959634447_rgbf000101-resize_3/003490_2014-05-21_15-50-11_094959634447_rgbf000101-resize-original.jpg,6244,2034303,2451813,51
764820,DepthScenes,duration_discrimination,discrim_jsons/d0_dr.json,http://54.173.234.186/DepthDuration/depth_discrimination_MTurk/DepthDiscrim_HTML.html#1,1,1904,946,1920,1080,6-19-2021,16-16-38,188,,,,,,,1789,508,250,501,249,501,feet,2,3,depth_discrimination_stimuli/002153_2014-06-25_21-27-18_260595134347_rgbf000038-resize_5/002153_2014-06-25_21-27-18_260595134347_rgbf000038-resize-original.jpg,12055,2034303,2451813,51
764820,DepthScenes,duration_discrimination,discrim_jsons/d0_dr.json,http://54.173.234.186/DepthDuration/depth_discrimination_MTurk/DepthDiscrim_HTML.html#1,1,1904,946,1920,1080,6-19-2021,16-16-38,189,,,,,,,1789,508,250,501,249,501,feet,2,4,depth_discrimination_stimuli/000917_2014-06-09_22-45-29_260595134347_rgbf000149-resize_3/000917_2014-06-09_22-45-29_260595134347_rgbf000149-resize-original.jpg,4973,2034303,2451813,51
764820,DepthScenes,duration_discrimination,discrim_jsons/d0_dr.json,http://54.173.234.186/DepthDuration/depth_discrimination_MTurk/DepthDiscrim_HTML.html#1,1,1904,946,1920,1080,6-19-2021,16-16-38,190,,,,,,,1789,508,250,501,249,501,feet,2,4,depth_discrimination_stimuli/000734_2014-06-08_17-39-11_260595134347_rgbf000128-resize_2/000734_2014-06-08_17-39-11_260595134347_rgbf000128-resize-original.jpg,9194,2034303,2451813,51
764820,DepthScenes,duration_discrimination,discrim_jsons/d0_dr.json,http://54.173.234.186/DepthDuration/depth_discrimination_MTurk/DepthDiscrim_HTML.html#1,1,1904,946,1920,1080,6-19-2021,16-16-38,191,,,,,,,1789,508,250,501,249,501,feet,3,4,depth_discrimination_stimuli/000556_2014-06-09_22-42-56_260595134347_rgbf000214-resize_1/000556_2014-06-09_22-42-56_260595134347_rgbf000214-resize-original.jpg,5943,2034303,2451813,51
764820,DepthScenes,duration_discrimination,discrim_jsons/d0_dr.json,http://54.173.234.186/DepthDuration/depth_discrimination_MTurk/DepthDiscrim_HTML.html#1,1,1904,946,1920,1080,6-19-2021,16-16-38,192,,,,,,,1789,508,250,501,249,501,feet,2,4,depth_discrimination_stimuli/002425_2014-06-28_20-27-29_260595134347_rgbf000031-resize_8/002425_2014-06-28_20-27-29_260595134347_rgbf000031-resize-original.jpg,4693,2034303,2451813,51
764820,DepthScenes,duration_discrimination,discrim_jsons/d0_dr.json,http://54.173.234.186/DepthDuration/depth_discrimination_MTurk/DepthDiscrim_HTML.html#1,1,1904,946,1920,1080,6-19-2021,16-16-38,193,,,,,,,1789,508,250,501,249,501,feet,2,4,depth_discrimination_stimuli/002805_2014-06-22_19-54-03_094959634447_rgbf000079-resize_1/002805_2014-06-22_19-54-03_094959634447_rgbf000079-resize-original.jpg,5094,2034303,2451813,51
764820,DepthScenes,duration_discrimination,discrim_jsons/d0_dr.json,http://54.173.234.186/DepthDuration/depth_discrimination_MTurk/DepthDiscrim_HTML.html#1,1,1904,946,1920,1080,6-19-2021,16-16-38,194,,,,,,,1789,508,250,501,249,501,feet,2,4,depth_discrimination_stimuli/001214_2014-06-17_16-13-55_260595134347_rgbf000111-resize_0/001214_2014-06-17_16-13-55_260595134347_rgbf000111-resize-original.jpg,7546,2034303,2451813,51
764820,DepthScenes,duration_discrimination,discrim_jsons/d0_dr.json,http://54.173.234.186/DepthDuration/depth_discrimination_MTurk/DepthDiscrim_HTML.html#1,1,1904,946,1920,1080,6-19-2021,16-16-38,195,,,,,,,1789,508,250,501,249,501,feet,1,3,depth_discrimination_stimuli/002763_2014-06-22_19-13-10_094959634447_rgbf000075-resize_4/002763_2014-06-22_19-13-10_094959634447_rgbf000075-resize-original.jpg,7744,2034303,2451813,51
764820,DepthScenes,duration_discrimination,discrim_jsons/d0_dr.json,http://54.173.234.186/DepthDuration/depth_discrimination_MTurk/DepthDiscrim_HTML.html#1,1,1904,946,1920,1080,6-19-2021,16-16-38,196,,,,,,,1789,508,250,501,249,501,feet,2,3,depth_discrimination_stimuli/001199_2014-06-17_16-03-48_260595134347_rgbf000077-resize_0/001199_2014-06-17_16-03-48_260595134347_rgbf000077-resize-original.jpg,4373,2034303,2451813,51
