subjID,experimentName,versionName,sequenceName,url,selected_row,windowWidth,windowHeight,screenWidth,screenHeight,startDate,startTime,trial,stimulus_0,stimulus_1,duration,actual_depth_0,actual_depth_1,discrim_choice,trial_RT,log_fixation,log_sceneDuration1,log_mask1,log_sceneDuration2,log_mask2,unitSelection,meanDepth_rating,navigability_rating,rated_stimulus,rating_RT,experimentTime,totalTime,age
768539,DepthScenes,duration_discrimination,discrim_jsons/d0.json,http://54.173.234.186/DepthDuration/depth_discrimination_MTurk/DepthDiscrim_HTML.html#4,4,1536,864,1536,864,6-19-2021,15-12-35,1,depth_discrimination_stimuli/002444_2014-06-28_20-32-08_260595134347_rgbf000027-resize_0/002444_2014-06-28_20-32-08_260595134347_rgbf000027-resize_0-target.png,depth_discrimination_stimuli/003048_2014-06-15_13-49-43_094959634447_rgbf000150-resize_1/003048_2014-06-15_13-49-43_094959634447_rgbf000150-resize_1-target.png,1000,4.389,4.0035,0,1781,515,987,503,1000,497,feet,,,,,1475661,1586674,64
768539,DepthScenes,duration_discrimination,discrim_jsons/d0.json,http://54.173.234.186/DepthDuration/depth_discrimination_MTurk/DepthDiscrim_HTML.html#4,4,1536,864,1536,864,6-19-2021,15-12-35,2,depth_discrimination_stimuli/000469_2014-06-09_19-42-10_260595134347_rgbf000081-resize_1/000469_2014-06-09_19-42-10_260595134347_rgbf000081-resize_1-target.png,depth_discrimination_stimuli/002136_2014-06-25_21-18-03_260595134347_rgbf000109-resize_3/002136_2014-06-25_21-18-03_260595134347_rgbf000109-resize_3-target.png,250,1.652,1.957,1,1518,516,250,497,239,511,feet,,,,,1475661,1586674,64
768539,DepthScenes,duration_discrimination,discrim_jsons/d0.json,http://54.173.234.186/DepthDuration/depth_discrimination_MTurk/DepthDiscrim_HTML.html#4,4,1536,864,1536,864,6-19-2021,15-12-35,3,depth_discrimination_stimuli/000692_2014-06-08_13-09-42_260595134347_rgbf000199-resize_2/000692_2014-06-08_13-09-42_260595134347_rgbf000199-resize_2-target.png,depth_discrimination_stimuli/002103_2014-06-25_20-00-40_260595134347_rgbf000049-resize_0/002103_2014-06-25_20-00-40_260595134347_rgbf000049-resize_0-target.png,250,3.661,4.105,1,960,503,263,486,254,503,feet,,,,,1475661,1586674,64
768539,DepthScenes,duration_discrimination,discrim_jsons/d0.json,http://54.173.234.186/DepthDuration/depth_discrimination_MTurk/DepthDiscrim_HTML.html#4,4,1536,864,1536,864,6-19-2021,15-12-35,4,depth_discrimination_stimuli/001450_2014-06-19_17-02-03_260595134347_rgbf000203-resize_4/001450_2014-06-19_17-02-03_260595134347_rgbf000203-resize_4-target.png,depth_discrimination_stimuli/002039_2014-06-24_20-22-38_260595134347_rgbf000084-resize_1/002039_2014-06-24_20-22-38_260595134347_rgbf000084-resize_1-target.png,250,4.0106666666667,4.408,1,1619,514,248,502,248,489,feet,,,,,1475661,1586674,64
768539,DepthScenes,duration_discrimination,discrim_jsons/d0.json,http://54.173.234.186/DepthDuration/depth_discrimination_MTurk/DepthDiscrim_HTML.html#4,4,1536,864,1536,864,6-19-2021,15-12-35,5,depth_discrimination_stimuli/000691_2014-06-08_13-08-50_260595134347_rgbf000132-resize_3/000691_2014-06-08_13-08-50_260595134347_rgbf000132-resize_3-target.png,depth_discrimination_stimuli/000137_2014-05-20_17-04-49_260595134347_rgbf000120-resize_1/000137_2014-05-20_17-04-49_260595134347_rgbf000120-resize_1-target.png,250,4.153,3.786,1,966,513,237,502,248,516,feet,,,,,1475661,1586674,64
768539,DepthScenes,duration_discrimination,discrim_jsons/d0.json,http://54.173.234.186/DepthDuration/depth_discrimination_MTurk/DepthDiscrim_HTML.html#4,4,1536,864,1536,864,6-19-2021,15-12-35,6,depth_discrimination_stimuli/002445_2014-06-28_20-32-16_260595134347_rgbf000029-resize_4/002445_2014-06-28_20-32-16_260595134347_rgbf000029-resize_4-target.png,depth_discrimination_stimuli/002043_2014-06-24_20-29-38_260595134347_rgbf000039-resize_4/002043_2014-06-24_20-29-38_260595134347_rgbf000039-resize_4-target.png,250,2.5315,2.8435,0,1322,516,235,503,254,496,feet,,,,,1475661,1586674,64
768539,DepthScenes,duration_discrimination,discrim_jsons/d0.json,http://54.173.234.186/DepthDuration/depth_discrimination_MTurk/DepthDiscrim_HTML.html#4,4,1536,864,1536,864,6-19-2021,15-12-35,7,depth_discrimination_stimuli/001808_2014-06-26_20-50-58_260595134347_rgbf000029-resize_1/001808_2014-06-26_20-50-58_260595134347_rgbf000029-resize_1-target.png,depth_discrimination_stimuli/003621_2014-05-23_18-06-08_094959634447_rgbf000101-resize_1/003621_2014-05-23_18-06-08_094959634447_rgbf000101-resize_1-target.png,250,4.249,3.9835,1,1662,513,239,510,252,493,feet,,,,,1475661,1586674,64
768539,DepthScenes,duration_discrimination,discrim_jsons/d0.json,http://54.173.234.186/DepthDuration/depth_discrimination_MTurk/DepthDiscrim_HTML.html#4,4,1536,864,1536,864,6-19-2021,15-12-35,8,depth_discrimination_stimuli/002639_2014-06-24_14-51-37_094959634447_rgbf000074-resize_4/002639_2014-06-24_14-51-37_094959634447_rgbf000074-resize_4-target.png,depth_discrimination_stimuli/001132_2014-06-17_14-48-54_260595134347_rgbf000100-resize_2/001132_2014-06-17_14-48-54_260595134347_rgbf000100-resize_2-target.png,1000,4.0375,3.753,0,1521,513,990,498,1012,488,feet,,,,,1475661,1586674,64
768539,DepthScenes,duration_discrimination,discrim_jsons/d0.json,http://54.173.234.186/DepthDuration/depth_discrimination_MTurk/DepthDiscrim_HTML.html#4,4,1536,864,1536,864,6-19-2021,15-12-35,9,depth_discrimination_stimuli/003587_2014-05-23_16-48-02_094959634447_rgbf002384-resize_2/003587_2014-05-23_16-48-02_094959634447_rgbf002384-resize_2-target.png,depth_discrimination_stimuli/000709_2014-06-08_13-51-55_260595134347_rgbf000068-resize_3/000709_2014-06-08_13-51-55_260595134347_rgbf000068-resize_3-target.png,250,1.357,1.803,0,1348,511,254,496,249,491,feet,,,,,1475661,1586674,64
768539,DepthScenes,duration_discrimination,discrim_jsons/d0.json,http://54.173.234.186/DepthDuration/depth_discrimination_MTurk/DepthDiscrim_HTML.html#4,4,1536,864,1536,864,6-19-2021,15-12-35,10,depth_discrimination_stimuli/000635_2014-06-08_16-38-42_260595134347_rgbf000106-resize_1/000635_2014-06-08_16-38-42_260595134347_rgbf000106-resize_1-target.png,depth_discrimination_stimuli/001516_2014-06-20_16-25-09_260595134347_rgbf000076-resize_2/001516_2014-06-20_16-25-09_260595134347_rgbf000076-resize_2-target.png,1000,2.074,1.7445,1,2114,504,999,501,1011,489,feet,,,,,1475661,1586674,64
768539,DepthScenes,duration_discrimination,discrim_jsons/d0.json,http://54.173.234.186/DepthDuration/depth_discrimination_MTurk/DepthDiscrim_HTML.html#4,4,1536,864,1536,864,6-19-2021,15-12-35,11,depth_discrimination_stimuli/002579_2014-06-24_14-08-03_094959634447_rgbf000061-resize_2/002579_2014-06-24_14-08-03_094959634447_rgbf000061-resize_2-target.png,depth_discrimination_stimuli/002468_2014-06-28_20-38-39_260595134347_rgbf000045-resize_1/002468_2014-06-28_20-38-39_260595134347_rgbf000045-resize_1-target.png,250,2.223125,1.956,0,1295,514,249,489,252,499,feet,,,,,1475661,1586674,64
768539,DepthScenes,duration_discrimination,discrim_jsons/d0.json,http://54.173.234.186/DepthDuration/depth_discrimination_MTurk/DepthDiscrim_HTML.html#4,4,1536,864,1536,864,6-19-2021,15-12-35,12,depth_discrimination_stimuli/002784_2014-06-22_19-26-30_094959634447_rgbf000083-resize_3/002784_2014-06-22_19-26-30_094959634447_rgbf000083-resize_3-target.png,depth_discrimination_stimuli/001532_2014-06-20_16-50-41_260595134347_rgbf000081-resize_4/001532_2014-06-20_16-50-41_260595134347_rgbf000081-resize_4-target.png,1000,1.8046666666667,1.5758333333333,1,1722,501,1005,509,991,499,feet,,,,,1475661,1586674,64
768539,DepthScenes,duration_discrimination,discrim_jsons/d0.json,http://54.173.234.186/DepthDuration/depth_discrimination_MTurk/DepthDiscrim_HTML.html#4,4,1536,864,1536,864,6-19-2021,15-12-35,13,depth_discrimination_stimuli/002279_2014-06-28_18-55-32_260595134347_rgbf000040-resize_5/002279_2014-06-28_18-55-32_260595134347_rgbf000040-resize_5-target.png,depth_discrimination_stimuli/002949_2014-06-26_15-57-42_094959634447_rgbf000079-resize_1/002949_2014-06-26_15-57-42_094959634447_rgbf000079-resize_1-target.png,1000,1.5043333333333,1.8915,0,1972,501,1003,497,1014,488,feet,,,,,1475661,1586674,64
768539,DepthScenes,duration_discrimination,discrim_jsons/d0.json,http://54.173.234.186/DepthDuration/depth_discrimination_MTurk/DepthDiscrim_HTML.html#4,4,1536,864,1536,864,6-19-2021,15-12-35,14,depth_discrimination_stimuli/001449_2014-06-19_17-01-27_260595134347_rgbf000116-resize_2/001449_2014-06-19_17-01-27_260595134347_rgbf000116-resize_2-target.png,depth_discrimination_stimuli/002630_2014-06-24_14-47-50_094959634447_rgbf000055-resize_1/002630_2014-06-24_14-47-50_094959634447_rgbf000055-resize_1-target.png,250,3.452,3.0095,0,1418,513,238,513,251,499,feet,,,,,1475661,1586674,64
768539,DepthScenes,duration_discrimination,discrim_jsons/d0.json,http://54.173.234.186/DepthDuration/depth_discrimination_MTurk/DepthDiscrim_HTML.html#4,4,1536,864,1536,864,6-19-2021,15-12-35,15,depth_discrimination_stimuli/002460_2014-06-28_20-35-43_260595134347_rgbf000028-resize_4/002460_2014-06-28_20-35-43_260595134347_rgbf000028-resize_4-target.png,depth_discrimination_stimuli/001806_2014-06-26_20-50-20_260595134347_rgbf000091-resize_1/001806_2014-06-26_20-50-20_260595134347_rgbf000091-resize_1-target.png,1000,2.269,2.7305,0,1859,501,1012,501,996,506,feet,,,,,1475661,1586674,64
768539,DepthScenes,duration_discrimination,discrim_jsons/d0.json,http://54.173.234.186/DepthDuration/depth_discrimination_MTurk/DepthDiscrim_HTML.html#4,4,1536,864,1536,864,6-19-2021,15-12-35,16,depth_discrimination_stimuli/000409_2014-06-04_19-23-33_260595134347_rgbf000067-resize_0/000409_2014-06-04_19-23-33_260595134347_rgbf000067-resize_0-target.png,depth_discrimination_stimuli/002464_2014-06-28_20-36-57_260595134347_rgbf000029-resize_0/002464_2014-06-28_20-36-57_260595134347_rgbf000029-resize_0-target.png,1000,3.7335,3.9525,1,1826,503,1009,496,998,498,feet,,,,,1475661,1586674,64
768539,DepthScenes,duration_discrimination,discrim_jsons/d0.json,http://54.173.234.186/DepthDuration/depth_discrimination_MTurk/DepthDiscrim_HTML.html#4,4,1536,864,1536,864,6-19-2021,15-12-35,17,depth_discrimination_stimuli/001555_2014-06-20_17-12-10_260595134347_rgbf000065-resize_4/001555_2014-06-20_17-12-10_260595134347_rgbf000065-resize_4-target.png,depth_discrimination_stimuli/000943_2014-06-09_19-31-07_260595134347_rgbf000128-resize_1/000943_2014-06-09_19-31-07_260595134347_rgbf000128-resize_1-target.png,1000,1.633,1.9765,0,1606,503,1006,504,990,498,feet,,,,,1475661,1586674,64
768539,DepthScenes,duration_discrimination,discrim_jsons/d0.json,http://54.173.234.186/DepthDuration/depth_discrimination_MTurk/DepthDiscrim_HTML.html#4,4,1536,864,1536,864,6-19-2021,15-12-35,18,depth_discrimination_stimuli/002509_2014-06-24_13-19-22_094959634447_rgbf000077-resize_0/002509_2014-06-24_13-19-22_094959634447_rgbf000077-resize_0-target.png,depth_discrimination_stimuli/002344_2014-06-28_20-06-29_260595134347_rgbf000030-resize_1/002344_2014-06-28_20-06-29_260595134347_rgbf000030-resize_1-target.png,250,1.3065,1.5795,1,1465,506,254,491,251,499,feet,,,,,1475661,1586674,64
768539,DepthScenes,duration_discrimination,discrim_jsons/d0.json,http://54.173.234.186/DepthDuration/depth_discrimination_MTurk/DepthDiscrim_HTML.html#4,4,1536,864,1536,864,6-19-2021,15-12-35,19,depth_discrimination_stimuli/002467_2014-06-28_20-38-07_260595134347_rgbf000026-resize_2/002467_2014-06-28_20-38-07_260595134347_rgbf000026-resize_2-target.png,depth_discrimination_stimuli/001175_2014-06-17_15-45-55_260595134347_rgbf000129-resize_4/001175_2014-06-17_15-45-55_260595134347_rgbf000129-resize_4-target.png,1000,4.742,4.255,0,1929,503,998,509,995,505,feet,,,,,1475661,1586674,64
768539,DepthScenes,duration_discrimination,discrim_jsons/d0.json,http://54.173.234.186/DepthDuration/depth_discrimination_MTurk/DepthDiscrim_HTML.html#4,4,1536,864,1536,864,6-19-2021,15-12-35,20,depth_discrimination_stimuli/001100_2014-06-15_17-46-26_260595134347_rgbf000225-resize_2/001100_2014-06-15_17-46-26_260595134347_rgbf000225-resize_2-target.png,depth_discrimination_stimuli/002131_2014-06-25_21-12-01_260595134347_rgbf000083-resize_0/002131_2014-06-25_21-12-01_260595134347_rgbf000083-resize_0-target.png,1000,2.24,1.7685,0,1996,509,1004,498,1002,489,feet,,,,,1475661,1586674,64
768539,DepthScenes,duration_discrimination,discrim_jsons/d0.json,http://54.173.234.186/DepthDuration/depth_discrimination_MTurk/DepthDiscrim_HTML.html#4,4,1536,864,1536,864,6-19-2021,15-12-35,21,depth_discrimination_stimuli/003395_2014-05-20_15-39-18_094959634447_rgbf000101-resize_0/003395_2014-05-20_15-39-18_094959634447_rgbf000101-resize_0-target.png,depth_discrimination_stimuli/001540_2014-06-20_17-01-05_260595134347_rgbf000086-resize_2/001540_2014-06-20_17-01-05_260595134347_rgbf000086-resize_2-target.png,250,4.835,1.459,1,1297,512,253,487,249,515,feet,,,,,1475661,1586674,64
768539,DepthScenes,duration_discrimination,discrim_jsons/d0.json,http://54.173.234.186/DepthDuration/depth_discrimination_MTurk/DepthDiscrim_HTML.html#4,4,1536,864,1536,864,6-19-2021,15-12-35,22,depth_discrimination_stimuli/000454_2014-06-08_16-37-28_260595134347_rgbf000048-resize_2/000454_2014-06-08_16-37-28_260595134347_rgbf000048-resize_2-target.png,depth_discrimination_stimuli/000375_2014-06-08_11-17-29_260595134347_rgbf000133-resize_2/000375_2014-06-08_11-17-29_260595134347_rgbf000133-resize_2-target.png,1000,1.213,4.718,0,2050,504,1006,497,1009,494,feet,,,,,1475661,1586674,64
768539,DepthScenes,duration_discrimination,discrim_jsons/d0.json,http://54.173.234.186/DepthDuration/depth_discrimination_MTurk/DepthDiscrim_HTML.html#4,4,1536,864,1536,864,6-19-2021,15-12-35,23,depth_discrimination_stimuli/000734_2014-06-08_17-39-11_260595134347_rgbf000128-resize_2/000734_2014-06-08_17-39-11_260595134347_rgbf000128-resize_2-target.png,depth_discrimination_stimuli/001148_2014-06-17_15-26-42_260595134347_rgbf000129-resize_0/001148_2014-06-17_15-26-42_260595134347_rgbf000129-resize_0-target.png,250,4.098,4.368,0,1677,504,247,503,247,512,feet,,,,,1475661,1586674,64
768539,DepthScenes,duration_discrimination,discrim_jsons/d0.json,http://54.173.234.186/DepthDuration/depth_discrimination_MTurk/DepthDiscrim_HTML.html#4,4,1536,864,1536,864,6-19-2021,15-12-35,24,depth_discrimination_stimuli/002549_2014-06-24_13-41-39_094959634447_rgbf000022-resize_3/002549_2014-06-24_13-41-39_094959634447_rgbf000022-resize_3-target.png,depth_discrimination_stimuli/002545_2014-06-24_13-38-53_094959634447_rgbf000080-resize_4/002545_2014-06-24_13-38-53_094959634447_rgbf000080-resize_4-target.png,250,1.476,1.9205,0,1599,505,246,503,259,488,feet,,,,,1475661,1586674,64
768539,DepthScenes,duration_discrimination,discrim_jsons/d0.json,http://54.173.234.186/DepthDuration/depth_discrimination_MTurk/DepthDiscrim_HTML.html#4,4,1536,864,1536,864,6-19-2021,15-12-35,25,depth_discrimination_stimuli/002657_2014-06-13_15-29-54_094959634447_rgbf000150-resize_1/002657_2014-06-13_15-29-54_094959634447_rgbf000150-resize_1-target.png,depth_discrimination_stimuli/002748_2014-06-22_19-07-22_094959634447_rgbf000078-resize_1/002748_2014-06-22_19-07-22_094959634447_rgbf000078-resize_1-target.png,250,4.919,4.6705,1,1948,503,249,512,237,515,feet,,,,,1475661,1586674,64
768539,DepthScenes,duration_discrimination,discrim_jsons/d0.json,http://54.173.234.186/DepthDuration/depth_discrimination_MTurk/DepthDiscrim_HTML.html#4,4,1536,864,1536,864,6-19-2021,15-12-35,26,depth_discrimination_stimuli/002323_2014-06-28_20-01-54_260595134347_rgbf000051-resize_4/002323_2014-06-28_20-01-54_260595134347_rgbf000051-resize_4-target.png,depth_discrimination_stimuli/000736_2014-06-08_18-24-15_260595134347_rgbf000206-resize_3/000736_2014-06-08_18-24-15_260595134347_rgbf000206-resize_3-target.png,250,3.731,3.515,1,2384,516,234,504,251,496,feet,,,,,1475661,1586674,64
768539,DepthScenes,duration_discrimination,discrim_jsons/d0.json,http://54.173.234.186/DepthDuration/depth_discrimination_MTurk/DepthDiscrim_HTML.html#4,4,1536,864,1536,864,6-19-2021,15-12-35,27,depth_discrimination_stimuli/000749_2014-06-08_21-55-06_260595134347_rgbf000070-resize_2/000749_2014-06-08_21-55-06_260595134347_rgbf000070-resize_2-target.png,depth_discrimination_stimuli/002875_2014-06-01_15-19-00_094959634447_rgbf000151-resize_1/002875_2014-06-01_15-19-00_094959634447_rgbf000151-resize_1-target.png,250,2.331,1.9675,1,1714,510,251,494,255,500,feet,,,,,1475661,1586674,64
768539,DepthScenes,duration_discrimination,discrim_jsons/d0.json,http://54.173.234.186/DepthDuration/depth_discrimination_MTurk/DepthDiscrim_HTML.html#4,4,1536,864,1536,864,6-19-2021,15-12-35,28,depth_discrimination_stimuli/000735_2014-06-08_18-23-50_260595134347_rgbf000163-resize_2/000735_2014-06-08_18-23-50_260595134347_rgbf000163-resize_2-target.png,depth_discrimination_stimuli/003288_2014-05-14_21-50-30_094959634447_rgbf000028-resize_3/003288_2014-05-14_21-50-30_094959634447_rgbf000028-resize_3-target.png,250,4.1695,3.877,0,1931,516,248,502,237,499,feet,,,,,1475661,1586674,64
768539,DepthScenes,duration_discrimination,discrim_jsons/d0.json,http://54.173.234.186/DepthDuration/depth_discrimination_MTurk/DepthDiscrim_HTML.html#4,4,1536,864,1536,864,6-19-2021,15-12-35,29,depth_discrimination_stimuli/002375_2014-06-28_20-13-44_260595134347_rgbf000032-resize_1/002375_2014-06-28_20-13-44_260595134347_rgbf000032-resize_1-target.png,depth_discrimination_stimuli/001570_2014-06-20_17-21-09_260595134347_rgbf000135-resize_4/001570_2014-06-20_17-21-09_260595134347_rgbf000135-resize_4-target.png,250,4.0175,4.467,0,1600,505,247,500,249,501,feet,,,,,1475661,1586674,64
768539,DepthScenes,duration_discrimination,discrim_jsons/d0.json,http://54.173.234.186/DepthDuration/depth_discrimination_MTurk/DepthDiscrim_HTML.html#4,4,1536,864,1536,864,6-19-2021,15-12-35,30,depth_discrimination_stimuli/000457_2014-06-08_16-52-43_260595134347_rgbf000199-resize_1/000457_2014-06-08_16-52-43_260595134347_rgbf000199-resize_1-target.png,depth_discrimination_stimuli/002365_2014-06-28_20-11-21_260595134347_rgbf000102-resize_1/002365_2014-06-28_20-11-21_260595134347_rgbf000102-resize_1-target.png,1000,3.649,4.013,0,1751,513,997,500,994,510,feet,,,,,1475661,1586674,64
768539,DepthScenes,duration_discrimination,discrim_jsons/d0.json,http://54.173.234.186/DepthDuration/depth_discrimination_MTurk/DepthDiscrim_HTML.html#4,4,1536,864,1536,864,6-19-2021,15-12-35,31,depth_discrimination_stimuli/002700_2014-06-22_11-27-02_094959634447_rgbf000124-resize_3/002700_2014-06-22_11-27-02_094959634447_rgbf000124-resize_3-target.png,depth_discrimination_stimuli/000800_2014-06-08_22-42-09_260595134347_rgbf000095-resize_3/000800_2014-06-08_22-42-09_260595134347_rgbf000095-resize_3-target.png,1000,3.301,2.8,0,3056,507,1009,490,1006,499,feet,,,,,1475661,1586674,64
768539,DepthScenes,duration_discrimination,discrim_jsons/d0.json,http://54.173.234.186/DepthDuration/depth_discrimination_MTurk/DepthDiscrim_HTML.html#4,4,1536,864,1536,864,6-19-2021,15-12-35,32,depth_discrimination_stimuli/001170_2014-06-17_15-43-44_260595134347_rgbf000096-resize_6/001170_2014-06-17_15-43-44_260595134347_rgbf000096-resize_6-target.png,depth_discrimination_stimuli/002364_2014-06-28_20-11-05_260595134347_rgbf000042-resize_0/002364_2014-06-28_20-11-05_260595134347_rgbf000042-resize_0-target.png,1000,1.191,4.682,0,1669,514,995,493,1006,495,feet,,,,,1475661,1586674,64
768539,DepthScenes,duration_discrimination,discrim_jsons/d0.json,http://54.173.234.186/DepthDuration/depth_discrimination_MTurk/DepthDiscrim_HTML.html#4,4,1536,864,1536,864,6-19-2021,15-12-35,33,depth_discrimination_stimuli/001016_2014-06-09_16-16-10_260595134347_rgbf000112-resize_5/001016_2014-06-09_16-16-10_260595134347_rgbf000112-resize_5-target.png,depth_discrimination_stimuli/001618_2014-06-20_11-37-31_260595134347_rgbf000027-resize_3/001618_2014-06-20_11-37-31_260595134347_rgbf000027-resize_3-target.png,250,1.6565,1.8725,0,1616,504,249,498,250,502,feet,,,,,1475661,1586674,64
768539,DepthScenes,duration_discrimination,discrim_jsons/d0.json,http://54.173.234.186/DepthDuration/depth_discrimination_MTurk/DepthDiscrim_HTML.html#4,4,1536,864,1536,864,6-19-2021,15-12-35,34,depth_discrimination_stimuli/003081_2014-06-15_15-19-16_094959634447_rgbf000150-resize_1/003081_2014-06-15_15-19-16_094959634447_rgbf000150-resize_1-target.png,depth_discrimination_stimuli/000917_2014-06-09_22-45-29_260595134347_rgbf000149-resize_3/000917_2014-06-09_22-45-29_260595134347_rgbf000149-resize_3-target.png,250,3.9125,4.1865,1,1430,514,249,499,249,500,feet,,,,,1475661,1586674,64
768539,DepthScenes,duration_discrimination,discrim_jsons/d0.json,http://54.173.234.186/DepthDuration/depth_discrimination_MTurk/DepthDiscrim_HTML.html#4,4,1536,864,1536,864,6-19-2021,15-12-35,35,depth_discrimination_stimuli/001059_2014-06-08_21-53-27_260595134347_rgbf000061-resize_4/001059_2014-06-08_21-53-27_260595134347_rgbf000061-resize_4-target.png,depth_discrimination_stimuli/000906_2014-06-08_13-35-43_260595134347_rgbf000155-resize_1/000906_2014-06-08_13-35-43_260595134347_rgbf000155-resize_1-target.png,250,2.4185,2.849,0,1494,510,242,506,248,507,feet,,,,,1475661,1586674,64
768539,DepthScenes,duration_discrimination,discrim_jsons/d0.json,http://54.173.234.186/DepthDuration/depth_discrimination_MTurk/DepthDiscrim_HTML.html#4,4,1536,864,1536,864,6-19-2021,15-12-35,36,depth_discrimination_stimuli/002988_2014-06-15_12-24-20_094959634447_rgbf000150-resize_1/002988_2014-06-15_12-24-20_094959634447_rgbf000150-resize_1-target.png,depth_discrimination_stimuli/000447_2014-06-08_16-15-46_260595134347_rgbf000130-resize_1/000447_2014-06-08_16-15-46_260595134347_rgbf000130-resize_1-target.png,1000,4.767,4.479,0,2213,504,1011,486,1002,510,feet,,,,,1475661,1586674,64
768539,DepthScenes,duration_discrimination,discrim_jsons/d0.json,http://54.173.234.186/DepthDuration/depth_discrimination_MTurk/DepthDiscrim_HTML.html#4,4,1536,864,1536,864,6-19-2021,15-12-35,37,depth_discrimination_stimuli/001164_2014-06-17_15-35-46_260595134347_rgbf000085-resize_3/001164_2014-06-17_15-35-46_260595134347_rgbf000085-resize_3-target.png,depth_discrimination_stimuli/003228_2014-05-14_13-42-35_094959634447_rgbf000101-resize_1/003228_2014-05-14_13-42-35_094959634447_rgbf000101-resize_1-target.png,250,2.354,1.968,1,958,513,247,504,246,491,feet,,,,,1475661,1586674,64
768539,DepthScenes,duration_discrimination,discrim_jsons/d0.json,http://54.173.234.186/DepthDuration/depth_discrimination_MTurk/DepthDiscrim_HTML.html#4,4,1536,864,1536,864,6-19-2021,15-12-35,38,depth_discrimination_stimuli/000739_2014-06-08_18-45-58_260595134347_rgbf000068-resize_1/000739_2014-06-08_18-45-58_260595134347_rgbf000068-resize_1-target.png,depth_discrimination_stimuli/002995_2014-06-15_12-31-26_094959634447_rgbf000150-resize_1/002995_2014-06-15_12-31-26_094959634447_rgbf000150-resize_1-target.png,1000,3.534,3.836,0,1719,503,1003,508,989,498,feet,,,,,1475661,1586674,64
768539,DepthScenes,duration_discrimination,discrim_jsons/d0.json,http://54.173.234.186/DepthDuration/depth_discrimination_MTurk/DepthDiscrim_HTML.html#4,4,1536,864,1536,864,6-19-2021,15-12-35,39,depth_discrimination_stimuli/001092_2014-06-15_17-34-58_260595134347_rgbf000171-resize_3/001092_2014-06-15_17-34-58_260595134347_rgbf000171-resize_3-target.png,depth_discrimination_stimuli/000522_2014-06-08_13-35-06_260595134347_rgbf000244-resize_1/000522_2014-06-08_13-35-06_260595134347_rgbf000244-resize_1-target.png,250,2.6935,2.3715,1,1494,507,248,508,249,493,feet,,,,,1475661,1586674,64
768539,DepthScenes,duration_discrimination,discrim_jsons/d0.json,http://54.173.234.186/DepthDuration/depth_discrimination_MTurk/DepthDiscrim_HTML.html#4,4,1536,864,1536,864,6-19-2021,15-12-35,40,depth_discrimination_stimuli/003534_2014-05-22_15-06-10_094959634447_rgbf000102-resize_4/003534_2014-05-22_15-06-10_094959634447_rgbf000102-resize_4-target.png,depth_discrimination_stimuli/002272_2014-06-28_18-53-56_260595134347_rgbf000067-resize_2/002272_2014-06-28_18-53-56_260595134347_rgbf000067-resize_2-target.png,1000,1.426,1.138,1,2260,512,1002,490,1001,510,feet,,,,,1475661,1586674,64
768539,DepthScenes,duration_discrimination,discrim_jsons/d0.json,http://54.173.234.186/DepthDuration/depth_discrimination_MTurk/DepthDiscrim_HTML.html#4,4,1536,864,1536,864,6-19-2021,15-12-35,41,depth_discrimination_stimuli/003546_2014-05-22_15-48-53_094959634447_rgbf004816-resize_3/003546_2014-05-22_15-48-53_094959634447_rgbf004816-resize_3-target.png,depth_discrimination_stimuli/003010_2014-06-15_12-54-35_094959634447_rgbf000112-resize_0/003010_2014-06-15_12-54-35_094959634447_rgbf000112-resize_0-target.png,1000,2.62625,3.1185,0,2318,500,1003,505,1000,493,feet,,,,,1475661,1586674,64
768539,DepthScenes,duration_discrimination,discrim_jsons/d0.json,http://54.173.234.186/DepthDuration/depth_discrimination_MTurk/DepthDiscrim_HTML.html#4,4,1536,864,1536,864,6-19-2021,15-12-35,42,depth_discrimination_stimuli/002953_2014-06-08_17-32-18_094959634447_rgbf000059-resize_5/002953_2014-06-08_17-32-18_094959634447_rgbf000059-resize_5-target.png,depth_discrimination_stimuli/001571_2014-06-20_17-21-32_260595134347_rgbf000089-resize_1/001571_2014-06-20_17-21-32_260595134347_rgbf000089-resize_1-target.png,1000,1.551,1.86,1,1791,507,1005,497,1005,501,feet,,,,,1475661,1586674,64
768539,DepthScenes,duration_discrimination,discrim_jsons/d0.json,http://54.173.234.186/DepthDuration/depth_discrimination_MTurk/DepthDiscrim_HTML.html#4,4,1536,864,1536,864,6-19-2021,15-12-35,43,depth_discrimination_stimuli/000682_2014-06-08_23-14-58_260595134347_rgbf000041-resize_5/000682_2014-06-08_23-14-58_260595134347_rgbf000041-resize_5-target.png,depth_discrimination_stimuli/000866_2014-06-09_20-45-42_260595134347_rgbf000139-resize_1/000866_2014-06-09_20-45-42_260595134347_rgbf000139-resize_1-target.png,250,2.724,3.2155,1,1465,515,245,491,256,494,feet,,,,,1475661,1586674,64
768539,DepthScenes,duration_discrimination,discrim_jsons/d0.json,http://54.173.234.186/DepthDuration/depth_discrimination_MTurk/DepthDiscrim_HTML.html#4,4,1536,864,1536,864,6-19-2021,15-12-35,44,depth_discrimination_stimuli/002989_2014-06-15_12-25-03_094959634447_rgbf000150-resize_3/002989_2014-06-15_12-25-03_094959634447_rgbf000150-resize_3-target.png,depth_discrimination_stimuli/001724_2014-06-26_19-28-50_260595134347_rgbf000037-resize_7/001724_2014-06-26_19-28-50_260595134347_rgbf000037-resize_7-target.png,1000,4.1975,3.827,1,2498,504,1001,507,991,498,feet,,,,,1475661,1586674,64
768539,DepthScenes,duration_discrimination,discrim_jsons/d0.json,http://54.173.234.186/DepthDuration/depth_discrimination_MTurk/DepthDiscrim_HTML.html#4,4,1536,864,1536,864,6-19-2021,15-12-35,45,depth_discrimination_stimuli/001264_2014-06-16_16-10-23_260595134347_rgbf000109-resize_1/001264_2014-06-16_16-10-23_260595134347_rgbf000109-resize_1-target.png,depth_discrimination_stimuli/002340_2014-06-28_20-05-46_260595134347_rgbf000113-resize_0/002340_2014-06-28_20-05-46_260595134347_rgbf000113-resize_0-target.png,1000,2.9665,2.4735,0,1806,509,995,507,1001,497,feet,,,,,1475661,1586674,64
768539,DepthScenes,duration_discrimination,discrim_jsons/d0.json,http://54.173.234.186/DepthDuration/depth_discrimination_MTurk/DepthDiscrim_HTML.html#4,4,1536,864,1536,864,6-19-2021,15-12-35,46,depth_discrimination_stimuli/002118_2014-06-25_20-32-08_260595134347_rgbf000078-resize_1/002118_2014-06-25_20-32-08_260595134347_rgbf000078-resize_1-target.png,depth_discrimination_stimuli/000542_2014-06-08_18-27-08_260595134347_rgbf000118-resize_1/000542_2014-06-08_18-27-08_260595134347_rgbf000118-resize_1-target.png,1000,2.646,3,1,1722,507,1006,488,1012,493,feet,,,,,1475661,1586674,64
768539,DepthScenes,duration_discrimination,discrim_jsons/d0.json,http://54.173.234.186/DepthDuration/depth_discrimination_MTurk/DepthDiscrim_HTML.html#4,4,1536,864,1536,864,6-19-2021,15-12-35,47,depth_discrimination_stimuli/000569_2014-06-09_22-51-47_260595134347_rgbf000141-resize_3/000569_2014-06-09_22-51-47_260595134347_rgbf000141-resize_3-target.png,depth_discrimination_stimuli/000868_2014-06-09_20-49-52_260595134347_rgbf000064-resize_4/000868_2014-06-09_20-49-52_260595134347_rgbf000064-resize_4-target.png,250,4.512,1.2815,1,1219,507,247,498,248,503,feet,,,,,1475661,1586674,64
768539,DepthScenes,duration_discrimination,discrim_jsons/d0.json,http://54.173.234.186/DepthDuration/depth_discrimination_MTurk/DepthDiscrim_HTML.html#4,4,1536,864,1536,864,6-19-2021,15-12-35,48,depth_discrimination_stimuli/000665_2014-06-09_20-42-35_260595134347_rgbf000110-resize_1/000665_2014-06-09_20-42-35_260595134347_rgbf000110-resize_1-target.png,depth_discrimination_stimuli/001214_2014-06-17_16-13-55_260595134347_rgbf000111-resize_0/001214_2014-06-17_16-13-55_260595134347_rgbf000111-resize_0-target.png,250,3.057,2.6505,1,2761,504,247,508,246,499,feet,,,,,1475661,1586674,64
768539,DepthScenes,duration_discrimination,discrim_jsons/d0.json,http://54.173.234.186/DepthDuration/depth_discrimination_MTurk/DepthDiscrim_HTML.html#4,4,1536,864,1536,864,6-19-2021,15-12-35,49,depth_discrimination_stimuli/000753_2014-06-08_21-57-44_260595134347_rgbf000123-resize_3/000753_2014-06-08_21-57-44_260595134347_rgbf000123-resize_3-target.png,depth_discrimination_stimuli/003092_2014-06-24_21-01-49_094959634447_rgbf000049-resize_2/003092_2014-06-24_21-01-49_094959634447_rgbf000049-resize_2-target.png,1000,1.916,1.666,1,2022,500,1003,498,1005,494,feet,,,,,1475661,1586674,64
768539,DepthScenes,duration_discrimination,discrim_jsons/d0.json,http://54.173.234.186/DepthDuration/depth_discrimination_MTurk/DepthDiscrim_HTML.html#4,4,1536,864,1536,864,6-19-2021,15-12-35,50,depth_discrimination_stimuli/000780_2014-06-08_22-28-29_260595134347_rgbf000126-resize_1/000780_2014-06-08_22-28-29_260595134347_rgbf000126-resize_1-target.png,depth_discrimination_stimuli/000191_2014-05-12_17-07-38_260595134347_rgbf000199-resize_0/000191_2014-05-12_17-07-38_260595134347_rgbf000199-resize_0-target.png,1000,3.3825,3.7995,0,1806,509,999,508,987,499,feet,,,,,1475661,1586674,64
768539,DepthScenes,duration_discrimination,discrim_jsons/d0.json,http://54.173.234.186/DepthDuration/depth_discrimination_MTurk/DepthDiscrim_HTML.html#4,4,1536,864,1536,864,6-19-2021,15-12-35,51,depth_discrimination_stimuli/000720_2014-06-08_18-37-27_260595134347_rgbf000203-resize_4/000720_2014-06-08_18-37-27_260595134347_rgbf000203-resize_4-target.png,depth_discrimination_stimuli/002637_2014-06-24_14-51-13_094959634447_rgbf000066-resize_4/002637_2014-06-24_14-51-13_094959634447_rgbf000066-resize_4-target.png,1000,1.558,1.9955,0,1741,501,1004,510,995,492,feet,,,,,1475661,1586674,64
768539,DepthScenes,duration_discrimination,discrim_jsons/d0.json,http://54.173.234.186/DepthDuration/depth_discrimination_MTurk/DepthDiscrim_HTML.html#4,4,1536,864,1536,864,6-19-2021,15-12-35,52,depth_discrimination_stimuli/000929_2014-06-09_16-33-19_260595134347_rgbf000139-resize_0/000929_2014-06-09_16-33-19_260595134347_rgbf000139-resize_0-target.png,depth_discrimination_stimuli/000830_2014-06-04_19-49-31_260595134347_rgbf000096-resize_2/000830_2014-06-04_19-49-31_260595134347_rgbf000096-resize_2-target.png,250,2.868,2.6353333333333,1,1899,511,248,495,261,486,feet,,,,,1475661,1586674,64
768539,DepthScenes,duration_discrimination,discrim_jsons/d0.json,http://54.173.234.186/DepthDuration/depth_discrimination_MTurk/DepthDiscrim_HTML.html#4,4,1536,864,1536,864,6-19-2021,15-12-35,53,depth_discrimination_stimuli/000549_2014-06-08_22-10-24_260595134347_rgbf000247-resize_3/000549_2014-06-08_22-10-24_260595134347_rgbf000247-resize_3-target.png,depth_discrimination_stimuli/002139_2014-06-25_21-19-37_260595134347_rgbf000124-resize_2/002139_2014-06-25_21-19-37_260595134347_rgbf000124-resize_2-target.png,250,1.841,2.107,1,3041,502,250,507,247,508,feet,,,,,1475661,1586674,64
768539,DepthScenes,duration_discrimination,discrim_jsons/d0.json,http://54.173.234.186/DepthDuration/depth_discrimination_MTurk/DepthDiscrim_HTML.html#4,4,1536,864,1536,864,6-19-2021,15-12-35,54,depth_discrimination_stimuli/001617_2014-06-20_11-35-32_260595134347_rgbf000066-resize_1/001617_2014-06-20_11-35-32_260595134347_rgbf000066-resize_1-target.png,depth_discrimination_stimuli/001133_2014-06-17_14-49-16_260595134347_rgbf000100-resize_0/001133_2014-06-17_14-49-16_260595134347_rgbf000100-resize_0-target.png,1000,3.791,4.2115,0,2003,501,1013,496,992,508,feet,,,,,1475661,1586674,64
768539,DepthScenes,duration_discrimination,discrim_jsons/d0.json,http://54.173.234.186/DepthDuration/depth_discrimination_MTurk/DepthDiscrim_HTML.html#4,4,1536,864,1536,864,6-19-2021,15-12-35,55,depth_discrimination_stimuli/003292_2014-05-14_21-53-49_094959634447_rgbf000100-resize_2/003292_2014-05-14_21-53-49_094959634447_rgbf000100-resize_2-target.png,depth_discrimination_stimuli/002805_2014-06-22_19-54-03_094959634447_rgbf000079-resize_1/002805_2014-06-22_19-54-03_094959634447_rgbf000079-resize_1-target.png,1000,3.4815,3.144,0,3647,504,1009,488,1008,496,feet,,,,,1475661,1586674,64
768539,DepthScenes,duration_discrimination,discrim_jsons/d0.json,http://54.173.234.186/DepthDuration/depth_discrimination_MTurk/DepthDiscrim_HTML.html#4,4,1536,864,1536,864,6-19-2021,15-12-35,56,depth_discrimination_stimuli/001417_2014-06-19_16-25-36_260595134347_rgbf000115-resize_5/001417_2014-06-19_16-25-36_260595134347_rgbf000115-resize_5-target.png,depth_discrimination_stimuli/003083_2014-06-15_15-21-03_094959634447_rgbf000063-resize_1/003083_2014-06-15_15-21-03_094959634447_rgbf000063-resize_1-target.png,250,4.6255,4.1405,0,2483,508,242,509,241,510,feet,,,,,1475661,1586674,64
768539,DepthScenes,duration_discrimination,discrim_jsons/d0.json,http://54.173.234.186/DepthDuration/depth_discrimination_MTurk/DepthDiscrim_HTML.html#4,4,1536,864,1536,864,6-19-2021,15-12-35,57,depth_discrimination_stimuli/003070_2014-06-15_14-58-27_094959634447_rgbf000150-resize_3/003070_2014-06-15_14-58-27_094959634447_rgbf000150-resize_3-target.png,depth_discrimination_stimuli/000758_2014-06-08_22-05-08_260595134347_rgbf000085-resize_0/000758_2014-06-08_22-05-08_260595134347_rgbf000085-resize_0-target.png,1000,2.9415,3.381,0,1627,510,996,501,1004,501,feet,,,,,1475661,1586674,64
768539,DepthScenes,duration_discrimination,discrim_jsons/d0.json,http://54.173.234.186/DepthDuration/depth_discrimination_MTurk/DepthDiscrim_HTML.html#4,4,1536,864,1536,864,6-19-2021,15-12-35,58,depth_discrimination_stimuli/001235_2014-06-17_16-37-36_260595134347_rgbf000084-resize_4/001235_2014-06-17_16-37-36_260595134347_rgbf000084-resize_4-target.png,depth_discrimination_stimuli/003423_2014-05-21_10-23-26_094959634447_rgbf002665-resize_2/003423_2014-05-21_10-23-26_094959634447_rgbf002665-resize_2-target.png,1000,3.6605,3.2575,0,2121,504,998,501,1013,485,feet,,,,,1475661,1586674,64
768539,DepthScenes,duration_discrimination,discrim_jsons/d0.json,http://54.173.234.186/DepthDuration/depth_discrimination_MTurk/DepthDiscrim_HTML.html#4,4,1536,864,1536,864,6-19-2021,15-12-35,59,depth_discrimination_stimuli/002660_2014-06-13_15-44-18_094959634447_rgbf001878-resize_2/002660_2014-06-13_15-44-18_094959634447_rgbf001878-resize_2-target.png,depth_discrimination_stimuli/000009_2014-05-26_14-32-05_260595134347_rgbf000034-resize_3/000009_2014-05-26_14-32-05_260595134347_rgbf000034-resize_3-target.png,1000,3.576,3.8715,0,1965,501,1003,503,1000,494,feet,,,,,1475661,1586674,64
768539,DepthScenes,duration_discrimination,discrim_jsons/d0.json,http://54.173.234.186/DepthDuration/depth_discrimination_MTurk/DepthDiscrim_HTML.html#4,4,1536,864,1536,864,6-19-2021,15-12-35,60,depth_discrimination_stimuli/000642_2014-06-08_16-59-25_260595134347_rgbf000098-resize_2/000642_2014-06-08_16-59-25_260595134347_rgbf000098-resize_2-target.png,depth_discrimination_stimuli/001815_2014-06-26_20-52-55_260595134347_rgbf000020-resize_0/001815_2014-06-26_20-52-55_260595134347_rgbf000020-resize_0-target.png,1000,2.8815,3.3865,0,2066,511,1003,496,1004,487,feet,,,,,1475661,1586674,64
768539,DepthScenes,duration_discrimination,discrim_jsons/d0.json,http://54.173.234.186/DepthDuration/depth_discrimination_MTurk/DepthDiscrim_HTML.html#4,4,1536,864,1536,864,6-19-2021,15-12-35,61,depth_discrimination_stimuli/001289_2014-06-16_16-25-52_260595134347_rgbf000067-resize_1/001289_2014-06-16_16-25-52_260595134347_rgbf000067-resize_1-target.png,depth_discrimination_stimuli/002788_2014-06-22_19-36-03_094959634447_rgbf000088-resize_2/002788_2014-06-22_19-36-03_094959634447_rgbf000088-resize_2-target.png,1000,1.8835,1.6465,0,2110,503,998,513,1002,497,feet,,,,,1475661,1586674,64
768539,DepthScenes,duration_discrimination,discrim_jsons/d0.json,http://54.173.234.186/DepthDuration/depth_discrimination_MTurk/DepthDiscrim_HTML.html#4,4,1536,864,1536,864,6-19-2021,15-12-35,62,depth_discrimination_stimuli/000953_2014-06-08_11-42-19_260595134347_rgbf000083-resize_0/000953_2014-06-08_11-42-19_260595134347_rgbf000083-resize_0-target.png,depth_discrimination_stimuli/000787_2014-06-08_22-33-53_260595134347_rgbf000175-resize_1/000787_2014-06-08_22-33-53_260595134347_rgbf000175-resize_1-target.png,1000,1.369,4.784,0,2038,513,997,491,1010,499,feet,,,,,1475661,1586674,64
768539,DepthScenes,duration_discrimination,discrim_jsons/d0.json,http://54.173.234.186/DepthDuration/depth_discrimination_MTurk/DepthDiscrim_HTML.html#4,4,1536,864,1536,864,6-19-2021,15-12-35,63,depth_discrimination_stimuli/002199_2014-06-28_18-33-56_260595134347_rgbf000074-resize_0/002199_2014-06-28_18-33-56_260595134347_rgbf000074-resize_0-target.png,depth_discrimination_stimuli/000368_2014-06-09_15-53-01_260595134347_rgbf000155-resize_2/000368_2014-06-09_15-53-01_260595134347_rgbf000155-resize_2-target.png,250,1.996,2.486,0,1290,504,248,513,251,485,feet,,,,,1475661,1586674,64
768539,DepthScenes,duration_discrimination,discrim_jsons/d0.json,http://54.173.234.186/DepthDuration/depth_discrimination_MTurk/DepthDiscrim_HTML.html#4,4,1536,864,1536,864,6-19-2021,15-12-35,64,depth_discrimination_stimuli/001810_2014-06-26_20-51-35_260595134347_rgbf000040-resize_3/001810_2014-06-26_20-51-35_260595134347_rgbf000040-resize_3-target.png,depth_discrimination_stimuli/000927_2014-06-09_16-32-30_260595134347_rgbf000123-resize_3/000927_2014-06-09_16-32-30_260595134347_rgbf000123-resize_3-target.png,250,2.2525,2.6785,0,1377,506,246,504,247,505,feet,,,,,1475661,1586674,64
768539,DepthScenes,duration_discrimination,discrim_jsons/d0.json,http://54.173.234.186/DepthDuration/depth_discrimination_MTurk/DepthDiscrim_HTML.html#4,4,1536,864,1536,864,6-19-2021,15-12-35,65,depth_discrimination_stimuli/001199_2014-06-17_16-03-48_260595134347_rgbf000077-resize_0/001199_2014-06-17_16-03-48_260595134347_rgbf000077-resize_0-target.png,depth_discrimination_stimuli/001029_2014-06-08_13-17-57_260595134347_rgbf000065-resize_1/001029_2014-06-08_13-17-57_260595134347_rgbf000065-resize_1-target.png,250,3.4375,3.0835,0,2515,503,247,507,253,500,feet,,,,,1475661,1586674,64
768539,DepthScenes,duration_discrimination,discrim_jsons/d0.json,http://54.173.234.186/DepthDuration/depth_discrimination_MTurk/DepthDiscrim_HTML.html#4,4,1536,864,1536,864,6-19-2021,15-12-35,66,depth_discrimination_stimuli/002425_2014-06-28_20-27-29_260595134347_rgbf000031-resize_8/002425_2014-06-28_20-27-29_260595134347_rgbf000031-resize_8-target.png,depth_discrimination_stimuli/001181_2014-06-17_15-50-57_260595134347_rgbf000106-resize_4/001181_2014-06-17_15-50-57_260595134347_rgbf000106-resize_4-target.png,250,3.896,4.149,0,2069,512,239,512,253,485,feet,,,,,1475661,1586674,64
768539,DepthScenes,duration_discrimination,discrim_jsons/d0.json,http://54.173.234.186/DepthDuration/depth_discrimination_MTurk/DepthDiscrim_HTML.html#4,4,1536,864,1536,864,6-19-2021,15-12-35,67,depth_discrimination_stimuli/000521_2014-06-08_13-34-35_260595134347_rgbf000191-resize_2/000521_2014-06-08_13-34-35_260595134347_rgbf000191-resize_2-target.png,depth_discrimination_stimuli/000788_2014-06-08_22-34-36_260595134347_rgbf000131-resize_1/000788_2014-06-08_22-34-36_260595134347_rgbf000131-resize_1-target.png,250,3.0385,3.359,1,1497,510,247,497,248,509,feet,,,,,1475661,1586674,64
768539,DepthScenes,duration_discrimination,discrim_jsons/d0.json,http://54.173.234.186/DepthDuration/depth_discrimination_MTurk/DepthDiscrim_HTML.html#4,4,1536,864,1536,864,6-19-2021,15-12-35,68,depth_discrimination_stimuli/002568_2014-06-24_13-59-21_094959634447_rgbf000062-resize_4/002568_2014-06-24_13-59-21_094959634447_rgbf000062-resize_4-target.png,depth_discrimination_stimuli/000636_2014-06-08_16-39-02_260595134347_rgbf000108-resize_4/000636_2014-06-08_16-39-02_260595134347_rgbf000108-resize_4-target.png,250,3.015,2.682,1,1979,502,250,512,237,500,feet,,,,,1475661,1586674,64
768539,DepthScenes,duration_discrimination,discrim_jsons/d0.json,http://54.173.234.186/DepthDuration/depth_discrimination_MTurk/DepthDiscrim_HTML.html#4,4,1536,864,1536,864,6-19-2021,15-12-35,69,depth_discrimination_stimuli/001498_2014-06-19_17-45-14_260595134347_rgbf000129-resize_4/001498_2014-06-19_17-45-14_260595134347_rgbf000129-resize_4-target.png,depth_discrimination_stimuli/003125_2014-05-12_10-39-22_094959634447_rgbf000100-resize_0/003125_2014-05-12_10-39-22_094959634447_rgbf000100-resize_0-target.png,250,1.4075,4.8655,1,967,511,247,503,240,513,feet,,,,,1475661,1586674,64
768539,DepthScenes,duration_discrimination,discrim_jsons/d0.json,http://54.173.234.186/DepthDuration/depth_discrimination_MTurk/DepthDiscrim_HTML.html#4,4,1536,864,1536,864,6-19-2021,15-12-35,70,depth_discrimination_stimuli/001167_2014-06-17_15-38-07_260595134347_rgbf000108-resize_0/001167_2014-06-17_15-38-07_260595134347_rgbf000108-resize_0-target.png,depth_discrimination_stimuli/003495_2014-05-21_16-01-51_094959634447_rgbf000100-resize_3/003495_2014-05-21_16-01-51_094959634447_rgbf000100-resize_3-target.png,250,1.8505,1.6255,1,1716,512,240,507,242,512,feet,,,,,1475661,1586674,64
768539,DepthScenes,duration_discrimination,discrim_jsons/d0.json,http://54.173.234.186/DepthDuration/depth_discrimination_MTurk/DepthDiscrim_HTML.html#4,4,1536,864,1536,864,6-19-2021,15-12-35,71,depth_discrimination_stimuli/000869_2014-06-09_20-50-18_260595134347_rgbf000060-resize_3/000869_2014-06-09_20-50-18_260595134347_rgbf000060-resize_3-target.png,depth_discrimination_stimuli/001136_2014-06-17_15-19-41_260595134347_rgbf000076-resize_3/001136_2014-06-17_15-19-41_260595134347_rgbf000076-resize_3-target.png,250,2.266,1.8655,0,1733,501,266,492,242,506,feet,,,,,1475661,1586674,64
768539,DepthScenes,duration_discrimination,discrim_jsons/d0.json,http://54.173.234.186/DepthDuration/depth_discrimination_MTurk/DepthDiscrim_HTML.html#4,4,1536,864,1536,864,6-19-2021,15-12-35,72,depth_discrimination_stimuli/000878_2014-06-08_22-52-45_260595134347_rgbf000045-resize_2/000878_2014-06-08_22-52-45_260595134347_rgbf000045-resize_2-target.png,depth_discrimination_stimuli/003338_2014-05-20_11-01-23_094959634447_rgbf000051-resize_6/003338_2014-05-20_11-01-23_094959634447_rgbf000051-resize_6-target.png,1000,2.092,1.693,1,1661,509,1000,503,996,500,feet,,,,,1475661,1586674,64
768539,DepthScenes,duration_discrimination,discrim_jsons/d0.json,http://54.173.234.186/DepthDuration/depth_discrimination_MTurk/DepthDiscrim_HTML.html#4,4,1536,864,1536,864,6-19-2021,15-12-35,73,depth_discrimination_stimuli/002750_2014-06-22_19-08-03_094959634447_rgbf000094-resize_4/002750_2014-06-22_19-08-03_094959634447_rgbf000094-resize_4-target.png,depth_discrimination_stimuli/001188_2014-06-17_15-54-10_260595134347_rgbf000090-resize_2/001188_2014-06-17_15-54-10_260595134347_rgbf000090-resize_2-target.png,250,2.354,2.744,0,1528,503,249,501,248,510,feet,,,,,1475661,1586674,64
768539,DepthScenes,duration_discrimination,discrim_jsons/d0.json,http://54.173.234.186/DepthDuration/depth_discrimination_MTurk/DepthDiscrim_HTML.html#4,4,1536,864,1536,864,6-19-2021,15-12-35,74,depth_discrimination_stimuli/000740_2014-06-08_18-46-23_260595134347_rgbf000049-resize_6/000740_2014-06-08_18-46-23_260595134347_rgbf000049-resize_6-target.png,depth_discrimination_stimuli/002905_2014-06-03_18-04-43_094959634447_rgbf000151-resize_2/002905_2014-06-03_18-04-43_094959634447_rgbf000151-resize_2-target.png,1000,1.687,2.0295,0,3360,515,998,488,1000,500,feet,,,,,1475661,1586674,64
768539,DepthScenes,duration_discrimination,discrim_jsons/d0.json,http://54.173.234.186/DepthDuration/depth_discrimination_MTurk/DepthDiscrim_HTML.html#4,4,1536,864,1536,864,6-19-2021,15-12-35,75,depth_discrimination_stimuli/000483_2014-06-09_20-41-45_260595134347_rgbf000116-resize_4/000483_2014-06-09_20-41-45_260595134347_rgbf000116-resize_4-target.png,depth_discrimination_stimuli/002964_2014-06-08_17-46-11_094959634447_rgbf000091-resize_4/002964_2014-06-08_17-46-11_094959634447_rgbf000091-resize_4-target.png,250,1.337,1.691,0,1471,508,249,497,247,506,feet,,,,,1475661,1586674,64
768539,DepthScenes,duration_discrimination,discrim_jsons/d0.json,http://54.173.234.186/DepthDuration/depth_discrimination_MTurk/DepthDiscrim_HTML.html#4,4,1536,864,1536,864,6-19-2021,15-12-35,76,depth_discrimination_stimuli/000103_2014-05-14_22-01-17_260595134347_rgbf000152-resize_5/000103_2014-05-14_22-01-17_260595134347_rgbf000152-resize_5-target.png,depth_discrimination_stimuli/000810_2014-06-08_17-20-01_260595134347_rgbf000105-resize_0/000810_2014-06-08_17-20-01_260595134347_rgbf000105-resize_0-target.png,1000,1.993,1.4865,1,1662,513,997,491,1001,506,feet,,,,,1475661,1586674,64
768539,DepthScenes,duration_discrimination,discrim_jsons/d0.json,http://54.173.234.186/DepthDuration/depth_discrimination_MTurk/DepthDiscrim_HTML.html#4,4,1536,864,1536,864,6-19-2021,15-12-35,77,depth_discrimination_stimuli/001056_2014-06-08_18-46-44_260595134347_rgbf000068-resize_0/001056_2014-06-08_18-46-44_260595134347_rgbf000068-resize_0-target.png,depth_discrimination_stimuli/003079_2014-06-15_15-18-20_094959634447_rgbf000152-resize_8/003079_2014-06-15_15-18-20_094959634447_rgbf000152-resize_8-target.png,250,2.6625,2.8775,0,1439,501,254,509,250,491,feet,,,,,1475661,1586674,64
768539,DepthScenes,duration_discrimination,discrim_jsons/d0.json,http://54.173.234.186/DepthDuration/depth_discrimination_MTurk/DepthDiscrim_HTML.html#4,4,1536,864,1536,864,6-19-2021,15-12-35,78,depth_discrimination_stimuli/001110_2014-06-15_17-25-28_260595134347_rgbf000150-resize_1/001110_2014-06-15_17-25-28_260595134347_rgbf000150-resize_1-target.png,depth_discrimination_stimuli/000555_2014-06-09_22-42-23_260595134347_rgbf000037-resize_4/000555_2014-06-09_22-42-23_260595134347_rgbf000037-resize_4-target.png,250,1.7115,1.9765,0,1300,511,254,491,245,503,feet,,,,,1475661,1586674,64
768539,DepthScenes,duration_discrimination,discrim_jsons/d0.json,http://54.173.234.186/DepthDuration/depth_discrimination_MTurk/DepthDiscrim_HTML.html#4,4,1536,864,1536,864,6-19-2021,15-12-35,79,depth_discrimination_stimuli/000677_2014-06-08_23-10-32_260595134347_rgbf000158-resize_6/000677_2014-06-08_23-10-32_260595134347_rgbf000158-resize_6-target.png,depth_discrimination_stimuli/001150_2014-06-17_15-27-34_260595134347_rgbf000108-resize_2/001150_2014-06-17_15-27-34_260595134347_rgbf000108-resize_2-target.png,250,3.556,4.0325,1,2473,508,257,495,253,489,feet,,,,,1475661,1586674,64
768539,DepthScenes,duration_discrimination,discrim_jsons/d0.json,http://54.173.234.186/DepthDuration/depth_discrimination_MTurk/DepthDiscrim_HTML.html#4,4,1536,864,1536,864,6-19-2021,15-12-35,80,depth_discrimination_stimuli/002414_2014-06-28_20-24-58_260595134347_rgbf000067-resize_4/002414_2014-06-28_20-24-58_260595134347_rgbf000067-resize_4-target.png,depth_discrimination_stimuli/001828_2014-06-26_21-40-03_260595134347_rgbf000024-resize_0/001828_2014-06-26_21-40-03_260595134347_rgbf000024-resize_0-target.png,1000,4.363,4.826,1,2611,509,995,496,1007,501,feet,,,,,1475661,1586674,64
768539,DepthScenes,duration_discrimination,discrim_jsons/d0.json,http://54.173.234.186/DepthDuration/depth_discrimination_MTurk/DepthDiscrim_HTML.html#4,4,1536,864,1536,864,6-19-2021,15-12-35,81,depth_discrimination_stimuli/001244_2014-06-17_16-47-45_260595134347_rgbf000030-resize_4/001244_2014-06-17_16-47-45_260595134347_rgbf000030-resize_4-target.png,depth_discrimination_stimuli/002763_2014-06-22_19-13-10_094959634447_rgbf000075-resize_4/002763_2014-06-22_19-13-10_094959634447_rgbf000075-resize_4-target.png,1000,2.0425,1.68375,1,4063,501,1003,502,1002,504,feet,,,,,1475661,1586674,64
768539,DepthScenes,duration_discrimination,discrim_jsons/d0.json,http://54.173.234.186/DepthDuration/depth_discrimination_MTurk/DepthDiscrim_HTML.html#4,4,1536,864,1536,864,6-19-2021,15-12-35,82,depth_discrimination_stimuli/000505_2014-06-08_23-03-23_260595134347_rgbf000091-resize_0/000505_2014-06-08_23-03-23_260595134347_rgbf000091-resize_0-target.png,depth_discrimination_stimuli/002057_2014-06-24_21-00-13_260595134347_rgbf000120-resize_1/002057_2014-06-24_21-00-13_260595134347_rgbf000120-resize_1-target.png,1000,3.3105,2.967,0,2114,512,991,512,1000,492,feet,,,,,1475661,1586674,64
768539,DepthScenes,duration_discrimination,discrim_jsons/d0.json,http://54.173.234.186/DepthDuration/depth_discrimination_MTurk/DepthDiscrim_HTML.html#4,4,1536,864,1536,864,6-19-2021,15-12-35,83,depth_discrimination_stimuli/001392_2014-06-19_16-07-59_260595134347_rgbf000046-resize_1/001392_2014-06-19_16-07-59_260595134347_rgbf000046-resize_1-target.png,depth_discrimination_stimuli/003490_2014-05-21_15-50-11_094959634447_rgbf000101-resize_3/003490_2014-05-21_15-50-11_094959634447_rgbf000101-resize_3-target.png,1000,4.135,3.6445,1,2413,500,1003,511,1000,497,feet,,,,,1475661,1586674,64
768539,DepthScenes,duration_discrimination,discrim_jsons/d0.json,http://54.173.234.186/DepthDuration/depth_discrimination_MTurk/DepthDiscrim_HTML.html#4,4,1536,864,1536,864,6-19-2021,15-12-35,84,depth_discrimination_stimuli/000502_2014-06-08_23-02-32_260595134347_rgbf000063-resize_4/000502_2014-06-08_23-02-32_260595134347_rgbf000063-resize_4-target.png,depth_discrimination_stimuli/002987_2014-06-08_18-48-20_094959634447_rgbf000022-resize_0/002987_2014-06-08_18-48-20_094959634447_rgbf000022-resize_0-target.png,1000,2.431,2.6775,0,1596,503,1011,492,1008,491,feet,,,,,1475661,1586674,64
768539,DepthScenes,duration_discrimination,discrim_jsons/d0.json,http://54.173.234.186/DepthDuration/depth_discrimination_MTurk/DepthDiscrim_HTML.html#4,4,1536,864,1536,864,6-19-2021,15-12-35,85,depth_discrimination_stimuli/002675_2014-06-13_16-08-49_094959634447_rgbf000151-resize_2/002675_2014-06-13_16-08-49_094959634447_rgbf000151-resize_2-target.png,depth_discrimination_stimuli/001222_2014-06-17_16-24-06_260595134347_rgbf000073-resize_0/001222_2014-06-17_16-24-06_260595134347_rgbf000073-resize_0-target.png,1000,4.5065,1.4385,1,1748,502,1010,503,988,502,feet,,,,,1475661,1586674,64
768539,DepthScenes,duration_discrimination,discrim_jsons/d0.json,http://54.173.234.186/DepthDuration/depth_discrimination_MTurk/DepthDiscrim_HTML.html#4,4,1536,864,1536,864,6-19-2021,15-12-35,86,depth_discrimination_stimuli/001158_2014-06-17_15-32-16_260595134347_rgbf000138-resize_2/001158_2014-06-17_15-32-16_260595134347_rgbf000138-resize_2-target.png,depth_discrimination_stimuli/003492_2014-05-21_15-50-55_094959634447_rgbf000828-resize_1/003492_2014-05-21_15-50-55_094959634447_rgbf000828-resize_1-target.png,250,4.5315,4.06875,0,1938,503,252,497,254,497,feet,,,,,1475661,1586674,64
768539,DepthScenes,duration_discrimination,discrim_jsons/d0.json,http://54.173.234.186/DepthDuration/depth_discrimination_MTurk/DepthDiscrim_HTML.html#4,4,1536,864,1536,864,6-19-2021,15-12-35,87,depth_discrimination_stimuli/000773_2014-06-08_22-24-54_260595134347_rgbf000093-resize_1/000773_2014-06-08_22-24-54_260595134347_rgbf000093-resize_1-target.png,depth_discrimination_stimuli/000742_2014-06-08_18-48-09_260595134347_rgbf000164-resize_4/000742_2014-06-08_18-48-09_260595134347_rgbf000164-resize_4-target.png,250,4.973,4.632,0,2605,503,261,488,264,494,feet,,,,,1475661,1586674,64
768539,DepthScenes,duration_discrimination,discrim_jsons/d0.json,http://54.173.234.186/DepthDuration/depth_discrimination_MTurk/DepthDiscrim_HTML.html#4,4,1536,864,1536,864,6-19-2021,15-12-35,88,depth_discrimination_stimuli/000854_2014-06-09_19-43-13_260595134347_rgbf000066-resize_0/000854_2014-06-09_19-43-13_260595134347_rgbf000066-resize_0-target.png,depth_discrimination_stimuli/002758_2014-06-22_19-11-20_094959634447_rgbf000128-resize_1/002758_2014-06-22_19-11-20_094959634447_rgbf000128-resize_1-target.png,1000,3.068,2.555,1,2458,510,997,510,999,498,feet,,,,,1475661,1586674,64
768539,DepthScenes,duration_discrimination,discrim_jsons/d0.json,http://54.173.234.186/DepthDuration/depth_discrimination_MTurk/DepthDiscrim_HTML.html#4,4,1536,864,1536,864,6-19-2021,15-12-35,89,depth_discrimination_stimuli/001055_2014-06-08_18-45-35_260595134347_rgbf000111-resize_4/001055_2014-06-08_18-45-35_260595134347_rgbf000111-resize_4-target.png,depth_discrimination_stimuli/002209_2014-06-28_18-36-10_260595134347_rgbf000051-resize_1/002209_2014-06-28_18-36-10_260595134347_rgbf000051-resize_1-target.png,250,2.429,2.057,1,1753,501,251,503,246,503,feet,,,,,1475661,1586674,64
768539,DepthScenes,duration_discrimination,discrim_jsons/d0.json,http://54.173.234.186/DepthDuration/depth_discrimination_MTurk/DepthDiscrim_HTML.html#4,4,1536,864,1536,864,6-19-2021,15-12-35,90,depth_discrimination_stimuli/000414_2014-06-04_19-49-13_260595134347_rgbf000044-resize_0/000414_2014-06-04_19-49-13_260595134347_rgbf000044-resize_0-target.png,depth_discrimination_stimuli/002663_2014-06-13_15-50-26_094959634447_rgbf000075-resize_1/002663_2014-06-13_15-50-26_094959634447_rgbf000075-resize_1-target.png,1000,4.329,4.7495,0,2208,504,1002,499,1005,495,feet,,,,,1475661,1586674,64
768539,DepthScenes,duration_discrimination,discrim_jsons/d0.json,http://54.173.234.186/DepthDuration/depth_discrimination_MTurk/DepthDiscrim_HTML.html#4,4,1536,864,1536,864,6-19-2021,15-12-35,91,depth_discrimination_stimuli/002725_2014-06-22_11-47-51_094959634447_rgbf000070-resize_1/002725_2014-06-22_11-47-51_094959634447_rgbf000070-resize_1-target.png,depth_discrimination_stimuli/002153_2014-06-25_21-27-18_260595134347_rgbf000038-resize_5/002153_2014-06-25_21-27-18_260595134347_rgbf000038-resize_5-target.png,1000,2.195,2.505,1,1751,505,1008,499,998,501,feet,,,,,1475661,1586674,64
768539,DepthScenes,duration_discrimination,discrim_jsons/d0.json,http://54.173.234.186/DepthDuration/depth_discrimination_MTurk/DepthDiscrim_HTML.html#4,4,1536,864,1536,864,6-19-2021,15-12-35,92,depth_discrimination_stimuli/002570_2014-06-24_13-59-54_094959634447_rgbf000059-resize_0/002570_2014-06-24_13-59-54_094959634447_rgbf000059-resize_0-target.png,depth_discrimination_stimuli/001584_2014-06-20_11-07-43_260595134347_rgbf000002-resize_1/001584_2014-06-20_11-07-43_260595134347_rgbf000002-resize_1-target.png,250,4.037,3.53,1,2359,507,258,492,258,499,feet,,,,,1475661,1586674,64
768539,DepthScenes,duration_discrimination,discrim_jsons/d0.json,http://54.173.234.186/DepthDuration/depth_discrimination_MTurk/DepthDiscrim_HTML.html#4,4,1536,864,1536,864,6-19-2021,15-12-35,93,depth_discrimination_stimuli/002072_2014-06-24_21-48-06_260595134347_rgbf000115-resize_0/002072_2014-06-24_21-48-06_260595134347_rgbf000115-resize_0-target.png,depth_discrimination_stimuli/001012_2014-06-08_23-19-38_260595134347_rgbf000057-resize_0/001012_2014-06-08_23-19-38_260595134347_rgbf000057-resize_0-target.png,250,4.702,1.38325,1,1746,513,252,491,247,511,feet,,,,,1475661,1586674,64
768539,DepthScenes,duration_discrimination,discrim_jsons/d0.json,http://54.173.234.186/DepthDuration/depth_discrimination_MTurk/DepthDiscrim_HTML.html#4,4,1536,864,1536,864,6-19-2021,15-12-35,94,depth_discrimination_stimuli/000470_2014-06-09_19-42-40_260595134347_rgbf000094-resize_1/000470_2014-06-09_19-42-40_260595134347_rgbf000094-resize_1-target.png,depth_discrimination_stimuli/000109_2014-05-14_23-41-52_260595134347_rgbf000035-resize_9/000109_2014-05-14_23-41-52_260595134347_rgbf000035-resize_9-target.png,1000,1.831,1.3545,1,2170,505,1025,489,1009,488,feet,,,,,1475661,1586674,64
768539,DepthScenes,duration_discrimination,discrim_jsons/d0.json,http://54.173.234.186/DepthDuration/depth_discrimination_MTurk/DepthDiscrim_HTML.html#4,4,1536,864,1536,864,6-19-2021,15-12-35,95,depth_discrimination_stimuli/001011_2014-06-08_23-18-54_260595134347_rgbf000044-resize_4/001011_2014-06-08_23-18-54_260595134347_rgbf000044-resize_4-target.png,depth_discrimination_stimuli/002678_2014-06-13_16-15-32_094959634447_rgbf000151-resize_6/002678_2014-06-13_16-15-32_094959634447_rgbf000151-resize_6-target.png,1000,2.473,2.183,0,2680,502,1013,498,998,504,feet,,,,,1475661,1586674,64
768539,DepthScenes,duration_discrimination,discrim_jsons/d0.json,http://54.173.234.186/DepthDuration/depth_discrimination_MTurk/DepthDiscrim_HTML.html#4,4,1536,864,1536,864,6-19-2021,15-12-35,96,depth_discrimination_stimuli/001032_2014-06-08_13-23-17_260595134347_rgbf000021-resize_3/001032_2014-06-08_13-23-17_260595134347_rgbf000021-resize_3-target.png,depth_discrimination_stimuli/002790_2014-06-22_19-36-35_094959634447_rgbf000074-resize_4/002790_2014-06-22_19-36-35_094959634447_rgbf000074-resize_4-target.png,1000,3.2725,3.512,0,2108,508,1004,503,993,506,feet,,,,,1475661,1586674,64
768539,DepthScenes,duration_discrimination,discrim_jsons/d0.json,http://54.173.234.186/DepthDuration/depth_discrimination_MTurk/DepthDiscrim_HTML.html#4,4,1536,864,1536,864,6-19-2021,15-12-35,96,,,,,,,2108,508,1004,503,993,506,feet,,,,,1475661,1586674,64
768539,DepthScenes,duration_discrimination,discrim_jsons/d0.json,http://54.173.234.186/DepthDuration/depth_discrimination_MTurk/DepthDiscrim_HTML.html#4,4,1519,864,1536,864,6-19-2021,15-12-35,98,,,,,,,2108,508,1004,503,993,506,feet,2,3,depth_discrimination_stimuli/000917_2014-06-09_22-45-29_260595134347_rgbf000149-resize_3/000917_2014-06-09_22-45-29_260595134347_rgbf000149-resize-original.jpg,24010,1475661,1586674,64
768539,DepthScenes,duration_discrimination,discrim_jsons/d0.json,http://54.173.234.186/DepthDuration/depth_discrimination_MTurk/DepthDiscrim_HTML.html#4,4,1519,864,1536,864,6-19-2021,15-12-35,99,,,,,,,2108,508,1004,503,993,506,feet,3,2,depth_discrimination_stimuli/001136_2014-06-17_15-19-41_260595134347_rgbf000076-resize_3/001136_2014-06-17_15-19-41_260595134347_rgbf000076-resize-original.jpg,15543,1475661,1586674,64
768539,DepthScenes,duration_discrimination,discrim_jsons/d0.json,http://54.173.234.186/DepthDuration/depth_discrimination_MTurk/DepthDiscrim_HTML.html#4,4,1519,864,1536,864,6-19-2021,15-12-35,100,,,,,,,2108,508,1004,503,993,506,feet,2,3,depth_discrimination_stimuli/000636_2014-06-08_16-39-02_260595134347_rgbf000108-resize_4/000636_2014-06-08_16-39-02_260595134347_rgbf000108-resize-original.jpg,6994,1475661,1586674,64
768539,DepthScenes,duration_discrimination,discrim_jsons/d0.json,http://54.173.234.186/DepthDuration/depth_discrimination_MTurk/DepthDiscrim_HTML.html#4,4,1519,864,1536,864,6-19-2021,15-12-35,101,,,,,,,2108,508,1004,503,993,506,feet,2,3,depth_discrimination_stimuli/000739_2014-06-08_18-45-58_260595134347_rgbf000068-resize_1/000739_2014-06-08_18-45-58_260595134347_rgbf000068-resize-original.jpg,13217,1475661,1586674,64
768539,DepthScenes,duration_discrimination,discrim_jsons/d0.json,http://54.173.234.186/DepthDuration/depth_discrimination_MTurk/DepthDiscrim_HTML.html#4,4,1519,864,1536,864,6-19-2021,15-12-35,102,,,,,,,2108,508,1004,503,993,506,feet,2,2,depth_discrimination_stimuli/002790_2014-06-22_19-36-35_094959634447_rgbf000074-resize_4/002790_2014-06-22_19-36-35_094959634447_rgbf000074-resize-original.jpg,6984,1475661,1586674,64
768539,DepthScenes,duration_discrimination,discrim_jsons/d0.json,http://54.173.234.186/DepthDuration/depth_discrimination_MTurk/DepthDiscrim_HTML.html#4,4,1519,864,1536,864,6-19-2021,15-12-35,103,,,,,,,2108,508,1004,503,993,506,feet,2,3,depth_discrimination_stimuli/000191_2014-05-12_17-07-38_260595134347_rgbf000199-resize_0/000191_2014-05-12_17-07-38_260595134347_rgbf000199-resize-original.jpg,8940,1475661,1586674,64
768539,DepthScenes,duration_discrimination,discrim_jsons/d0.json,http://54.173.234.186/DepthDuration/depth_discrimination_MTurk/DepthDiscrim_HTML.html#4,4,1519,864,1536,864,6-19-2021,15-12-35,104,,,,,,,2108,508,1004,503,993,506,feet,2,3,depth_discrimination_stimuli/000709_2014-06-08_13-51-55_260595134347_rgbf000068-resize_3/000709_2014-06-08_13-51-55_260595134347_rgbf000068-resize-original.jpg,5323,1475661,1586674,64
768539,DepthScenes,duration_discrimination,discrim_jsons/d0.json,http://54.173.234.186/DepthDuration/depth_discrimination_MTurk/DepthDiscrim_HTML.html#4,4,1519,864,1536,864,6-19-2021,15-12-35,105,,,,,,,2108,508,1004,503,993,506,feet,3,3,depth_discrimination_stimuli/001092_2014-06-15_17-34-58_260595134347_rgbf000171-resize_3/001092_2014-06-15_17-34-58_260595134347_rgbf000171-resize-original.jpg,6986,1475661,1586674,64
768539,DepthScenes,duration_discrimination,discrim_jsons/d0.json,http://54.173.234.186/DepthDuration/depth_discrimination_MTurk/DepthDiscrim_HTML.html#4,4,1519,864,1536,864,6-19-2021,15-12-35,106,,,,,,,2108,508,1004,503,993,506,feet,3,3,depth_discrimination_stimuli/000906_2014-06-08_13-35-43_260595134347_rgbf000155-resize_1/000906_2014-06-08_13-35-43_260595134347_rgbf000155-resize-original.jpg,3922,1475661,1586674,64
768539,DepthScenes,duration_discrimination,discrim_jsons/d0.json,http://54.173.234.186/DepthDuration/depth_discrimination_MTurk/DepthDiscrim_HTML.html#4,4,1519,864,1536,864,6-19-2021,15-12-35,107,,,,,,,2108,508,1004,503,993,506,feet,3,2,depth_discrimination_stimuli/002039_2014-06-24_20-22-38_260595134347_rgbf000084-resize_1/002039_2014-06-24_20-22-38_260595134347_rgbf000084-resize-original.jpg,6176,1475661,1586674,64
768539,DepthScenes,duration_discrimination,discrim_jsons/d0.json,http://54.173.234.186/DepthDuration/depth_discrimination_MTurk/DepthDiscrim_HTML.html#4,4,1519,864,1536,864,6-19-2021,15-12-35,108,,,,,,,2108,508,1004,503,993,506,feet,3,3,depth_discrimination_stimuli/000742_2014-06-08_18-48-09_260595134347_rgbf000164-resize_4/000742_2014-06-08_18-48-09_260595134347_rgbf000164-resize-original.jpg,8790,1475661,1586674,64
768539,DepthScenes,duration_discrimination,discrim_jsons/d0.json,http://54.173.234.186/DepthDuration/depth_discrimination_MTurk/DepthDiscrim_HTML.html#4,4,1519,864,1536,864,6-19-2021,15-12-35,109,,,,,,,2108,508,1004,503,993,506,feet,3,3,depth_discrimination_stimuli/000929_2014-06-09_16-33-19_260595134347_rgbf000139-resize_0/000929_2014-06-09_16-33-19_260595134347_rgbf000139-resize-original.jpg,4100,1475661,1586674,64
768539,DepthScenes,duration_discrimination,discrim_jsons/d0.json,http://54.173.234.186/DepthDuration/depth_discrimination_MTurk/DepthDiscrim_HTML.html#4,4,1519,864,1536,864,6-19-2021,15-12-35,110,,,,,,,2108,508,1004,503,993,506,feet,4,4,depth_discrimination_stimuli/002118_2014-06-25_20-32-08_260595134347_rgbf000078-resize_1/002118_2014-06-25_20-32-08_260595134347_rgbf000078-resize-original.jpg,8652,1475661,1586674,64
768539,DepthScenes,duration_discrimination,discrim_jsons/d0.json,http://54.173.234.186/DepthDuration/depth_discrimination_MTurk/DepthDiscrim_HTML.html#4,4,1519,864,1536,864,6-19-2021,15-12-35,111,,,,,,,2108,508,1004,503,993,506,feet,2,2,depth_discrimination_stimuli/000137_2014-05-20_17-04-49_260595134347_rgbf000120-resize_1/000137_2014-05-20_17-04-49_260595134347_rgbf000120-resize-original.jpg,4354,1475661,1586674,64
768539,DepthScenes,duration_discrimination,discrim_jsons/d0.json,http://54.173.234.186/DepthDuration/depth_discrimination_MTurk/DepthDiscrim_HTML.html#4,4,1519,864,1536,864,6-19-2021,15-12-35,112,,,,,,,2108,508,1004,503,993,506,feet,3,3,depth_discrimination_stimuli/000009_2014-05-26_14-32-05_260595134347_rgbf000034-resize_3/000009_2014-05-26_14-32-05_260595134347_rgbf000034-resize-original.jpg,6791,1475661,1586674,64
768539,DepthScenes,duration_discrimination,discrim_jsons/d0.json,http://54.173.234.186/DepthDuration/depth_discrimination_MTurk/DepthDiscrim_HTML.html#4,4,1519,864,1536,864,6-19-2021,15-12-35,113,,,,,,,2108,508,1004,503,993,506,feet,3,3,depth_discrimination_stimuli/003534_2014-05-22_15-06-10_094959634447_rgbf000102-resize_4/003534_2014-05-22_15-06-10_094959634447_rgbf000102-resize-original.jpg,3652,1475661,1586674,64
768539,DepthScenes,duration_discrimination,discrim_jsons/d0.json,http://54.173.234.186/DepthDuration/depth_discrimination_MTurk/DepthDiscrim_HTML.html#4,4,1519,864,1536,864,6-19-2021,15-12-35,114,,,,,,,2108,508,1004,503,993,506,feet,3,1,depth_discrimination_stimuli/001066_2014-06-08_22-03-20_260595134347_rgbf000066-resize_4/001066_2014-06-08_22-03-20_260595134347_rgbf000066-resize-original.jpg,4933,1475661,1586674,64
768539,DepthScenes,duration_discrimination,discrim_jsons/d0.json,http://54.173.234.186/DepthDuration/depth_discrimination_MTurk/DepthDiscrim_HTML.html#4,4,1519,864,1536,864,6-19-2021,15-12-35,115,,,,,,,2108,508,1004,503,993,506,feet,3,3,depth_discrimination_stimuli/000736_2014-06-08_18-24-15_260595134347_rgbf000206-resize_3/000736_2014-06-08_18-24-15_260595134347_rgbf000206-resize-original.jpg,5379,1475661,1586674,64
768539,DepthScenes,duration_discrimination,discrim_jsons/d0.json,http://54.173.234.186/DepthDuration/depth_discrimination_MTurk/DepthDiscrim_HTML.html#4,4,1519,864,1536,864,6-19-2021,15-12-35,116,,,,,,,2108,508,1004,503,993,506,feet,3,3,depth_discrimination_stimuli/002043_2014-06-24_20-29-38_260595134347_rgbf000039-resize_4/002043_2014-06-24_20-29-38_260595134347_rgbf000039-resize-original.jpg,9255,1475661,1586674,64
768539,DepthScenes,duration_discrimination,discrim_jsons/d0.json,http://54.173.234.186/DepthDuration/depth_discrimination_MTurk/DepthDiscrim_HTML.html#4,4,1519,864,1536,864,6-19-2021,15-12-35,117,,,,,,,2108,508,1004,503,993,506,feet,3,2,depth_discrimination_stimuli/000943_2014-06-09_19-31-07_260595134347_rgbf000128-resize_1/000943_2014-06-09_19-31-07_260595134347_rgbf000128-resize-original.jpg,5952,1475661,1586674,64
768539,DepthScenes,duration_discrimination,discrim_jsons/d0.json,http://54.173.234.186/DepthDuration/depth_discrimination_MTurk/DepthDiscrim_HTML.html#4,4,1519,864,1536,864,6-19-2021,15-12-35,118,,,,,,,2108,508,1004,503,993,506,feet,3,3,depth_discrimination_stimuli/003492_2014-05-21_15-50-55_094959634447_rgbf000828-resize_1/003492_2014-05-21_15-50-55_094959634447_rgbf000828-resize-original.jpg,4367,1475661,1586674,64
768539,DepthScenes,duration_discrimination,discrim_jsons/d0.json,http://54.173.234.186/DepthDuration/depth_discrimination_MTurk/DepthDiscrim_HTML.html#4,4,1519,864,1536,864,6-19-2021,15-12-35,119,,,,,,,2108,508,1004,503,993,506,feet,2,2,depth_discrimination_stimuli/000878_2014-06-08_22-52-45_260595134347_rgbf000045-resize_2/000878_2014-06-08_22-52-45_260595134347_rgbf000045-resize-original.jpg,3682,1475661,1586674,64
768539,DepthScenes,duration_discrimination,discrim_jsons/d0.json,http://54.173.234.186/DepthDuration/depth_discrimination_MTurk/DepthDiscrim_HTML.html#4,4,1519,864,1536,864,6-19-2021,15-12-35,120,,,,,,,2108,508,1004,503,993,506,feet,3,4,depth_discrimination_stimuli/000788_2014-06-08_22-34-36_260595134347_rgbf000131-resize_1/000788_2014-06-08_22-34-36_260595134347_rgbf000131-resize-original.jpg,6825,1475661,1586674,64
768539,DepthScenes,duration_discrimination,discrim_jsons/d0.json,http://54.173.234.186/DepthDuration/depth_discrimination_MTurk/DepthDiscrim_HTML.html#4,4,1519,864,1536,864,6-19-2021,15-12-35,121,,,,,,,2108,508,1004,503,993,506,feet,3,3,depth_discrimination_stimuli/001175_2014-06-17_15-45-55_260595134347_rgbf000129-resize_4/001175_2014-06-17_15-45-55_260595134347_rgbf000129-resize-original.jpg,3542,1475661,1586674,64
768539,DepthScenes,duration_discrimination,discrim_jsons/d0.json,http://54.173.234.186/DepthDuration/depth_discrimination_MTurk/DepthDiscrim_HTML.html#4,4,1519,864,1536,864,6-19-2021,15-12-35,122,,,,,,,2108,508,1004,503,993,506,feet,3,2,depth_discrimination_stimuli/002949_2014-06-26_15-57-42_094959634447_rgbf000079-resize_1/002949_2014-06-26_15-57-42_094959634447_rgbf000079-resize-original.jpg,3009,1475661,1586674,64
768539,DepthScenes,duration_discrimination,discrim_jsons/d0.json,http://54.173.234.186/DepthDuration/depth_discrimination_MTurk/DepthDiscrim_HTML.html#4,4,1519,864,1536,864,6-19-2021,15-12-35,123,,,,,,,2108,508,1004,503,993,506,feet,3,3,depth_discrimination_stimuli/003129_2014-05-12_10-48-10_094959634447_rgbf000100-resize_0/003129_2014-05-12_10-48-10_094959634447_rgbf000100-resize-original.jpg,8706,1475661,1586674,64
768539,DepthScenes,duration_discrimination,discrim_jsons/d0.json,http://54.173.234.186/DepthDuration/depth_discrimination_MTurk/DepthDiscrim_HTML.html#4,4,1519,864,1536,864,6-19-2021,15-12-35,124,,,,,,,2108,508,1004,503,993,506,feet,4,3,depth_discrimination_stimuli/001724_2014-06-26_19-28-50_260595134347_rgbf000037-resize_7/001724_2014-06-26_19-28-50_260595134347_rgbf000037-resize-original.jpg,7062,1475661,1586674,64
768539,DepthScenes,duration_discrimination,discrim_jsons/d0.json,http://54.173.234.186/DepthDuration/depth_discrimination_MTurk/DepthDiscrim_HTML.html#4,4,1519,864,1536,864,6-19-2021,15-12-35,125,,,,,,,2108,508,1004,503,993,506,feet,4,5,scene_property_catch_stimuli/sun_aoquhiddlfqapdlz.jpg,5108,1475661,1586674,64
768539,DepthScenes,duration_discrimination,discrim_jsons/d0.json,http://54.173.234.186/DepthDuration/depth_discrimination_MTurk/DepthDiscrim_HTML.html#4,4,1519,864,1536,864,6-19-2021,15-12-35,126,,,,,,,2108,508,1004,503,993,506,feet,2,3,depth_discrimination_stimuli/002784_2014-06-22_19-26-30_094959634447_rgbf000083-resize_3/002784_2014-06-22_19-26-30_094959634447_rgbf000083-resize-original.jpg,4246,1475661,1586674,64
768539,DepthScenes,duration_discrimination,discrim_jsons/d0.json,http://54.173.234.186/DepthDuration/depth_discrimination_MTurk/DepthDiscrim_HTML.html#4,4,1519,864,1536,864,6-19-2021,15-12-35,127,,,,,,,2108,508,1004,503,993,506,feet,3,3,depth_discrimination_stimuli/000436_2014-06-09_22-25-11_260595134347_rgbf000137-resize_1/000436_2014-06-09_22-25-11_260595134347_rgbf000137-resize-original.jpg,5256,1475661,1586674,64
768539,DepthScenes,duration_discrimination,discrim_jsons/d0.json,http://54.173.234.186/DepthDuration/depth_discrimination_MTurk/DepthDiscrim_HTML.html#4,4,1519,864,1536,864,6-19-2021,15-12-35,128,,,,,,,2108,508,1004,503,993,506,feet,2,2,depth_discrimination_stimuli/002579_2014-06-24_14-08-03_094959634447_rgbf000061-resize_2/002579_2014-06-24_14-08-03_094959634447_rgbf000061-resize-original.jpg,7733,1475661,1586674,64
768539,DepthScenes,duration_discrimination,discrim_jsons/d0.json,http://54.173.234.186/DepthDuration/depth_discrimination_MTurk/DepthDiscrim_HTML.html#4,4,1519,864,1536,864,6-19-2021,15-12-35,129,,,,,,,2108,508,1004,503,993,506,feet,3,2,depth_discrimination_stimuli/000720_2014-06-08_18-37-27_260595134347_rgbf000203-resize_4/000720_2014-06-08_18-37-27_260595134347_rgbf000203-resize-original.jpg,5979,1475661,1586674,64
768539,DepthScenes,duration_discrimination,discrim_jsons/d0.json,http://54.173.234.186/DepthDuration/depth_discrimination_MTurk/DepthDiscrim_HTML.html#4,4,1519,864,1536,864,6-19-2021,15-12-35,130,,,,,,,2108,508,1004,503,993,506,feet,5,3,scene_property_catch_stimuli/sun_aatxlublfjchvvzu.jpg,7264,1475661,1586674,64
768539,DepthScenes,duration_discrimination,discrim_jsons/d0.json,http://54.173.234.186/DepthDuration/depth_discrimination_MTurk/DepthDiscrim_HTML.html#4,4,1519,864,1536,864,6-19-2021,15-12-35,131,,,,,,,2108,508,1004,503,993,506,feet,3,3,depth_discrimination_stimuli/000505_2014-06-08_23-03-23_260595134347_rgbf000091-resize_0/000505_2014-06-08_23-03-23_260595134347_rgbf000091-resize-original.jpg,4206,1475661,1586674,64
768539,DepthScenes,duration_discrimination,discrim_jsons/d0.json,http://54.173.234.186/DepthDuration/depth_discrimination_MTurk/DepthDiscrim_HTML.html#4,4,1519,864,1536,864,6-19-2021,15-12-35,132,,,,,,,2108,508,1004,503,993,506,feet,2,3,depth_discrimination_stimuli/001244_2014-06-17_16-47-45_260595134347_rgbf000030-resize_4/001244_2014-06-17_16-47-45_260595134347_rgbf000030-resize-original.jpg,4561,1475661,1586674,64
768539,DepthScenes,duration_discrimination,discrim_jsons/d0.json,http://54.173.234.186/DepthDuration/depth_discrimination_MTurk/DepthDiscrim_HTML.html#4,4,1519,864,1536,864,6-19-2021,15-12-35,133,,,,,,,2108,508,1004,503,993,506,feet,3,3,depth_discrimination_stimuli/001555_2014-06-20_17-12-10_260595134347_rgbf000065-resize_4/001555_2014-06-20_17-12-10_260595134347_rgbf000065-resize-original.jpg,5866,1475661,1586674,64
768539,DepthScenes,duration_discrimination,discrim_jsons/d0.json,http://54.173.234.186/DepthDuration/depth_discrimination_MTurk/DepthDiscrim_HTML.html#4,4,1519,864,1536,864,6-19-2021,15-12-35,134,,,,,,,2108,508,1004,503,993,506,feet,4,4,depth_discrimination_stimuli/002678_2014-06-13_16-15-32_094959634447_rgbf000151-resize_6/002678_2014-06-13_16-15-32_094959634447_rgbf000151-resize-original.jpg,5880,1475661,1586674,64
768539,DepthScenes,duration_discrimination,discrim_jsons/d0.json,http://54.173.234.186/DepthDuration/depth_discrimination_MTurk/DepthDiscrim_HTML.html#4,4,1519,864,1536,864,6-19-2021,15-12-35,135,,,,,,,2108,508,1004,503,993,506,feet,4,3,depth_discrimination_stimuli/002444_2014-06-28_20-32-08_260595134347_rgbf000027-resize_0/002444_2014-06-28_20-32-08_260595134347_rgbf000027-resize-original.jpg,5564,1475661,1586674,64
768539,DepthScenes,duration_discrimination,discrim_jsons/d0.json,http://54.173.234.186/DepthDuration/depth_discrimination_MTurk/DepthDiscrim_HTML.html#4,4,1519,864,1536,864,6-19-2021,15-12-35,136,,,,,,,2108,508,1004,503,993,506,feet,3,2,depth_discrimination_stimuli/002953_2014-06-08_17-32-18_094959634447_rgbf000059-resize_5/002953_2014-06-08_17-32-18_094959634447_rgbf000059-resize-original.jpg,4014,1475661,1586674,64
768539,DepthScenes,duration_discrimination,discrim_jsons/d0.json,http://54.173.234.186/DepthDuration/depth_discrimination_MTurk/DepthDiscrim_HTML.html#4,4,1519,864,1536,864,6-19-2021,15-12-35,137,,,,,,,2108,508,1004,503,993,506,feet,3,3,depth_discrimination_stimuli/002139_2014-06-25_21-19-37_260595134347_rgbf000124-resize_2/002139_2014-06-25_21-19-37_260595134347_rgbf000124-resize-original.jpg,3002,1475661,1586674,64
768539,DepthScenes,duration_discrimination,discrim_jsons/d0.json,http://54.173.234.186/DepthDuration/depth_discrimination_MTurk/DepthDiscrim_HTML.html#4,4,1519,864,1536,864,6-19-2021,15-12-35,138,,,,,,,2108,508,1004,503,993,506,feet,4,4,depth_discrimination_stimuli/003546_2014-05-22_15-48-53_094959634447_rgbf004816-resize_3/003546_2014-05-22_15-48-53_094959634447_rgbf004816-resize-original.jpg,7326,1475661,1586674,64
768539,DepthScenes,duration_discrimination,discrim_jsons/d0.json,http://54.173.234.186/DepthDuration/depth_discrimination_MTurk/DepthDiscrim_HTML.html#4,4,1519,864,1536,864,6-19-2021,15-12-35,139,,,,,,,2108,508,1004,503,993,506,feet,4,4,depth_discrimination_stimuli/002657_2014-06-13_15-29-54_094959634447_rgbf000150-resize_1/002657_2014-06-13_15-29-54_094959634447_rgbf000150-resize-original.jpg,6320,1475661,1586674,64
768539,DepthScenes,duration_discrimination,discrim_jsons/d0.json,http://54.173.234.186/DepthDuration/depth_discrimination_MTurk/DepthDiscrim_HTML.html#4,4,1519,864,1536,864,6-19-2021,15-12-35,140,,,,,,,2108,508,1004,503,993,506,feet,3,3,depth_discrimination_stimuli/000506_2014-06-08_23-21-00_260595134347_rgbf000070-resize_7/000506_2014-06-08_23-21-00_260595134347_rgbf000070-resize-original.jpg,6454,1475661,1586674,64
768539,DepthScenes,duration_discrimination,discrim_jsons/d0.json,http://54.173.234.186/DepthDuration/depth_discrimination_MTurk/DepthDiscrim_HTML.html#4,4,1519,864,1536,864,6-19-2021,15-12-35,141,,,,,,,2108,508,1004,503,993,506,feet,3,2,scene_property_catch_stimuli/000675_2014-06-08_22-59-18_260595134347_rgbf000096-resize.jpg,8482,1475661,1586674,64
768539,DepthScenes,duration_discrimination,discrim_jsons/d0.json,http://54.173.234.186/DepthDuration/depth_discrimination_MTurk/DepthDiscrim_HTML.html#4,4,1519,864,1536,864,6-19-2021,15-12-35,142,,,,,,,2108,508,1004,503,993,506,feet,4,3,depth_discrimination_stimuli/002700_2014-06-22_11-27-02_094959634447_rgbf000124-resize_3/002700_2014-06-22_11-27-02_094959634447_rgbf000124-resize-original.jpg,4213,1475661,1586674,64
768539,DepthScenes,duration_discrimination,discrim_jsons/d0.json,http://54.173.234.186/DepthDuration/depth_discrimination_MTurk/DepthDiscrim_HTML.html#4,4,1519,864,1536,864,6-19-2021,15-12-35,143,,,,,,,2108,508,1004,503,993,506,feet,5,3,depth_discrimination_stimuli/000483_2014-06-09_20-41-45_260595134347_rgbf000116-resize_4/000483_2014-06-09_20-41-45_260595134347_rgbf000116-resize-original.jpg,7193,1475661,1586674,64
768539,DepthScenes,duration_discrimination,discrim_jsons/d0.json,http://54.173.234.186/DepthDuration/depth_discrimination_MTurk/DepthDiscrim_HTML.html#4,4,1519,864,1536,864,6-19-2021,15-12-35,144,,,,,,,2108,508,1004,503,993,506,feet,3,2,depth_discrimination_stimuli/001618_2014-06-20_11-37-31_260595134347_rgbf000027-resize_3/001618_2014-06-20_11-37-31_260595134347_rgbf000027-resize-original.jpg,7345,1475661,1586674,64
768539,DepthScenes,duration_discrimination,discrim_jsons/d0.json,http://54.173.234.186/DepthDuration/depth_discrimination_MTurk/DepthDiscrim_HTML.html#4,4,1519,864,1536,864,6-19-2021,15-12-35,145,,,,,,,2108,508,1004,503,993,506,feet,5,3,depth_discrimination_stimuli/002445_2014-06-28_20-32-16_260595134347_rgbf000029-resize_4/002445_2014-06-28_20-32-16_260595134347_rgbf000029-resize-original.jpg,8746,1475661,1586674,64
768539,DepthScenes,duration_discrimination,discrim_jsons/d0.json,http://54.173.234.186/DepthDuration/depth_discrimination_MTurk/DepthDiscrim_HTML.html#4,4,1519,864,1536,864,6-19-2021,15-12-35,146,,,,,,,2108,508,1004,503,993,506,feet,2,3,depth_discrimination_stimuli/001164_2014-06-17_15-35-46_260595134347_rgbf000085-resize_3/001164_2014-06-17_15-35-46_260595134347_rgbf000085-resize-original.jpg,10080,1475661,1586674,64
768539,DepthScenes,duration_discrimination,discrim_jsons/d0.json,http://54.173.234.186/DepthDuration/depth_discrimination_MTurk/DepthDiscrim_HTML.html#4,4,1519,864,1536,864,6-19-2021,15-12-35,147,,,,,,,2108,508,1004,503,993,506,feet,3,2,depth_discrimination_stimuli/002209_2014-06-28_18-36-10_260595134347_rgbf000051-resize_1/002209_2014-06-28_18-36-10_260595134347_rgbf000051-resize-original.jpg,4352,1475661,1586674,64
768539,DepthScenes,duration_discrimination,discrim_jsons/d0.json,http://54.173.234.186/DepthDuration/depth_discrimination_MTurk/DepthDiscrim_HTML.html#4,4,1519,864,1536,864,6-19-2021,15-12-35,148,,,,,,,2108,508,1004,503,993,506,feet,4,2,depth_discrimination_stimuli/002305_2014-06-28_19-56-50_260595134347_rgbf000102-resize_7/002305_2014-06-28_19-56-50_260595134347_rgbf000102-resize-original.jpg,4352,1475661,1586674,64
768539,DepthScenes,duration_discrimination,discrim_jsons/d0.json,http://54.173.234.186/DepthDuration/depth_discrimination_MTurk/DepthDiscrim_HTML.html#4,4,1519,864,1536,864,6-19-2021,15-12-35,149,,,,,,,2108,508,1004,503,993,506,feet,3,2,depth_discrimination_stimuli/001055_2014-06-08_18-45-35_260595134347_rgbf000111-resize_4/001055_2014-06-08_18-45-35_260595134347_rgbf000111-resize-original.jpg,4297,1475661,1586674,64
768539,DepthScenes,duration_discrimination,discrim_jsons/d0.json,http://54.173.234.186/DepthDuration/depth_discrimination_MTurk/DepthDiscrim_HTML.html#4,4,1519,864,1536,864,6-19-2021,15-12-35,150,,,,,,,2108,508,1004,503,993,506,feet,3,3,depth_discrimination_stimuli/001570_2014-06-20_17-21-09_260595134347_rgbf000135-resize_4/001570_2014-06-20_17-21-09_260595134347_rgbf000135-resize-original.jpg,20806,1475661,1586674,64
768539,DepthScenes,duration_discrimination,discrim_jsons/d0.json,http://54.173.234.186/DepthDuration/depth_discrimination_MTurk/DepthDiscrim_HTML.html#4,4,1519,864,1536,864,6-19-2021,15-12-35,151,,,,,,,2108,508,1004,503,993,506,feet,3,3,depth_discrimination_stimuli/000470_2014-06-09_19-42-40_260595134347_rgbf000094-resize_1/000470_2014-06-09_19-42-40_260595134347_rgbf000094-resize-original.jpg,5008,1475661,1586674,64
768539,DepthScenes,duration_discrimination,discrim_jsons/d0.json,http://54.173.234.186/DepthDuration/depth_discrimination_MTurk/DepthDiscrim_HTML.html#4,4,1519,864,1536,864,6-19-2021,15-12-35,152,,,,,,,2108,508,1004,503,993,506,feet,3,3,depth_discrimination_stimuli/000469_2014-06-09_19-42-10_260595134347_rgbf000081-resize_1/000469_2014-06-09_19-42-10_260595134347_rgbf000081-resize-original.jpg,2955,1475661,1586674,64
768539,DepthScenes,duration_discrimination,discrim_jsons/d0.json,http://54.173.234.186/DepthDuration/depth_discrimination_MTurk/DepthDiscrim_HTML.html#4,4,1519,864,1536,864,6-19-2021,15-12-35,153,,,,,,,2108,508,1004,503,993,506,feet,4,2,depth_discrimination_stimuli/003069_2014-06-15_14-57-50_094959634447_rgbf000150-resize_4/003069_2014-06-15_14-57-50_094959634447_rgbf000150-resize-original.jpg,4036,1475661,1586674,64
768539,DepthScenes,duration_discrimination,discrim_jsons/d0.json,http://54.173.234.186/DepthDuration/depth_discrimination_MTurk/DepthDiscrim_HTML.html#4,4,1519,864,1536,864,6-19-2021,15-12-35,154,,,,,,,2108,508,1004,503,993,506,feet,3,4,depth_discrimination_stimuli/000810_2014-06-08_17-20-01_260595134347_rgbf000105-resize_0/000810_2014-06-08_17-20-01_260595134347_rgbf000105-resize-original.jpg,6428,1475661,1586674,64
768539,DepthScenes,duration_discrimination,discrim_jsons/d0.json,http://54.173.234.186/DepthDuration/depth_discrimination_MTurk/DepthDiscrim_HTML.html#4,4,1519,864,1536,864,6-19-2021,15-12-35,155,,,,,,,2108,508,1004,503,993,506,feet,3,4,depth_discrimination_stimuli/001571_2014-06-20_17-21-32_260595134347_rgbf000089-resize_1/001571_2014-06-20_17-21-32_260595134347_rgbf000089-resize-original.jpg,5934,1475661,1586674,64
768539,DepthScenes,duration_discrimination,discrim_jsons/d0.json,http://54.173.234.186/DepthDuration/depth_discrimination_MTurk/DepthDiscrim_HTML.html#4,4,1519,864,1536,864,6-19-2021,15-12-35,156,,,,,,,2108,508,1004,503,993,506,feet,4,1,depth_discrimination_stimuli/002460_2014-06-28_20-35-43_260595134347_rgbf000028-resize_4/002460_2014-06-28_20-35-43_260595134347_rgbf000028-resize-original.jpg,6512,1475661,1586674,64
768539,DepthScenes,duration_discrimination,discrim_jsons/d0.json,http://54.173.234.186/DepthDuration/depth_discrimination_MTurk/DepthDiscrim_HTML.html#4,4,1519,864,1536,864,6-19-2021,15-12-35,157,,,,,,,2108,508,1004,503,993,506,feet,5,5,depth_discrimination_stimuli/002600_2014-06-24_14-27-04_094959634447_rgbf000074-resize_2/002600_2014-06-24_14-27-04_094959634447_rgbf000074-resize-original.jpg,3927,1475661,1586674,64
768539,DepthScenes,duration_discrimination,discrim_jsons/d0.json,http://54.173.234.186/DepthDuration/depth_discrimination_MTurk/DepthDiscrim_HTML.html#4,4,1519,864,1536,864,6-19-2021,15-12-35,158,,,,,,,2108,508,1004,503,993,506,feet,3,2,depth_discrimination_stimuli/000780_2014-06-08_22-28-29_260595134347_rgbf000126-resize_1/000780_2014-06-08_22-28-29_260595134347_rgbf000126-resize-original.jpg,5014,1475661,1586674,64
768539,DepthScenes,duration_discrimination,discrim_jsons/d0.json,http://54.173.234.186/DepthDuration/depth_discrimination_MTurk/DepthDiscrim_HTML.html#4,4,1519,864,1536,864,6-19-2021,15-12-35,159,,,,,,,2108,508,1004,503,993,506,feet,3,3,depth_discrimination_stimuli/000682_2014-06-08_23-14-58_260595134347_rgbf000041-resize_5/000682_2014-06-08_23-14-58_260595134347_rgbf000041-resize-original.jpg,3788,1475661,1586674,64
768539,DepthScenes,duration_discrimination,discrim_jsons/d0.json,http://54.173.234.186/DepthDuration/depth_discrimination_MTurk/DepthDiscrim_HTML.html#4,4,1519,864,1536,864,6-19-2021,15-12-35,160,,,,,,,2108,508,1004,503,993,506,feet,3,2,depth_discrimination_stimuli/002131_2014-06-25_21-12-01_260595134347_rgbf000083-resize_0/002131_2014-06-25_21-12-01_260595134347_rgbf000083-resize-original.jpg,4213,1475661,1586674,64
768539,DepthScenes,duration_discrimination,discrim_jsons/d0.json,http://54.173.234.186/DepthDuration/depth_discrimination_MTurk/DepthDiscrim_HTML.html#4,4,1519,864,1536,864,6-19-2021,15-12-35,161,,,,,,,2108,508,1004,503,993,506,feet,4,4,depth_discrimination_stimuli/000691_2014-06-08_13-08-50_260595134347_rgbf000132-resize_3/000691_2014-06-08_13-08-50_260595134347_rgbf000132-resize-original.jpg,6873,1475661,1586674,64
768539,DepthScenes,duration_discrimination,discrim_jsons/d0.json,http://54.173.234.186/DepthDuration/depth_discrimination_MTurk/DepthDiscrim_HTML.html#4,4,1519,864,1536,864,6-19-2021,15-12-35,162,,,,,,,2108,508,1004,503,993,506,feet,4,4,depth_discrimination_stimuli/001810_2014-06-26_20-51-35_260595134347_rgbf000040-resize_3/001810_2014-06-26_20-51-35_260595134347_rgbf000040-resize-original.jpg,5972,1475661,1586674,64
768539,DepthScenes,duration_discrimination,discrim_jsons/d0.json,http://54.173.234.186/DepthDuration/depth_discrimination_MTurk/DepthDiscrim_HTML.html#4,4,1519,864,1536,864,6-19-2021,15-12-35,163,,,,,,,2108,508,1004,503,993,506,feet,4,4,depth_discrimination_stimuli/001815_2014-06-26_20-52-55_260595134347_rgbf000020-resize_0/001815_2014-06-26_20-52-55_260595134347_rgbf000020-resize-original.jpg,2955,1475661,1586674,64
768539,DepthScenes,duration_discrimination,discrim_jsons/d0.json,http://54.173.234.186/DepthDuration/depth_discrimination_MTurk/DepthDiscrim_HTML.html#4,4,1519,864,1536,864,6-19-2021,15-12-35,164,,,,,,,2108,508,1004,503,993,506,feet,3,4,depth_discrimination_stimuli/003079_2014-06-15_15-18-20_094959634447_rgbf000152-resize_8/003079_2014-06-15_15-18-20_094959634447_rgbf000152-resize-original.jpg,3628,1475661,1586674,64
768539,DepthScenes,duration_discrimination,discrim_jsons/d0.json,http://54.173.234.186/DepthDuration/depth_discrimination_MTurk/DepthDiscrim_HTML.html#4,4,1519,864,1536,864,6-19-2021,15-12-35,165,,,,,,,2108,508,1004,503,993,506,feet,3,3,depth_discrimination_stimuli/003048_2014-06-15_13-49-43_094959634447_rgbf000150-resize_1/003048_2014-06-15_13-49-43_094959634447_rgbf000150-resize-original.jpg,3264,1475661,1586674,64
768539,DepthScenes,duration_discrimination,discrim_jsons/d0.json,http://54.173.234.186/DepthDuration/depth_discrimination_MTurk/DepthDiscrim_HTML.html#4,4,1519,864,1536,864,6-19-2021,15-12-35,166,,,,,,,2108,508,1004,503,993,506,feet,3,4,depth_discrimination_stimuli/001828_2014-06-26_21-40-03_260595134347_rgbf000024-resize_0/001828_2014-06-26_21-40-03_260595134347_rgbf000024-resize-original.jpg,5377,1475661,1586674,64
768539,DepthScenes,duration_discrimination,discrim_jsons/d0.json,http://54.173.234.186/DepthDuration/depth_discrimination_MTurk/DepthDiscrim_HTML.html#4,4,1519,864,1536,864,6-19-2021,15-12-35,167,,,,,,,2108,508,1004,503,993,506,feet,3,2,depth_discrimination_stimuli/003621_2014-05-23_18-06-08_094959634447_rgbf000101-resize_1/003621_2014-05-23_18-06-08_094959634447_rgbf000101-resize-original.jpg,3944,1475661,1586674,64
768539,DepthScenes,duration_discrimination,discrim_jsons/d0.json,http://54.173.234.186/DepthDuration/depth_discrimination_MTurk/DepthDiscrim_HTML.html#4,4,1519,864,1536,864,6-19-2021,15-12-35,168,,,,,,,2108,508,1004,503,993,506,feet,3,3,depth_discrimination_stimuli/001150_2014-06-17_15-27-34_260595134347_rgbf000108-resize_2/001150_2014-06-17_15-27-34_260595134347_rgbf000108-resize-original.jpg,2970,1475661,1586674,64
768539,DepthScenes,duration_discrimination,discrim_jsons/d0.json,http://54.173.234.186/DepthDuration/depth_discrimination_MTurk/DepthDiscrim_HTML.html#4,4,1519,864,1536,864,6-19-2021,15-12-35,169,,,,,,,2108,508,1004,503,993,506,feet,3,3,depth_discrimination_stimuli/000869_2014-06-09_20-50-18_260595134347_rgbf000060-resize_3/000869_2014-06-09_20-50-18_260595134347_rgbf000060-resize-original.jpg,4076,1475661,1586674,64
768539,DepthScenes,duration_discrimination,discrim_jsons/d0.json,http://54.173.234.186/DepthDuration/depth_discrimination_MTurk/DepthDiscrim_HTML.html#4,4,1519,864,1536,864,6-19-2021,15-12-35,170,,,,,,,2108,508,1004,503,993,506,feet,3,4,depth_discrimination_stimuli/002467_2014-06-28_20-38-07_260595134347_rgbf000026-resize_2/002467_2014-06-28_20-38-07_260595134347_rgbf000026-resize-original.jpg,11582,1475661,1586674,64
768539,DepthScenes,duration_discrimination,discrim_jsons/d0.json,http://54.173.234.186/DepthDuration/depth_discrimination_MTurk/DepthDiscrim_HTML.html#4,4,1519,864,1536,864,6-19-2021,15-12-35,171,,,,,,,2108,508,1004,503,993,506,feet,3,3,depth_discrimination_stimuli/002153_2014-06-25_21-27-18_260595134347_rgbf000038-resize_5/002153_2014-06-25_21-27-18_260595134347_rgbf000038-resize-original.jpg,3100,1475661,1586674,64
768539,DepthScenes,duration_discrimination,discrim_jsons/d0.json,http://54.173.234.186/DepthDuration/depth_discrimination_MTurk/DepthDiscrim_HTML.html#4,4,1519,864,1536,864,6-19-2021,15-12-35,172,,,,,,,2108,508,1004,503,993,506,feet,3,1,depth_discrimination_stimuli/000521_2014-06-08_13-34-35_260595134347_rgbf000191-resize_2/000521_2014-06-08_13-34-35_260595134347_rgbf000191-resize-original.jpg,4313,1475661,1586674,64
768539,DepthScenes,duration_discrimination,discrim_jsons/d0.json,http://54.173.234.186/DepthDuration/depth_discrimination_MTurk/DepthDiscrim_HTML.html#4,4,1519,864,1536,864,6-19-2021,15-12-35,173,,,,,,,2108,508,1004,503,993,506,feet,3,2,depth_discrimination_stimuli/002344_2014-06-28_20-06-29_260595134347_rgbf000030-resize_1/002344_2014-06-28_20-06-29_260595134347_rgbf000030-resize-original.jpg,3843,1475661,1586674,64
768539,DepthScenes,duration_discrimination,discrim_jsons/d0.json,http://54.173.234.186/DepthDuration/depth_discrimination_MTurk/DepthDiscrim_HTML.html#4,4,1519,864,1536,864,6-19-2021,15-12-35,174,,,,,,,2108,508,1004,503,993,506,feet,3,4,depth_discrimination_stimuli/003292_2014-05-14_21-53-49_094959634447_rgbf000100-resize_2/003292_2014-05-14_21-53-49_094959634447_rgbf000100-resize-original.jpg,4589,1475661,1586674,64
768539,DepthScenes,duration_discrimination,discrim_jsons/d0.json,http://54.173.234.186/DepthDuration/depth_discrimination_MTurk/DepthDiscrim_HTML.html#4,4,1519,864,1536,864,6-19-2021,15-12-35,175,,,,,,,2108,508,1004,503,993,506,feet,3,2,depth_discrimination_stimuli/000677_2014-06-08_23-10-32_260595134347_rgbf000158-resize_6/000677_2014-06-08_23-10-32_260595134347_rgbf000158-resize-original.jpg,3842,1475661,1586674,64
768539,DepthScenes,duration_discrimination,discrim_jsons/d0.json,http://54.173.234.186/DepthDuration/depth_discrimination_MTurk/DepthDiscrim_HTML.html#4,4,1519,864,1536,864,6-19-2021,15-12-35,176,,,,,,,2108,508,1004,503,993,506,feet,3,3,depth_discrimination_stimuli/001167_2014-06-17_15-38-07_260595134347_rgbf000108-resize_0/001167_2014-06-17_15-38-07_260595134347_rgbf000108-resize-original.jpg,3563,1475661,1586674,64
768539,DepthScenes,duration_discrimination,discrim_jsons/d0.json,http://54.173.234.186/DepthDuration/depth_discrimination_MTurk/DepthDiscrim_HTML.html#4,4,1519,864,1536,864,6-19-2021,15-12-35,177,,,,,,,2108,508,1004,503,993,506,feet,3,2,depth_discrimination_stimuli/003495_2014-05-21_16-01-51_094959634447_rgbf000100-resize_3/003495_2014-05-21_16-01-51_094959634447_rgbf000100-resize-original.jpg,4675,1475661,1586674,64
768539,DepthScenes,duration_discrimination,discrim_jsons/d0.json,http://54.173.234.186/DepthDuration/depth_discrimination_MTurk/DepthDiscrim_HTML.html#4,4,1519,864,1536,864,6-19-2021,15-12-35,178,,,,,,,2108,508,1004,503,993,506,feet,3,3,depth_discrimination_stimuli/003288_2014-05-14_21-50-30_094959634447_rgbf000028-resize_3/003288_2014-05-14_21-50-30_094959634447_rgbf000028-resize-original.jpg,4074,1475661,1586674,64
768539,DepthScenes,duration_discrimination,discrim_jsons/d0.json,http://54.173.234.186/DepthDuration/depth_discrimination_MTurk/DepthDiscrim_HTML.html#4,4,1519,864,1536,864,6-19-2021,15-12-35,179,,,,,,,2108,508,1004,503,993,506,feet,4,5,depth_discrimination_stimuli/002805_2014-06-22_19-54-03_094959634447_rgbf000079-resize_1/002805_2014-06-22_19-54-03_094959634447_rgbf000079-resize-original.jpg,5902,1475661,1586674,64
768539,DepthScenes,duration_discrimination,discrim_jsons/d0.json,http://54.173.234.186/DepthDuration/depth_discrimination_MTurk/DepthDiscrim_HTML.html#4,4,1519,864,1536,864,6-19-2021,15-12-35,180,,,,,,,2108,508,1004,503,993,506,feet,3,1,depth_discrimination_stimuli/002340_2014-06-28_20-05-46_260595134347_rgbf000113-resize_0/002340_2014-06-28_20-05-46_260595134347_rgbf000113-resize-original.jpg,3926,1475661,1586674,64
768539,DepthScenes,duration_discrimination,discrim_jsons/d0.json,http://54.173.234.186/DepthDuration/depth_discrimination_MTurk/DepthDiscrim_HTML.html#4,4,1519,864,1536,864,6-19-2021,15-12-35,181,,,,,,,2108,508,1004,503,993,506,feet,5,3,depth_discrimination_stimuli/002468_2014-06-28_20-38-39_260595134347_rgbf000045-resize_1/002468_2014-06-28_20-38-39_260595134347_rgbf000045-resize-original.jpg,4012,1475661,1586674,64
768539,DepthScenes,duration_discrimination,discrim_jsons/d0.json,http://54.173.234.186/DepthDuration/depth_discrimination_MTurk/DepthDiscrim_HTML.html#4,4,1519,864,1536,864,6-19-2021,15-12-35,182,,,,,,,2108,508,1004,503,993,506,feet,3,2,depth_discrimination_stimuli/000800_2014-06-08_22-42-09_260595134347_rgbf000095-resize_3/000800_2014-06-08_22-42-09_260595134347_rgbf000095-resize-original.jpg,2840,1475661,1586674,64
768539,DepthScenes,duration_discrimination,discrim_jsons/d0.json,http://54.173.234.186/DepthDuration/depth_discrimination_MTurk/DepthDiscrim_HTML.html#4,4,1519,864,1536,864,6-19-2021,15-12-35,183,,,,,,,2108,508,1004,503,993,506,feet,3,3,depth_discrimination_stimuli/001029_2014-06-08_13-17-57_260595134347_rgbf000065-resize_1/001029_2014-06-08_13-17-57_260595134347_rgbf000065-resize-original.jpg,2986,1475661,1586674,64
768539,DepthScenes,duration_discrimination,discrim_jsons/d0.json,http://54.173.234.186/DepthDuration/depth_discrimination_MTurk/DepthDiscrim_HTML.html#4,4,1519,864,1536,864,6-19-2021,15-12-35,184,,,,,,,2108,508,1004,503,993,506,feet,4,4,depth_discrimination_stimuli/003587_2014-05-23_16-48-02_094959634447_rgbf002384-resize_2/003587_2014-05-23_16-48-02_094959634447_rgbf002384-resize-original.jpg,3763,1475661,1586674,64
768539,DepthScenes,duration_discrimination,discrim_jsons/d0.json,http://54.173.234.186/DepthDuration/depth_discrimination_MTurk/DepthDiscrim_HTML.html#4,4,1519,864,1536,864,6-19-2021,15-12-35,185,,,,,,,2108,508,1004,503,993,506,feet,3,2,depth_discrimination_stimuli/000773_2014-06-08_22-24-54_260595134347_rgbf000093-resize_1/000773_2014-06-08_22-24-54_260595134347_rgbf000093-resize-original.jpg,4994,1475661,1586674,64
768539,DepthScenes,duration_discrimination,discrim_jsons/d0.json,http://54.173.234.186/DepthDuration/depth_discrimination_MTurk/DepthDiscrim_HTML.html#4,4,1519,864,1536,864,6-19-2021,15-12-35,186,,,,,,,2108,508,1004,503,993,506,feet,4,3,depth_discrimination_stimuli/002995_2014-06-15_12-31-26_094959634447_rgbf000150-resize_1/002995_2014-06-15_12-31-26_094959634447_rgbf000150-resize-original.jpg,10478,1475661,1586674,64
768539,DepthScenes,duration_discrimination,discrim_jsons/d0.json,http://54.173.234.186/DepthDuration/depth_discrimination_MTurk/DepthDiscrim_HTML.html#4,4,1519,864,1536,864,6-19-2021,15-12-35,187,,,,,,,2108,508,1004,503,993,506,feet,4,2,depth_discrimination_stimuli/000740_2014-06-08_18-46-23_260595134347_rgbf000049-resize_6/000740_2014-06-08_18-46-23_260595134347_rgbf000049-resize-original.jpg,3571,1475661,1586674,64
768539,DepthScenes,duration_discrimination,discrim_jsons/d0.json,http://54.173.234.186/DepthDuration/depth_discrimination_MTurk/DepthDiscrim_HTML.html#4,4,1519,864,1536,864,6-19-2021,15-12-35,188,,,,,,,2108,508,1004,503,993,506,feet,4,4,depth_discrimination_stimuli/002545_2014-06-24_13-38-53_094959634447_rgbf000080-resize_4/002545_2014-06-24_13-38-53_094959634447_rgbf000080-resize-original.jpg,5631,1475661,1586674,64
768539,DepthScenes,duration_discrimination,discrim_jsons/d0.json,http://54.173.234.186/DepthDuration/depth_discrimination_MTurk/DepthDiscrim_HTML.html#4,4,1519,864,1536,864,6-19-2021,15-12-35,189,,,,,,,2108,508,1004,503,993,506,feet,3,3,depth_discrimination_stimuli/002464_2014-06-28_20-36-57_260595134347_rgbf000029-resize_0/002464_2014-06-28_20-36-57_260595134347_rgbf000029-resize-original.jpg,5757,1475661,1586674,64
768539,DepthScenes,duration_discrimination,discrim_jsons/d0.json,http://54.173.234.186/DepthDuration/depth_discrimination_MTurk/DepthDiscrim_HTML.html#4,4,1519,864,1536,864,6-19-2021,15-12-35,190,,,,,,,2108,508,1004,503,993,506,feet,4,2,depth_discrimination_stimuli/003070_2014-06-15_14-58-27_094959634447_rgbf000150-resize_3/003070_2014-06-15_14-58-27_094959634447_rgbf000150-resize-original.jpg,6526,1475661,1586674,64
768539,DepthScenes,duration_discrimination,discrim_jsons/d0.json,http://54.173.234.186/DepthDuration/depth_discrimination_MTurk/DepthDiscrim_HTML.html#4,4,1519,864,1536,864,6-19-2021,15-12-35,191,,,,,,,2108,508,1004,503,993,506,feet,4,2,depth_discrimination_stimuli/003490_2014-05-21_15-50-11_094959634447_rgbf000101-resize_3/003490_2014-05-21_15-50-11_094959634447_rgbf000101-resize-original.jpg,5362,1475661,1586674,64
768539,DepthScenes,duration_discrimination,discrim_jsons/d0.json,http://54.173.234.186/DepthDuration/depth_discrimination_MTurk/DepthDiscrim_HTML.html#4,4,1519,864,1536,864,6-19-2021,15-12-35,192,,,,,,,2108,508,1004,503,993,506,feet,4,2,depth_discrimination_stimuli/002213_2014-06-28_18-37-58_260595134347_rgbf000055-resize_1/002213_2014-06-28_18-37-58_260595134347_rgbf000055-resize-original.jpg,4575,1475661,1586674,64
768539,DepthScenes,duration_discrimination,discrim_jsons/d0.json,http://54.173.234.186/DepthDuration/depth_discrimination_MTurk/DepthDiscrim_HTML.html#4,4,1519,864,1536,864,6-19-2021,15-12-35,193,,,,,,,2108,508,1004,503,993,506,feet,3,1,depth_discrimination_stimuli/002763_2014-06-22_19-13-10_094959634447_rgbf000075-resize_4/002763_2014-06-22_19-13-10_094959634447_rgbf000075-resize-original.jpg,4296,1475661,1586674,64
768539,DepthScenes,duration_discrimination,discrim_jsons/d0.json,http://54.173.234.186/DepthDuration/depth_discrimination_MTurk/DepthDiscrim_HTML.html#4,4,1519,864,1536,864,6-19-2021,15-12-35,194,,,,,,,2108,508,1004,503,993,506,feet,4,3,depth_discrimination_stimuli/000549_2014-06-08_22-10-24_260595134347_rgbf000247-resize_3/000549_2014-06-08_22-10-24_260595134347_rgbf000247-resize-original.jpg,3502,1475661,1586674,64
768539,DepthScenes,duration_discrimination,discrim_jsons/d0.json,http://54.173.234.186/DepthDuration/depth_discrimination_MTurk/DepthDiscrim_HTML.html#4,4,1519,864,1536,864,6-19-2021,15-12-35,195,,,,,,,2108,508,1004,503,993,506,feet,4,3,depth_discrimination_stimuli/000486_2014-06-09_20-47-20_260595134347_rgbf000143-resize_2/000486_2014-06-09_20-47-20_260595134347_rgbf000143-resize-original.jpg,4435,1475661,1586674,64
768539,DepthScenes,duration_discrimination,discrim_jsons/d0.json,http://54.173.234.186/DepthDuration/depth_discrimination_MTurk/DepthDiscrim_HTML.html#4,4,1519,864,1536,864,6-19-2021,15-12-35,196,,,,,,,2108,508,1004,503,993,506,feet,3,3,depth_discrimination_stimuli/001011_2014-06-08_23-18-54_260595134347_rgbf000044-resize_4/001011_2014-06-08_23-18-54_260595134347_rgbf000044-resize-original.jpg,6635,1475661,1586674,64
768539,DepthScenes,duration_discrimination,discrim_jsons/d0.json,http://54.173.234.186/DepthDuration/depth_discrimination_MTurk/DepthDiscrim_HTML.html#4,4,1519,864,1536,864,6-19-2021,15-12-35,197,,,,,,,2108,508,1004,503,993,506,feet,4,2,depth_discrimination_stimuli/002660_2014-06-13_15-44-18_094959634447_rgbf001878-resize_2/002660_2014-06-13_15-44-18_094959634447_rgbf001878-resize-original.jpg,6279,1475661,1586674,64
768539,DepthScenes,duration_discrimination,discrim_jsons/d0.json,http://54.173.234.186/DepthDuration/depth_discrimination_MTurk/DepthDiscrim_HTML.html#4,4,1519,864,1536,864,6-19-2021,15-12-35,198,,,,,,,2108,508,1004,503,993,506,feet,4,1,depth_discrimination_stimuli/002509_2014-06-24_13-19-22_094959634447_rgbf000077-resize_0/002509_2014-06-24_13-19-22_094959634447_rgbf000077-resize-original.jpg,3850,1475661,1586674,64
