subjID,experimentName,versionName,sequenceName,url,selected_row,windowWidth,windowHeight,screenWidth,screenHeight,startDate,startTime,trial,stimulus_0,stimulus_1,duration,actual_depth_0,actual_depth_1,discrim_choice,trial_RT,log_fixation,log_sceneDuration1,log_mask1,log_sceneDuration2,log_mask2,unitSelection,meanDepth_rating,navigability_rating,rated_stimulus,rating_RT,experimentTime,totalTime,age
260059,DepthScenes,duration_discrimination,discrim_jsons/d0_rotated_dr.json,http://54.173.234.186/DepthDuration/depth_discrimination_MTurk/DepthDiscrim_HTML.html#2,2,1366,768,1366,768,6-19-2021,15-9-19,1,depth_discrimination_stimuli/002103_2014-06-25_20-00-40_260595134347_rgbf000049-resize_0/002103_2014-06-25_20-00-40_260595134347_rgbf000049-resize_0-target.png,depth_discrimination_stimuli/000692_2014-06-08_13-09-42_260595134347_rgbf000199-resize_2/000692_2014-06-08_13-09-42_260595134347_rgbf000199-resize_2-target.png,1000,4.105,3.661,0,7156,501,1000,499,1001,499,feet,,,,,1776244,2111731,39
260059,DepthScenes,duration_discrimination,discrim_jsons/d0_rotated_dr.json,http://54.173.234.186/DepthDuration/depth_discrimination_MTurk/DepthDiscrim_HTML.html#2,2,1366,768,1366,768,6-19-2021,15-9-19,2,depth_discrimination_stimuli/002468_2014-06-28_20-38-39_260595134347_rgbf000045-resize_1/002468_2014-06-28_20-38-39_260595134347_rgbf000045-resize_1-target.png,depth_discrimination_stimuli/002579_2014-06-24_14-08-03_094959634447_rgbf000061-resize_2/002579_2014-06-24_14-08-03_094959634447_rgbf000061-resize_2-target.png,1000,1.956,2.223125,1,2245,503,998,499,1005,496,feet,,,,,1776244,2111731,39
260059,DepthScenes,duration_discrimination,discrim_jsons/d0_rotated_dr.json,http://54.173.234.186/DepthDuration/depth_discrimination_MTurk/DepthDiscrim_HTML.html#2,2,1366,768,1366,768,6-19-2021,15-9-19,3,depth_discrimination_stimuli/002039_2014-06-24_20-22-38_260595134347_rgbf000084-resize_1/002039_2014-06-24_20-22-38_260595134347_rgbf000084-resize_1-target.png,depth_discrimination_stimuli/001450_2014-06-19_17-02-03_260595134347_rgbf000203-resize_4/001450_2014-06-19_17-02-03_260595134347_rgbf000203-resize_4-target.png,1000,4.408,4.0106666666667,0,2288,500,1001,500,999,500,feet,,,,,1776244,2111731,39
260059,DepthScenes,duration_discrimination,discrim_jsons/d0_rotated_dr.json,http://54.173.234.186/DepthDuration/depth_discrimination_MTurk/DepthDiscrim_HTML.html#2,2,1366,768,1366,768,6-19-2021,15-9-19,4,depth_discrimination_stimuli/000943_2014-06-09_19-31-07_260595134347_rgbf000128-resize_1/000943_2014-06-09_19-31-07_260595134347_rgbf000128-resize_1-target.png,depth_discrimination_stimuli/001555_2014-06-20_17-12-10_260595134347_rgbf000065-resize_4/001555_2014-06-20_17-12-10_260595134347_rgbf000065-resize_4-target.png,250,1.9765,1.633,0,3373,500,251,500,251,500,feet,,,,,1776244,2111731,39
260059,DepthScenes,duration_discrimination,discrim_jsons/d0_rotated_dr.json,http://54.173.234.186/DepthDuration/depth_discrimination_MTurk/DepthDiscrim_HTML.html#2,2,1366,768,1366,768,6-19-2021,15-9-19,5,depth_discrimination_stimuli/000709_2014-06-08_13-51-55_260595134347_rgbf000068-resize_3/000709_2014-06-08_13-51-55_260595134347_rgbf000068-resize_3-target.png,depth_discrimination_stimuli/003587_2014-05-23_16-48-02_094959634447_rgbf002384-resize_2/003587_2014-05-23_16-48-02_094959634447_rgbf002384-resize_2-target.png,1000,1.803,1.357,1,6616,501,999,501,999,501,feet,,,,,1776244,2111731,39
260059,DepthScenes,duration_discrimination,discrim_jsons/d0_rotated_dr.json,http://54.173.234.186/DepthDuration/depth_discrimination_MTurk/DepthDiscrim_HTML.html#2,2,1366,768,1366,768,6-19-2021,15-9-19,6,depth_discrimination_stimuli/002136_2014-06-25_21-18-03_260595134347_rgbf000109-resize_3/002136_2014-06-25_21-18-03_260595134347_rgbf000109-resize_3-target.png,depth_discrimination_stimuli/000469_2014-06-09_19-42-10_260595134347_rgbf000081-resize_1/000469_2014-06-09_19-42-10_260595134347_rgbf000081-resize_1-target.png,1000,1.957,1.652,1,3374,501,1000,504,997,500,feet,,,,,1776244,2111731,39
260059,DepthScenes,duration_discrimination,discrim_jsons/d0_rotated_dr.json,http://54.173.234.186/DepthDuration/depth_discrimination_MTurk/DepthDiscrim_HTML.html#2,2,1366,768,1366,768,6-19-2021,15-9-19,7,depth_discrimination_stimuli/002344_2014-06-28_20-06-29_260595134347_rgbf000030-resize_1/002344_2014-06-28_20-06-29_260595134347_rgbf000030-resize_1-target.png,depth_discrimination_stimuli/002509_2014-06-24_13-19-22_094959634447_rgbf000077-resize_0/002509_2014-06-24_13-19-22_094959634447_rgbf000077-resize_0-target.png,1000,1.5795,1.3065,1,2338,502,1000,500,999,501,feet,,,,,1776244,2111731,39
260059,DepthScenes,duration_discrimination,discrim_jsons/d0_rotated_dr.json,http://54.173.234.186/DepthDuration/depth_discrimination_MTurk/DepthDiscrim_HTML.html#2,2,1366,768,1366,768,6-19-2021,15-9-19,8,depth_discrimination_stimuli/002464_2014-06-28_20-36-57_260595134347_rgbf000029-resize_0/002464_2014-06-28_20-36-57_260595134347_rgbf000029-resize_0-target.png,depth_discrimination_stimuli/000409_2014-06-04_19-23-33_260595134347_rgbf000067-resize_0/000409_2014-06-04_19-23-33_260595134347_rgbf000067-resize_0-target.png,250,3.9525,3.7335,0,3927,502,249,501,250,499,feet,,,,,1776244,2111731,39
260059,DepthScenes,duration_discrimination,discrim_jsons/d0_rotated_dr.json,http://54.173.234.186/DepthDuration/depth_discrimination_MTurk/DepthDiscrim_HTML.html#2,2,1366,768,1366,768,6-19-2021,15-9-19,9,depth_discrimination_stimuli/003048_2014-06-15_13-49-43_094959634447_rgbf000150-resize_1/003048_2014-06-15_13-49-43_094959634447_rgbf000150-resize_1-target.png,depth_discrimination_stimuli/002444_2014-06-28_20-32-08_260595134347_rgbf000027-resize_0/002444_2014-06-28_20-32-08_260595134347_rgbf000027-resize_0-target.png,250,4.0035,4.389,1,4287,502,250,500,249,506,feet,,,,,1776244,2111731,39
260059,DepthScenes,duration_discrimination,discrim_jsons/d0_rotated_dr.json,http://54.173.234.186/DepthDuration/depth_discrimination_MTurk/DepthDiscrim_HTML.html#2,2,1366,768,1366,768,6-19-2021,15-9-19,10,depth_discrimination_stimuli/002630_2014-06-24_14-47-50_094959634447_rgbf000055-resize_1/002630_2014-06-24_14-47-50_094959634447_rgbf000055-resize_1-target.png,depth_discrimination_stimuli/001449_2014-06-19_17-01-27_260595134347_rgbf000116-resize_2/001449_2014-06-19_17-01-27_260595134347_rgbf000116-resize_2-target.png,1000,3.0095,3.452,1,2325,501,1000,500,1000,499,feet,,,,,1776244,2111731,39
260059,DepthScenes,duration_discrimination,discrim_jsons/d0_rotated_dr.json,http://54.173.234.186/DepthDuration/depth_discrimination_MTurk/DepthDiscrim_HTML.html#2,2,1366,768,1366,768,6-19-2021,15-9-19,11,depth_discrimination_stimuli/002131_2014-06-25_21-12-01_260595134347_rgbf000083-resize_0/002131_2014-06-25_21-12-01_260595134347_rgbf000083-resize_0-target.png,depth_discrimination_stimuli/001100_2014-06-15_17-46-26_260595134347_rgbf000225-resize_2/001100_2014-06-15_17-46-26_260595134347_rgbf000225-resize_2-target.png,250,1.7685,2.24,1,1959,501,250,500,250,500,feet,,,,,1776244,2111731,39
260059,DepthScenes,duration_discrimination,discrim_jsons/d0_rotated_dr.json,http://54.173.234.186/DepthDuration/depth_discrimination_MTurk/DepthDiscrim_HTML.html#2,2,1366,768,1366,768,6-19-2021,15-9-19,12,depth_discrimination_stimuli/002949_2014-06-26_15-57-42_094959634447_rgbf000079-resize_1/002949_2014-06-26_15-57-42_094959634447_rgbf000079-resize_1-target.png,depth_discrimination_stimuli/002279_2014-06-28_18-55-32_260595134347_rgbf000040-resize_5/002279_2014-06-28_18-55-32_260595134347_rgbf000040-resize_5-target.png,250,1.8915,1.5043333333333,1,1666,500,251,500,251,500,feet,,,,,1776244,2111731,39
260059,DepthScenes,duration_discrimination,discrim_jsons/d0_rotated_dr.json,http://54.173.234.186/DepthDuration/depth_discrimination_MTurk/DepthDiscrim_HTML.html#2,2,1366,768,1366,768,6-19-2021,15-9-19,13,depth_discrimination_stimuli/001516_2014-06-20_16-25-09_260595134347_rgbf000076-resize_2/001516_2014-06-20_16-25-09_260595134347_rgbf000076-resize_2-target.png,depth_discrimination_stimuli/000635_2014-06-08_16-38-42_260595134347_rgbf000106-resize_1/000635_2014-06-08_16-38-42_260595134347_rgbf000106-resize_1-target.png,250,1.7445,2.074,1,1408,501,250,500,250,523,feet,,,,,1776244,2111731,39
260059,DepthScenes,duration_discrimination,discrim_jsons/d0_rotated_dr.json,http://54.173.234.186/DepthDuration/depth_discrimination_MTurk/DepthDiscrim_HTML.html#2,2,1366,768,1366,768,6-19-2021,15-9-19,14,depth_discrimination_stimuli/001148_2014-06-17_15-26-42_260595134347_rgbf000129-resize_0/001148_2014-06-17_15-26-42_260595134347_rgbf000129-resize_0-target.png,depth_discrimination_stimuli/000734_2014-06-08_17-39-11_260595134347_rgbf000128-resize_2/000734_2014-06-08_17-39-11_260595134347_rgbf000128-resize_2-target.png,1000,4.368,4.098,0,2556,502,1000,500,1000,500,feet,,,,,1776244,2111731,39
260059,DepthScenes,duration_discrimination,discrim_jsons/d0_rotated_dr.json,http://54.173.234.186/DepthDuration/depth_discrimination_MTurk/DepthDiscrim_HTML.html#2,2,1366,768,1366,768,6-19-2021,15-9-19,15,depth_discrimination_stimuli/002043_2014-06-24_20-29-38_260595134347_rgbf000039-resize_4/002043_2014-06-24_20-29-38_260595134347_rgbf000039-resize_4-target.png,depth_discrimination_stimuli/002445_2014-06-28_20-32-16_260595134347_rgbf000029-resize_4/002445_2014-06-28_20-32-16_260595134347_rgbf000029-resize_4-target.png,1000,2.8435,2.5315,0,2049,500,1000,500,1000,501,feet,,,,,1776244,2111731,39
260059,DepthScenes,duration_discrimination,discrim_jsons/d0_rotated_dr.json,http://54.173.234.186/DepthDuration/depth_discrimination_MTurk/DepthDiscrim_HTML.html#2,2,1366,768,1366,768,6-19-2021,15-9-19,16,depth_discrimination_stimuli/000454_2014-06-08_16-37-28_260595134347_rgbf000048-resize_2/000454_2014-06-08_16-37-28_260595134347_rgbf000048-resize_2-target.png,depth_discrimination_stimuli/000375_2014-06-08_11-17-29_260595134347_rgbf000133-resize_2/000375_2014-06-08_11-17-29_260595134347_rgbf000133-resize_2-target.png,1000,1.213,4.718,1,5386,502,999,505,996,500,feet,,,,,1776244,2111731,39
260059,DepthScenes,duration_discrimination,discrim_jsons/d0_rotated_dr.json,http://54.173.234.186/DepthDuration/depth_discrimination_MTurk/DepthDiscrim_HTML.html#2,2,1366,768,1366,768,6-19-2021,15-9-19,17,depth_discrimination_stimuli/003395_2014-05-20_15-39-18_094959634447_rgbf000101-resize_0/003395_2014-05-20_15-39-18_094959634447_rgbf000101-resize_0-target.png,depth_discrimination_stimuli/001540_2014-06-20_17-01-05_260595134347_rgbf000086-resize_2/001540_2014-06-20_17-01-05_260595134347_rgbf000086-resize_2-target.png,250,4.835,1.459,0,4006,501,253,498,250,500,feet,,,,,1776244,2111731,39
260059,DepthScenes,duration_discrimination,discrim_jsons/d0_rotated_dr.json,http://54.173.234.186/DepthDuration/depth_discrimination_MTurk/DepthDiscrim_HTML.html#2,2,1366,768,1366,768,6-19-2021,15-9-19,18,depth_discrimination_stimuli/003621_2014-05-23_18-06-08_094959634447_rgbf000101-resize_1/003621_2014-05-23_18-06-08_094959634447_rgbf000101-resize_1-target.png,depth_discrimination_stimuli/001808_2014-06-26_20-50-58_260595134347_rgbf000029-resize_1/001808_2014-06-26_20-50-58_260595134347_rgbf000029-resize_1-target.png,1000,3.9835,4.249,1,1639,501,999,500,1000,500,feet,,,,,1776244,2111731,39
260059,DepthScenes,duration_discrimination,discrim_jsons/d0_rotated_dr.json,http://54.173.234.186/DepthDuration/depth_discrimination_MTurk/DepthDiscrim_HTML.html#2,2,1366,768,1366,768,6-19-2021,15-9-19,19,depth_discrimination_stimuli/001806_2014-06-26_20-50-20_260595134347_rgbf000091-resize_1/001806_2014-06-26_20-50-20_260595134347_rgbf000091-resize_1-target.png,depth_discrimination_stimuli/002460_2014-06-28_20-35-43_260595134347_rgbf000028-resize_4/002460_2014-06-28_20-35-43_260595134347_rgbf000028-resize_4-target.png,250,2.7305,2.269,0,3870,502,249,500,250,500,feet,,,,,1776244,2111731,39
260059,DepthScenes,duration_discrimination,discrim_jsons/d0_rotated_dr.json,http://54.173.234.186/DepthDuration/depth_discrimination_MTurk/DepthDiscrim_HTML.html#2,2,1366,768,1366,768,6-19-2021,15-9-19,20,depth_discrimination_stimuli/001132_2014-06-17_14-48-54_260595134347_rgbf000100-resize_2/001132_2014-06-17_14-48-54_260595134347_rgbf000100-resize_2-target.png,depth_discrimination_stimuli/002639_2014-06-24_14-51-37_094959634447_rgbf000074-resize_4/002639_2014-06-24_14-51-37_094959634447_rgbf000074-resize_4-target.png,250,3.753,4.0375,1,2227,501,249,501,249,500,feet,,,,,1776244,2111731,39
260059,DepthScenes,duration_discrimination,discrim_jsons/d0_rotated_dr.json,http://54.173.234.186/DepthDuration/depth_discrimination_MTurk/DepthDiscrim_HTML.html#2,2,1366,768,1366,768,6-19-2021,15-9-19,21,depth_discrimination_stimuli/001532_2014-06-20_16-50-41_260595134347_rgbf000081-resize_4/001532_2014-06-20_16-50-41_260595134347_rgbf000081-resize_4-target.png,depth_discrimination_stimuli/002784_2014-06-22_19-26-30_094959634447_rgbf000083-resize_3/002784_2014-06-22_19-26-30_094959634447_rgbf000083-resize_3-target.png,250,1.5758333333333,1.8046666666667,0,2308,500,250,500,251,500,feet,,,,,1776244,2111731,39
260059,DepthScenes,duration_discrimination,discrim_jsons/d0_rotated_dr.json,http://54.173.234.186/DepthDuration/depth_discrimination_MTurk/DepthDiscrim_HTML.html#2,2,1366,768,1366,768,6-19-2021,15-9-19,22,depth_discrimination_stimuli/002545_2014-06-24_13-38-53_094959634447_rgbf000080-resize_4/002545_2014-06-24_13-38-53_094959634447_rgbf000080-resize_4-target.png,depth_discrimination_stimuli/002549_2014-06-24_13-41-39_094959634447_rgbf000022-resize_3/002549_2014-06-24_13-41-39_094959634447_rgbf000022-resize_3-target.png,1000,1.9205,1.476,1,8246,502,999,500,1000,500,feet,,,,,1776244,2111731,39
260059,DepthScenes,duration_discrimination,discrim_jsons/d0_rotated_dr.json,http://54.173.234.186/DepthDuration/depth_discrimination_MTurk/DepthDiscrim_HTML.html#2,2,1366,768,1366,768,6-19-2021,15-9-19,23,depth_discrimination_stimuli/001175_2014-06-17_15-45-55_260595134347_rgbf000129-resize_4/001175_2014-06-17_15-45-55_260595134347_rgbf000129-resize_4-target.png,depth_discrimination_stimuli/002467_2014-06-28_20-38-07_260595134347_rgbf000026-resize_2/002467_2014-06-28_20-38-07_260595134347_rgbf000026-resize_2-target.png,250,4.255,4.742,0,4540,501,252,497,250,501,feet,,,,,1776244,2111731,39
260059,DepthScenes,duration_discrimination,discrim_jsons/d0_rotated_dr.json,http://54.173.234.186/DepthDuration/depth_discrimination_MTurk/DepthDiscrim_HTML.html#2,2,1366,768,1366,768,6-19-2021,15-9-19,24,depth_discrimination_stimuli/000137_2014-05-20_17-04-49_260595134347_rgbf000120-resize_1/000137_2014-05-20_17-04-49_260595134347_rgbf000120-resize_1-target.png,depth_discrimination_stimuli/000691_2014-06-08_13-08-50_260595134347_rgbf000132-resize_3/000691_2014-06-08_13-08-50_260595134347_rgbf000132-resize_3-target.png,1000,3.786,4.153,1,5080,500,1001,500,999,501,feet,,,,,1776244,2111731,39
260059,DepthScenes,duration_discrimination,discrim_jsons/d0_rotated_dr.json,http://54.173.234.186/DepthDuration/depth_discrimination_MTurk/DepthDiscrim_HTML.html#2,2,1366,768,1366,768,6-19-2021,15-9-19,25,depth_discrimination_stimuli/000542_2014-06-08_18-27-08_260595134347_rgbf000118-resize_1/000542_2014-06-08_18-27-08_260595134347_rgbf000118-resize_1-target.png,depth_discrimination_stimuli/002118_2014-06-25_20-32-08_260595134347_rgbf000078-resize_1/002118_2014-06-25_20-32-08_260595134347_rgbf000078-resize_1-target.png,250,3,2.646,1,4307,502,249,500,250,501,feet,,,,,1776244,2111731,39
260059,DepthScenes,duration_discrimination,discrim_jsons/d0_rotated_dr.json,http://54.173.234.186/DepthDuration/depth_discrimination_MTurk/DepthDiscrim_HTML.html#2,2,1366,768,1366,768,6-19-2021,15-9-19,26,depth_discrimination_stimuli/001170_2014-06-17_15-43-44_260595134347_rgbf000096-resize_6/001170_2014-06-17_15-43-44_260595134347_rgbf000096-resize_6-target.png,depth_discrimination_stimuli/002364_2014-06-28_20-11-05_260595134347_rgbf000042-resize_0/002364_2014-06-28_20-11-05_260595134347_rgbf000042-resize_0-target.png,1000,1.191,4.682,1,3156,501,1000,500,1000,500,feet,,,,,1776244,2111731,39
260059,DepthScenes,duration_discrimination,discrim_jsons/d0_rotated_dr.json,http://54.173.234.186/DepthDuration/depth_discrimination_MTurk/DepthDiscrim_HTML.html#2,2,1366,768,1366,768,6-19-2021,15-9-19,27,depth_discrimination_stimuli/000736_2014-06-08_18-24-15_260595134347_rgbf000206-resize_3/000736_2014-06-08_18-24-15_260595134347_rgbf000206-resize_3-target.png,depth_discrimination_stimuli/002323_2014-06-28_20-01-54_260595134347_rgbf000051-resize_4/002323_2014-06-28_20-01-54_260595134347_rgbf000051-resize_4-target.png,1000,3.515,3.731,0,2574,503,999,501,1000,500,feet,,,,,1776244,2111731,39
260059,DepthScenes,duration_discrimination,discrim_jsons/d0_rotated_dr.json,http://54.173.234.186/DepthDuration/depth_discrimination_MTurk/DepthDiscrim_HTML.html#2,2,1366,768,1366,768,6-19-2021,15-9-19,28,depth_discrimination_stimuli/002365_2014-06-28_20-11-21_260595134347_rgbf000102-resize_1/002365_2014-06-28_20-11-21_260595134347_rgbf000102-resize_1-target.png,depth_discrimination_stimuli/000457_2014-06-08_16-52-43_260595134347_rgbf000199-resize_1/000457_2014-06-08_16-52-43_260595134347_rgbf000199-resize_1-target.png,250,4.013,3.649,1,2766,500,250,506,244,500,feet,,,,,1776244,2111731,39
260059,DepthScenes,duration_discrimination,discrim_jsons/d0_rotated_dr.json,http://54.173.234.186/DepthDuration/depth_discrimination_MTurk/DepthDiscrim_HTML.html#2,2,1366,768,1366,768,6-19-2021,15-9-19,29,depth_discrimination_stimuli/002995_2014-06-15_12-31-26_094959634447_rgbf000150-resize_1/002995_2014-06-15_12-31-26_094959634447_rgbf000150-resize_1-target.png,depth_discrimination_stimuli/000739_2014-06-08_18-45-58_260595134347_rgbf000068-resize_1/000739_2014-06-08_18-45-58_260595134347_rgbf000068-resize_1-target.png,250,3.836,3.534,1,1526,502,250,502,248,503,feet,,,,,1776244,2111731,39
260059,DepthScenes,duration_discrimination,discrim_jsons/d0_rotated_dr.json,http://54.173.234.186/DepthDuration/depth_discrimination_MTurk/DepthDiscrim_HTML.html#2,2,1366,768,1366,768,6-19-2021,15-9-19,30,depth_discrimination_stimuli/003010_2014-06-15_12-54-35_094959634447_rgbf000112-resize_0/003010_2014-06-15_12-54-35_094959634447_rgbf000112-resize_0-target.png,depth_discrimination_stimuli/003546_2014-05-22_15-48-53_094959634447_rgbf004816-resize_3/003546_2014-05-22_15-48-53_094959634447_rgbf004816-resize_3-target.png,250,3.1185,2.62625,0,1928,502,249,500,251,500,feet,,,,,1776244,2111731,39
260059,DepthScenes,duration_discrimination,discrim_jsons/d0_rotated_dr.json,http://54.173.234.186/DepthDuration/depth_discrimination_MTurk/DepthDiscrim_HTML.html#2,2,1366,768,1366,768,6-19-2021,15-9-19,31,depth_discrimination_stimuli/002340_2014-06-28_20-05-46_260595134347_rgbf000113-resize_0/002340_2014-06-28_20-05-46_260595134347_rgbf000113-resize_0-target.png,depth_discrimination_stimuli/001264_2014-06-16_16-10-23_260595134347_rgbf000109-resize_1/001264_2014-06-16_16-10-23_260595134347_rgbf000109-resize_1-target.png,250,2.4735,2.9665,1,1588,500,251,500,250,500,feet,,,,,1776244,2111731,39
260059,DepthScenes,duration_discrimination,discrim_jsons/d0_rotated_dr.json,http://54.173.234.186/DepthDuration/depth_discrimination_MTurk/DepthDiscrim_HTML.html#2,2,1366,768,1366,768,6-19-2021,15-9-19,32,depth_discrimination_stimuli/001570_2014-06-20_17-21-09_260595134347_rgbf000135-resize_4/001570_2014-06-20_17-21-09_260595134347_rgbf000135-resize_4-target.png,depth_discrimination_stimuli/002375_2014-06-28_20-13-44_260595134347_rgbf000032-resize_1/002375_2014-06-28_20-13-44_260595134347_rgbf000032-resize_1-target.png,1000,4.467,4.0175,1,3107,500,1001,500,1001,499,feet,,,,,1776244,2111731,39
260059,DepthScenes,duration_discrimination,discrim_jsons/d0_rotated_dr.json,http://54.173.234.186/DepthDuration/depth_discrimination_MTurk/DepthDiscrim_HTML.html#2,2,1366,768,1366,768,6-19-2021,15-9-19,33,depth_discrimination_stimuli/001214_2014-06-17_16-13-55_260595134347_rgbf000111-resize_0/001214_2014-06-17_16-13-55_260595134347_rgbf000111-resize_0-target.png,depth_discrimination_stimuli/000665_2014-06-09_20-42-35_260595134347_rgbf000110-resize_1/000665_2014-06-09_20-42-35_260595134347_rgbf000110-resize_1-target.png,1000,2.6505,3.057,1,4590,502,1000,500,999,501,feet,,,,,1776244,2111731,39
260059,DepthScenes,duration_discrimination,discrim_jsons/d0_rotated_dr.json,http://54.173.234.186/DepthDuration/depth_discrimination_MTurk/DepthDiscrim_HTML.html#2,2,1366,768,1366,768,6-19-2021,15-9-19,34,depth_discrimination_stimuli/001724_2014-06-26_19-28-50_260595134347_rgbf000037-resize_7/001724_2014-06-26_19-28-50_260595134347_rgbf000037-resize_7-target.png,depth_discrimination_stimuli/002989_2014-06-15_12-25-03_094959634447_rgbf000150-resize_3/002989_2014-06-15_12-25-03_094959634447_rgbf000150-resize_3-target.png,250,3.827,4.1975,0,2267,502,250,500,250,500,feet,,,,,1776244,2111731,39
260059,DepthScenes,duration_discrimination,discrim_jsons/d0_rotated_dr.json,http://54.173.234.186/DepthDuration/depth_discrimination_MTurk/DepthDiscrim_HTML.html#2,2,1366,768,1366,768,6-19-2021,15-9-19,35,depth_discrimination_stimuli/001618_2014-06-20_11-37-31_260595134347_rgbf000027-resize_3/001618_2014-06-20_11-37-31_260595134347_rgbf000027-resize_3-target.png,depth_discrimination_stimuli/001016_2014-06-09_16-16-10_260595134347_rgbf000112-resize_5/001016_2014-06-09_16-16-10_260595134347_rgbf000112-resize_5-target.png,1000,1.8725,1.6565,0,3086,510,990,501,999,500,feet,,,,,1776244,2111731,39
260059,DepthScenes,duration_discrimination,discrim_jsons/d0_rotated_dr.json,http://54.173.234.186/DepthDuration/depth_discrimination_MTurk/DepthDiscrim_HTML.html#2,2,1366,768,1366,768,6-19-2021,15-9-19,36,depth_discrimination_stimuli/001571_2014-06-20_17-21-32_260595134347_rgbf000089-resize_1/001571_2014-06-20_17-21-32_260595134347_rgbf000089-resize_1-target.png,depth_discrimination_stimuli/002953_2014-06-08_17-32-18_094959634447_rgbf000059-resize_5/002953_2014-06-08_17-32-18_094959634447_rgbf000059-resize_5-target.png,250,1.86,1.551,1,1445,502,249,501,250,499,feet,,,,,1776244,2111731,39
260059,DepthScenes,duration_discrimination,discrim_jsons/d0_rotated_dr.json,http://54.173.234.186/DepthDuration/depth_discrimination_MTurk/DepthDiscrim_HTML.html#2,2,1366,768,1366,768,6-19-2021,15-9-19,37,depth_discrimination_stimuli/000917_2014-06-09_22-45-29_260595134347_rgbf000149-resize_3/000917_2014-06-09_22-45-29_260595134347_rgbf000149-resize_3-target.png,depth_discrimination_stimuli/003081_2014-06-15_15-19-16_094959634447_rgbf000150-resize_1/003081_2014-06-15_15-19-16_094959634447_rgbf000150-resize_1-target.png,1000,4.1865,3.9125,1,4473,501,999,500,1001,499,feet,,,,,1776244,2111731,39
260059,DepthScenes,duration_discrimination,discrim_jsons/d0_rotated_dr.json,http://54.173.234.186/DepthDuration/depth_discrimination_MTurk/DepthDiscrim_HTML.html#2,2,1366,768,1366,768,6-19-2021,15-9-19,38,depth_discrimination_stimuli/003228_2014-05-14_13-42-35_094959634447_rgbf000101-resize_1/003228_2014-05-14_13-42-35_094959634447_rgbf000101-resize_1-target.png,depth_discrimination_stimuli/001164_2014-06-17_15-35-46_260595134347_rgbf000085-resize_3/001164_2014-06-17_15-35-46_260595134347_rgbf000085-resize_3-target.png,1000,1.968,2.354,1,2458,500,1000,500,1000,500,feet,,,,,1776244,2111731,39
260059,DepthScenes,duration_discrimination,discrim_jsons/d0_rotated_dr.json,http://54.173.234.186/DepthDuration/depth_discrimination_MTurk/DepthDiscrim_HTML.html#2,2,1366,768,1366,768,6-19-2021,15-9-19,39,depth_discrimination_stimuli/000906_2014-06-08_13-35-43_260595134347_rgbf000155-resize_1/000906_2014-06-08_13-35-43_260595134347_rgbf000155-resize_1-target.png,depth_discrimination_stimuli/001059_2014-06-08_21-53-27_260595134347_rgbf000061-resize_4/001059_2014-06-08_21-53-27_260595134347_rgbf000061-resize_4-target.png,1000,2.849,2.4185,0,1599,501,999,501,999,500,feet,,,,,1776244,2111731,39
260059,DepthScenes,duration_discrimination,discrim_jsons/d0_rotated_dr.json,http://54.173.234.186/DepthDuration/depth_discrimination_MTurk/DepthDiscrim_HTML.html#2,2,1366,768,1366,768,6-19-2021,15-9-19,40,depth_discrimination_stimuli/002748_2014-06-22_19-07-22_094959634447_rgbf000078-resize_1/002748_2014-06-22_19-07-22_094959634447_rgbf000078-resize_1-target.png,depth_discrimination_stimuli/002657_2014-06-13_15-29-54_094959634447_rgbf000150-resize_1/002657_2014-06-13_15-29-54_094959634447_rgbf000150-resize_1-target.png,1000,4.6705,4.919,1,1775,502,1000,500,1000,500,feet,,,,,1776244,2111731,39
260059,DepthScenes,duration_discrimination,discrim_jsons/d0_rotated_dr.json,http://54.173.234.186/DepthDuration/depth_discrimination_MTurk/DepthDiscrim_HTML.html#2,2,1366,768,1366,768,6-19-2021,15-9-19,41,depth_discrimination_stimuli/000800_2014-06-08_22-42-09_260595134347_rgbf000095-resize_3/000800_2014-06-08_22-42-09_260595134347_rgbf000095-resize_3-target.png,depth_discrimination_stimuli/002700_2014-06-22_11-27-02_094959634447_rgbf000124-resize_3/002700_2014-06-22_11-27-02_094959634447_rgbf000124-resize_3-target.png,250,2.8,3.301,0,2071,504,246,500,251,499,feet,,,,,1776244,2111731,39
260059,DepthScenes,duration_discrimination,discrim_jsons/d0_rotated_dr.json,http://54.173.234.186/DepthDuration/depth_discrimination_MTurk/DepthDiscrim_HTML.html#2,2,1366,768,1366,768,6-19-2021,15-9-19,42,depth_discrimination_stimuli/002875_2014-06-01_15-19-00_094959634447_rgbf000151-resize_1/002875_2014-06-01_15-19-00_094959634447_rgbf000151-resize_1-target.png,depth_discrimination_stimuli/000749_2014-06-08_21-55-06_260595134347_rgbf000070-resize_2/000749_2014-06-08_21-55-06_260595134347_rgbf000070-resize_2-target.png,1000,1.9675,2.331,1,2139,500,1001,499,1000,500,feet,,,,,1776244,2111731,39
260059,DepthScenes,duration_discrimination,discrim_jsons/d0_rotated_dr.json,http://54.173.234.186/DepthDuration/depth_discrimination_MTurk/DepthDiscrim_HTML.html#2,2,1366,768,1366,768,6-19-2021,15-9-19,43,depth_discrimination_stimuli/003288_2014-05-14_21-50-30_094959634447_rgbf000028-resize_3/003288_2014-05-14_21-50-30_094959634447_rgbf000028-resize_3-target.png,depth_discrimination_stimuli/000735_2014-06-08_18-23-50_260595134347_rgbf000163-resize_2/000735_2014-06-08_18-23-50_260595134347_rgbf000163-resize_2-target.png,1000,3.877,4.1695,1,2317,502,1000,500,1000,499,feet,,,,,1776244,2111731,39
260059,DepthScenes,duration_discrimination,discrim_jsons/d0_rotated_dr.json,http://54.173.234.186/DepthDuration/depth_discrimination_MTurk/DepthDiscrim_HTML.html#2,2,1366,768,1366,768,6-19-2021,15-9-19,44,depth_discrimination_stimuli/000447_2014-06-08_16-15-46_260595134347_rgbf000130-resize_1/000447_2014-06-08_16-15-46_260595134347_rgbf000130-resize_1-target.png,depth_discrimination_stimuli/002988_2014-06-15_12-24-20_094959634447_rgbf000150-resize_1/002988_2014-06-15_12-24-20_094959634447_rgbf000150-resize_1-target.png,250,4.479,4.767,0,2768,501,249,501,250,500,feet,,,,,1776244,2111731,39
260059,DepthScenes,duration_discrimination,discrim_jsons/d0_rotated_dr.json,http://54.173.234.186/DepthDuration/depth_discrimination_MTurk/DepthDiscrim_HTML.html#2,2,1366,768,1366,768,6-19-2021,15-9-19,45,depth_discrimination_stimuli/002272_2014-06-28_18-53-56_260595134347_rgbf000067-resize_2/002272_2014-06-28_18-53-56_260595134347_rgbf000067-resize_2-target.png,depth_discrimination_stimuli/003534_2014-05-22_15-06-10_094959634447_rgbf000102-resize_4/003534_2014-05-22_15-06-10_094959634447_rgbf000102-resize_4-target.png,250,1.138,1.426,1,2208,501,250,500,250,500,feet,,,,,1776244,2111731,39
260059,DepthScenes,duration_discrimination,discrim_jsons/d0_rotated_dr.json,http://54.173.234.186/DepthDuration/depth_discrimination_MTurk/DepthDiscrim_HTML.html#2,2,1366,768,1366,768,6-19-2021,15-9-19,46,depth_discrimination_stimuli/000522_2014-06-08_13-35-06_260595134347_rgbf000244-resize_1/000522_2014-06-08_13-35-06_260595134347_rgbf000244-resize_1-target.png,depth_discrimination_stimuli/001092_2014-06-15_17-34-58_260595134347_rgbf000171-resize_3/001092_2014-06-15_17-34-58_260595134347_rgbf000171-resize_3-target.png,1000,2.3715,2.6935,0,2937,501,1000,500,1000,499,feet,,,,,1776244,2111731,39
260059,DepthScenes,duration_discrimination,discrim_jsons/d0_rotated_dr.json,http://54.173.234.186/DepthDuration/depth_discrimination_MTurk/DepthDiscrim_HTML.html#2,2,1366,768,1366,768,6-19-2021,15-9-19,47,depth_discrimination_stimuli/000866_2014-06-09_20-45-42_260595134347_rgbf000139-resize_1/000866_2014-06-09_20-45-42_260595134347_rgbf000139-resize_1-target.png,depth_discrimination_stimuli/000682_2014-06-08_23-14-58_260595134347_rgbf000041-resize_5/000682_2014-06-08_23-14-58_260595134347_rgbf000041-resize_5-target.png,1000,3.2155,2.724,0,2538,501,1003,497,999,500,feet,,,,,1776244,2111731,39
260059,DepthScenes,duration_discrimination,discrim_jsons/d0_rotated_dr.json,http://54.173.234.186/DepthDuration/depth_discrimination_MTurk/DepthDiscrim_HTML.html#2,2,1366,768,1366,768,6-19-2021,15-9-19,48,depth_discrimination_stimuli/000569_2014-06-09_22-51-47_260595134347_rgbf000141-resize_3/000569_2014-06-09_22-51-47_260595134347_rgbf000141-resize_3-target.png,depth_discrimination_stimuli/000868_2014-06-09_20-49-52_260595134347_rgbf000064-resize_4/000868_2014-06-09_20-49-52_260595134347_rgbf000064-resize_4-target.png,250,4.512,1.2815,1,1726,501,250,503,247,500,feet,,,,,1776244,2111731,39
260059,DepthScenes,duration_discrimination,discrim_jsons/d0_rotated_dr.json,http://54.173.234.186/DepthDuration/depth_discrimination_MTurk/DepthDiscrim_HTML.html#2,2,1366,768,1366,768,6-19-2021,15-9-19,49,depth_discrimination_stimuli/000636_2014-06-08_16-39-02_260595134347_rgbf000108-resize_4/000636_2014-06-08_16-39-02_260595134347_rgbf000108-resize_4-target.png,depth_discrimination_stimuli/002568_2014-06-24_13-59-21_094959634447_rgbf000062-resize_4/002568_2014-06-24_13-59-21_094959634447_rgbf000062-resize_4-target.png,1000,2.682,3.015,0,3039,501,1010,490,1000,500,feet,,,,,1776244,2111731,39
260059,DepthScenes,duration_discrimination,discrim_jsons/d0_rotated_dr.json,http://54.173.234.186/DepthDuration/depth_discrimination_MTurk/DepthDiscrim_HTML.html#2,2,1366,768,1366,768,6-19-2021,15-9-19,50,depth_discrimination_stimuli/001181_2014-06-17_15-50-57_260595134347_rgbf000106-resize_4/001181_2014-06-17_15-50-57_260595134347_rgbf000106-resize_4-target.png,depth_discrimination_stimuli/002425_2014-06-28_20-27-29_260595134347_rgbf000031-resize_8/002425_2014-06-28_20-27-29_260595134347_rgbf000031-resize_8-target.png,1000,4.149,3.896,0,1966,500,1001,500,1000,500,feet,,,,,1776244,2111731,39
260059,DepthScenes,duration_discrimination,discrim_jsons/d0_rotated_dr.json,http://54.173.234.186/DepthDuration/depth_discrimination_MTurk/DepthDiscrim_HTML.html#2,2,1366,768,1366,768,6-19-2021,15-9-19,51,depth_discrimination_stimuli/001498_2014-06-19_17-45-14_260595134347_rgbf000129-resize_4/001498_2014-06-19_17-45-14_260595134347_rgbf000129-resize_4-target.png,depth_discrimination_stimuli/003125_2014-05-12_10-39-22_094959634447_rgbf000100-resize_0/003125_2014-05-12_10-39-22_094959634447_rgbf000100-resize_0-target.png,250,1.4075,4.8655,1,2401,501,250,499,251,500,feet,,,,,1776244,2111731,39
260059,DepthScenes,duration_discrimination,discrim_jsons/d0_rotated_dr.json,http://54.173.234.186/DepthDuration/depth_discrimination_MTurk/DepthDiscrim_HTML.html#2,2,1366,768,1366,768,6-19-2021,15-9-19,52,depth_discrimination_stimuli/002637_2014-06-24_14-51-13_094959634447_rgbf000066-resize_4/002637_2014-06-24_14-51-13_094959634447_rgbf000066-resize_4-target.png,depth_discrimination_stimuli/000720_2014-06-08_18-37-27_260595134347_rgbf000203-resize_4/000720_2014-06-08_18-37-27_260595134347_rgbf000203-resize_4-target.png,250,1.9955,1.558,0,1806,501,249,502,249,500,feet,,,,,1776244,2111731,39
260059,DepthScenes,duration_discrimination,discrim_jsons/d0_rotated_dr.json,http://54.173.234.186/DepthDuration/depth_discrimination_MTurk/DepthDiscrim_HTML.html#2,2,1366,768,1366,768,6-19-2021,15-9-19,53,depth_discrimination_stimuli/000368_2014-06-09_15-53-01_260595134347_rgbf000155-resize_2/000368_2014-06-09_15-53-01_260595134347_rgbf000155-resize_2-target.png,depth_discrimination_stimuli/002199_2014-06-28_18-33-56_260595134347_rgbf000074-resize_0/002199_2014-06-28_18-33-56_260595134347_rgbf000074-resize_0-target.png,1000,2.486,1.996,0,4379,501,999,500,1000,500,feet,,,,,1776244,2111731,39
260059,DepthScenes,duration_discrimination,discrim_jsons/d0_rotated_dr.json,http://54.173.234.186/DepthDuration/depth_discrimination_MTurk/DepthDiscrim_HTML.html#2,2,1366,768,1366,768,6-19-2021,15-9-19,54,depth_discrimination_stimuli/002788_2014-06-22_19-36-03_094959634447_rgbf000088-resize_2/002788_2014-06-22_19-36-03_094959634447_rgbf000088-resize_2-target.png,depth_discrimination_stimuli/001289_2014-06-16_16-25-52_260595134347_rgbf000067-resize_1/001289_2014-06-16_16-25-52_260595134347_rgbf000067-resize_1-target.png,250,1.6465,1.8835,1,4948,500,250,501,250,500,feet,,,,,1776244,2111731,39
260059,DepthScenes,duration_discrimination,discrim_jsons/d0_rotated_dr.json,http://54.173.234.186/DepthDuration/depth_discrimination_MTurk/DepthDiscrim_HTML.html#2,2,1366,768,1366,768,6-19-2021,15-9-19,55,depth_discrimination_stimuli/003083_2014-06-15_15-21-03_094959634447_rgbf000063-resize_1/003083_2014-06-15_15-21-03_094959634447_rgbf000063-resize_1-target.png,depth_discrimination_stimuli/001417_2014-06-19_16-25-36_260595134347_rgbf000115-resize_5/001417_2014-06-19_16-25-36_260595134347_rgbf000115-resize_5-target.png,1000,4.1405,4.6255,1,5900,502,1000,499,1001,499,feet,,,,,1776244,2111731,39
260059,DepthScenes,duration_discrimination,discrim_jsons/d0_rotated_dr.json,http://54.173.234.186/DepthDuration/depth_discrimination_MTurk/DepthDiscrim_HTML.html#2,2,1366,768,1366,768,6-19-2021,15-9-19,56,depth_discrimination_stimuli/001133_2014-06-17_14-49-16_260595134347_rgbf000100-resize_0/001133_2014-06-17_14-49-16_260595134347_rgbf000100-resize_0-target.png,depth_discrimination_stimuli/001617_2014-06-20_11-35-32_260595134347_rgbf000066-resize_1/001617_2014-06-20_11-35-32_260595134347_rgbf000066-resize_1-target.png,250,4.2115,3.791,0,3648,500,251,500,249,501,feet,,,,,1776244,2111731,39
260059,DepthScenes,duration_discrimination,discrim_jsons/d0_rotated_dr.json,http://54.173.234.186/DepthDuration/depth_discrimination_MTurk/DepthDiscrim_HTML.html#2,2,1366,768,1366,768,6-19-2021,15-9-19,57,depth_discrimination_stimuli/000009_2014-05-26_14-32-05_260595134347_rgbf000034-resize_3/000009_2014-05-26_14-32-05_260595134347_rgbf000034-resize_3-target.png,depth_discrimination_stimuli/002660_2014-06-13_15-44-18_094959634447_rgbf001878-resize_2/002660_2014-06-13_15-44-18_094959634447_rgbf001878-resize_2-target.png,250,3.8715,3.576,1,3588,501,250,499,250,500,feet,,,,,1776244,2111731,39
260059,DepthScenes,duration_discrimination,discrim_jsons/d0_rotated_dr.json,http://54.173.234.186/DepthDuration/depth_discrimination_MTurk/DepthDiscrim_HTML.html#2,2,1366,768,1366,768,6-19-2021,15-9-19,58,depth_discrimination_stimuli/003495_2014-05-21_16-01-51_094959634447_rgbf000100-resize_3/003495_2014-05-21_16-01-51_094959634447_rgbf000100-resize_3-target.png,depth_discrimination_stimuli/001167_2014-06-17_15-38-07_260595134347_rgbf000108-resize_0/001167_2014-06-17_15-38-07_260595134347_rgbf000108-resize_0-target.png,1000,1.6255,1.8505,1,3037,502,1000,500,999,501,feet,,,,,1776244,2111731,39
260059,DepthScenes,duration_discrimination,discrim_jsons/d0_rotated_dr.json,http://54.173.234.186/DepthDuration/depth_discrimination_MTurk/DepthDiscrim_HTML.html#2,2,1366,768,1366,768,6-19-2021,15-9-19,59,depth_discrimination_stimuli/000830_2014-06-04_19-49-31_260595134347_rgbf000096-resize_2/000830_2014-06-04_19-49-31_260595134347_rgbf000096-resize_2-target.png,depth_discrimination_stimuli/000929_2014-06-09_16-33-19_260595134347_rgbf000139-resize_0/000929_2014-06-09_16-33-19_260595134347_rgbf000139-resize_0-target.png,1000,2.6353333333333,2.868,1,3518,501,999,501,999,500,feet,,,,,1776244,2111731,39
260059,DepthScenes,duration_discrimination,discrim_jsons/d0_rotated_dr.json,http://54.173.234.186/DepthDuration/depth_discrimination_MTurk/DepthDiscrim_HTML.html#2,2,1366,768,1366,768,6-19-2021,15-9-19,60,depth_discrimination_stimuli/001136_2014-06-17_15-19-41_260595134347_rgbf000076-resize_3/001136_2014-06-17_15-19-41_260595134347_rgbf000076-resize_3-target.png,depth_discrimination_stimuli/000869_2014-06-09_20-50-18_260595134347_rgbf000060-resize_3/000869_2014-06-09_20-50-18_260595134347_rgbf000060-resize_3-target.png,1000,1.8655,2.266,0,3118,502,1000,500,1000,500,feet,,,,,1776244,2111731,39
260059,DepthScenes,duration_discrimination,discrim_jsons/d0_rotated_dr.json,http://54.173.234.186/DepthDuration/depth_discrimination_MTurk/DepthDiscrim_HTML.html#2,2,1366,768,1366,768,6-19-2021,15-9-19,61,depth_discrimination_stimuli/001029_2014-06-08_13-17-57_260595134347_rgbf000065-resize_1/001029_2014-06-08_13-17-57_260595134347_rgbf000065-resize_1-target.png,depth_discrimination_stimuli/001199_2014-06-17_16-03-48_260595134347_rgbf000077-resize_0/001199_2014-06-17_16-03-48_260595134347_rgbf000077-resize_0-target.png,1000,3.0835,3.4375,0,2025,502,1000,499,1000,503,feet,,,,,1776244,2111731,39
260059,DepthScenes,duration_discrimination,discrim_jsons/d0_rotated_dr.json,http://54.173.234.186/DepthDuration/depth_discrimination_MTurk/DepthDiscrim_HTML.html#2,2,1366,768,1366,768,6-19-2021,15-9-19,62,depth_discrimination_stimuli/003092_2014-06-24_21-01-49_094959634447_rgbf000049-resize_2/003092_2014-06-24_21-01-49_094959634447_rgbf000049-resize_2-target.png,depth_discrimination_stimuli/000753_2014-06-08_21-57-44_260595134347_rgbf000123-resize_3/000753_2014-06-08_21-57-44_260595134347_rgbf000123-resize_3-target.png,250,1.666,1.916,0,3121,502,249,501,249,500,feet,,,,,1776244,2111731,39
260059,DepthScenes,duration_discrimination,discrim_jsons/d0_rotated_dr.json,http://54.173.234.186/DepthDuration/depth_discrimination_MTurk/DepthDiscrim_HTML.html#2,2,1366,768,1366,768,6-19-2021,15-9-19,63,depth_discrimination_stimuli/000758_2014-06-08_22-05-08_260595134347_rgbf000085-resize_0/000758_2014-06-08_22-05-08_260595134347_rgbf000085-resize_0-target.png,depth_discrimination_stimuli/003070_2014-06-15_14-58-27_094959634447_rgbf000150-resize_3/003070_2014-06-15_14-58-27_094959634447_rgbf000150-resize_3-target.png,250,3.381,2.9415,0,2438,501,251,501,249,500,feet,,,,,1776244,2111731,39
260059,DepthScenes,duration_discrimination,discrim_jsons/d0_rotated_dr.json,http://54.173.234.186/DepthDuration/depth_discrimination_MTurk/DepthDiscrim_HTML.html#2,2,1366,768,1366,768,6-19-2021,15-9-19,64,depth_discrimination_stimuli/000191_2014-05-12_17-07-38_260595134347_rgbf000199-resize_0/000191_2014-05-12_17-07-38_260595134347_rgbf000199-resize_0-target.png,depth_discrimination_stimuli/000780_2014-06-08_22-28-29_260595134347_rgbf000126-resize_1/000780_2014-06-08_22-28-29_260595134347_rgbf000126-resize_1-target.png,250,3.7995,3.3825,1,3716,501,249,500,250,503,feet,,,,,1776244,2111731,39
260059,DepthScenes,duration_discrimination,discrim_jsons/d0_rotated_dr.json,http://54.173.234.186/DepthDuration/depth_discrimination_MTurk/DepthDiscrim_HTML.html#2,2,1366,768,1366,768,6-19-2021,15-9-19,65,depth_discrimination_stimuli/000953_2014-06-08_11-42-19_260595134347_rgbf000083-resize_0/000953_2014-06-08_11-42-19_260595134347_rgbf000083-resize_0-target.png,depth_discrimination_stimuli/000787_2014-06-08_22-33-53_260595134347_rgbf000175-resize_1/000787_2014-06-08_22-33-53_260595134347_rgbf000175-resize_1-target.png,1000,1.369,4.784,0,2747,502,999,500,1000,501,feet,,,,,1776244,2111731,39
260059,DepthScenes,duration_discrimination,discrim_jsons/d0_rotated_dr.json,http://54.173.234.186/DepthDuration/depth_discrimination_MTurk/DepthDiscrim_HTML.html#2,2,1366,768,1366,768,6-19-2021,15-9-19,66,depth_discrimination_stimuli/003423_2014-05-21_10-23-26_094959634447_rgbf002665-resize_2/003423_2014-05-21_10-23-26_094959634447_rgbf002665-resize_2-target.png,depth_discrimination_stimuli/001235_2014-06-17_16-37-36_260595134347_rgbf000084-resize_4/001235_2014-06-17_16-37-36_260595134347_rgbf000084-resize_4-target.png,250,3.2575,3.6605,1,4098,502,250,500,606,143,feet,,,,,1776244,2111731,39
260059,DepthScenes,duration_discrimination,discrim_jsons/d0_rotated_dr.json,http://54.173.234.186/DepthDuration/depth_discrimination_MTurk/DepthDiscrim_HTML.html#2,2,1366,768,1366,768,6-19-2021,15-9-19,67,depth_discrimination_stimuli/000927_2014-06-09_16-32-30_260595134347_rgbf000123-resize_3/000927_2014-06-09_16-32-30_260595134347_rgbf000123-resize_3-target.png,depth_discrimination_stimuli/001810_2014-06-26_20-51-35_260595134347_rgbf000040-resize_3/001810_2014-06-26_20-51-35_260595134347_rgbf000040-resize_3-target.png,1000,2.6785,2.2525,0,3559,500,1001,499,1000,501,feet,,,,,1776244,2111731,39
260059,DepthScenes,duration_discrimination,discrim_jsons/d0_rotated_dr.json,http://54.173.234.186/DepthDuration/depth_discrimination_MTurk/DepthDiscrim_HTML.html#2,2,1366,768,1366,768,6-19-2021,15-9-19,68,depth_discrimination_stimuli/000788_2014-06-08_22-34-36_260595134347_rgbf000131-resize_1/000788_2014-06-08_22-34-36_260595134347_rgbf000131-resize_1-target.png,depth_discrimination_stimuli/000521_2014-06-08_13-34-35_260595134347_rgbf000191-resize_2/000521_2014-06-08_13-34-35_260595134347_rgbf000191-resize_2-target.png,1000,3.359,3.0385,1,2107,501,1000,499,1000,500,feet,,,,,1776244,2111731,39
260059,DepthScenes,duration_discrimination,discrim_jsons/d0_rotated_dr.json,http://54.173.234.186/DepthDuration/depth_discrimination_MTurk/DepthDiscrim_HTML.html#2,2,1366,768,1366,768,6-19-2021,15-9-19,69,depth_discrimination_stimuli/002805_2014-06-22_19-54-03_094959634447_rgbf000079-resize_1/002805_2014-06-22_19-54-03_094959634447_rgbf000079-resize_1-target.png,depth_discrimination_stimuli/003292_2014-05-14_21-53-49_094959634447_rgbf000100-resize_2/003292_2014-05-14_21-53-49_094959634447_rgbf000100-resize_2-target.png,250,3.144,3.4815,0,4018,502,250,499,251,506,feet,,,,,1776244,2111731,39
260059,DepthScenes,duration_discrimination,discrim_jsons/d0_rotated_dr.json,http://54.173.234.186/DepthDuration/depth_discrimination_MTurk/DepthDiscrim_HTML.html#2,2,1366,768,1366,768,6-19-2021,15-9-19,70,depth_discrimination_stimuli/001815_2014-06-26_20-52-55_260595134347_rgbf000020-resize_0/001815_2014-06-26_20-52-55_260595134347_rgbf000020-resize_0-target.png,depth_discrimination_stimuli/000642_2014-06-08_16-59-25_260595134347_rgbf000098-resize_2/000642_2014-06-08_16-59-25_260595134347_rgbf000098-resize_2-target.png,250,3.3865,2.8815,0,2627,505,250,500,250,500,feet,,,,,1776244,2111731,39
260059,DepthScenes,duration_discrimination,discrim_jsons/d0_rotated_dr.json,http://54.173.234.186/DepthDuration/depth_discrimination_MTurk/DepthDiscrim_HTML.html#2,2,1366,768,1366,768,6-19-2021,15-9-19,71,depth_discrimination_stimuli/003338_2014-05-20_11-01-23_094959634447_rgbf000051-resize_6/003338_2014-05-20_11-01-23_094959634447_rgbf000051-resize_6-target.png,depth_discrimination_stimuli/000878_2014-06-08_22-52-45_260595134347_rgbf000045-resize_2/000878_2014-06-08_22-52-45_260595134347_rgbf000045-resize_2-target.png,250,1.693,2.092,1,2569,501,251,499,250,500,feet,,,,,1776244,2111731,39
260059,DepthScenes,duration_discrimination,discrim_jsons/d0_rotated_dr.json,http://54.173.234.186/DepthDuration/depth_discrimination_MTurk/DepthDiscrim_HTML.html#2,2,1366,768,1366,768,6-19-2021,15-9-19,72,depth_discrimination_stimuli/002139_2014-06-25_21-19-37_260595134347_rgbf000124-resize_2/002139_2014-06-25_21-19-37_260595134347_rgbf000124-resize_2-target.png,depth_discrimination_stimuli/000549_2014-06-08_22-10-24_260595134347_rgbf000247-resize_3/000549_2014-06-08_22-10-24_260595134347_rgbf000247-resize_3-target.png,1000,2.107,1.841,1,2057,500,1000,501,999,500,feet,,,,,1776244,2111731,39
260059,DepthScenes,duration_discrimination,discrim_jsons/d0_rotated_dr.json,http://54.173.234.186/DepthDuration/depth_discrimination_MTurk/DepthDiscrim_HTML.html#2,2,1366,768,1366,768,6-19-2021,15-9-19,73,depth_discrimination_stimuli/000555_2014-06-09_22-42-23_260595134347_rgbf000037-resize_4/000555_2014-06-09_22-42-23_260595134347_rgbf000037-resize_4-target.png,depth_discrimination_stimuli/001110_2014-06-15_17-25-28_260595134347_rgbf000150-resize_1/001110_2014-06-15_17-25-28_260595134347_rgbf000150-resize_1-target.png,1000,1.9765,1.7115,0,2359,505,996,499,1001,500,feet,,,,,1776244,2111731,39
260059,DepthScenes,duration_discrimination,discrim_jsons/d0_rotated_dr.json,http://54.173.234.186/DepthDuration/depth_discrimination_MTurk/DepthDiscrim_HTML.html#2,2,1366,768,1366,768,6-19-2021,15-9-19,74,depth_discrimination_stimuli/003490_2014-05-21_15-50-11_094959634447_rgbf000101-resize_3/003490_2014-05-21_15-50-11_094959634447_rgbf000101-resize_3-target.png,depth_discrimination_stimuli/001392_2014-06-19_16-07-59_260595134347_rgbf000046-resize_1/001392_2014-06-19_16-07-59_260595134347_rgbf000046-resize_1-target.png,250,3.6445,4.135,0,3188,502,249,501,249,500,feet,,,,,1776244,2111731,39
260059,DepthScenes,duration_discrimination,discrim_jsons/d0_rotated_dr.json,http://54.173.234.186/DepthDuration/depth_discrimination_MTurk/DepthDiscrim_HTML.html#2,2,1366,768,1366,768,6-19-2021,15-9-19,75,depth_discrimination_stimuli/002663_2014-06-13_15-50-26_094959634447_rgbf000075-resize_1/002663_2014-06-13_15-50-26_094959634447_rgbf000075-resize_1-target.png,depth_discrimination_stimuli/000414_2014-06-04_19-49-13_260595134347_rgbf000044-resize_0/000414_2014-06-04_19-49-13_260595134347_rgbf000044-resize_0-target.png,250,4.7495,4.329,1,2134,504,250,500,250,504,feet,,,,,1776244,2111731,39
260059,DepthScenes,duration_discrimination,discrim_jsons/d0_rotated_dr.json,http://54.173.234.186/DepthDuration/depth_discrimination_MTurk/DepthDiscrim_HTML.html#2,2,1366,768,1366,768,6-19-2021,15-9-19,76,depth_discrimination_stimuli/001188_2014-06-17_15-54-10_260595134347_rgbf000090-resize_2/001188_2014-06-17_15-54-10_260595134347_rgbf000090-resize_2-target.png,depth_discrimination_stimuli/002750_2014-06-22_19-08-03_094959634447_rgbf000094-resize_4/002750_2014-06-22_19-08-03_094959634447_rgbf000094-resize_4-target.png,1000,2.744,2.354,0,2312,501,1000,500,1001,500,feet,,,,,1776244,2111731,39
260059,DepthScenes,duration_discrimination,discrim_jsons/d0_rotated_dr.json,http://54.173.234.186/DepthDuration/depth_discrimination_MTurk/DepthDiscrim_HTML.html#2,2,1366,768,1366,768,6-19-2021,15-9-19,77,depth_discrimination_stimuli/002678_2014-06-13_16-15-32_094959634447_rgbf000151-resize_6/002678_2014-06-13_16-15-32_094959634447_rgbf000151-resize_6-target.png,depth_discrimination_stimuli/001011_2014-06-08_23-18-54_260595134347_rgbf000044-resize_4/001011_2014-06-08_23-18-54_260595134347_rgbf000044-resize_4-target.png,250,2.183,2.473,1,1529,501,249,501,249,501,feet,,,,,1776244,2111731,39
260059,DepthScenes,duration_discrimination,discrim_jsons/d0_rotated_dr.json,http://54.173.234.186/DepthDuration/depth_discrimination_MTurk/DepthDiscrim_HTML.html#2,2,1366,768,1366,768,6-19-2021,15-9-19,78,depth_discrimination_stimuli/002790_2014-06-22_19-36-35_094959634447_rgbf000074-resize_4/002790_2014-06-22_19-36-35_094959634447_rgbf000074-resize_4-target.png,depth_discrimination_stimuli/001032_2014-06-08_13-23-17_260595134347_rgbf000021-resize_3/001032_2014-06-08_13-23-17_260595134347_rgbf000021-resize_3-target.png,250,3.512,3.2725,0,2143,502,249,501,249,500,feet,,,,,1776244,2111731,39
260059,DepthScenes,duration_discrimination,discrim_jsons/d0_rotated_dr.json,http://54.173.234.186/DepthDuration/depth_discrimination_MTurk/DepthDiscrim_HTML.html#2,2,1366,768,1366,768,6-19-2021,15-9-19,79,depth_discrimination_stimuli/003492_2014-05-21_15-50-55_094959634447_rgbf000828-resize_1/003492_2014-05-21_15-50-55_094959634447_rgbf000828-resize_1-target.png,depth_discrimination_stimuli/001158_2014-06-17_15-32-16_260595134347_rgbf000138-resize_2/001158_2014-06-17_15-32-16_260595134347_rgbf000138-resize_2-target.png,1000,4.06875,4.5315,1,1598,502,1000,500,999,501,feet,,,,,1776244,2111731,39
260059,DepthScenes,duration_discrimination,discrim_jsons/d0_rotated_dr.json,http://54.173.234.186/DepthDuration/depth_discrimination_MTurk/DepthDiscrim_HTML.html#2,2,1366,768,1366,768,6-19-2021,15-9-19,80,depth_discrimination_stimuli/002763_2014-06-22_19-13-10_094959634447_rgbf000075-resize_4/002763_2014-06-22_19-13-10_094959634447_rgbf000075-resize_4-target.png,depth_discrimination_stimuli/001244_2014-06-17_16-47-45_260595134347_rgbf000030-resize_4/001244_2014-06-17_16-47-45_260595134347_rgbf000030-resize_4-target.png,250,1.68375,2.0425,0,2228,501,249,500,250,501,feet,,,,,1776244,2111731,39
260059,DepthScenes,duration_discrimination,discrim_jsons/d0_rotated_dr.json,http://54.173.234.186/DepthDuration/depth_discrimination_MTurk/DepthDiscrim_HTML.html#2,2,1366,768,1366,768,6-19-2021,15-9-19,81,depth_discrimination_stimuli/002057_2014-06-24_21-00-13_260595134347_rgbf000120-resize_1/002057_2014-06-24_21-00-13_260595134347_rgbf000120-resize_1-target.png,depth_discrimination_stimuli/000505_2014-06-08_23-03-23_260595134347_rgbf000091-resize_0/000505_2014-06-08_23-03-23_260595134347_rgbf000091-resize_0-target.png,250,2.967,3.3105,1,1539,501,249,500,250,501,feet,,,,,1776244,2111731,39
260059,DepthScenes,duration_discrimination,discrim_jsons/d0_rotated_dr.json,http://54.173.234.186/DepthDuration/depth_discrimination_MTurk/DepthDiscrim_HTML.html#2,2,1366,768,1366,768,6-19-2021,15-9-19,82,depth_discrimination_stimuli/002072_2014-06-24_21-48-06_260595134347_rgbf000115-resize_0/002072_2014-06-24_21-48-06_260595134347_rgbf000115-resize_0-target.png,depth_discrimination_stimuli/001012_2014-06-08_23-19-38_260595134347_rgbf000057-resize_0/001012_2014-06-08_23-19-38_260595134347_rgbf000057-resize_0-target.png,250,4.702,1.38325,0,2401,500,250,501,250,499,feet,,,,,1776244,2111731,39
260059,DepthScenes,duration_discrimination,discrim_jsons/d0_rotated_dr.json,http://54.173.234.186/DepthDuration/depth_discrimination_MTurk/DepthDiscrim_HTML.html#2,2,1366,768,1366,768,6-19-2021,15-9-19,83,depth_discrimination_stimuli/000810_2014-06-08_17-20-01_260595134347_rgbf000105-resize_0/000810_2014-06-08_17-20-01_260595134347_rgbf000105-resize_0-target.png,depth_discrimination_stimuli/000103_2014-05-14_22-01-17_260595134347_rgbf000152-resize_5/000103_2014-05-14_22-01-17_260595134347_rgbf000152-resize_5-target.png,250,1.4865,1.993,1,2316,501,249,502,248,500,feet,,,,,1776244,2111731,39
260059,DepthScenes,duration_discrimination,discrim_jsons/d0_rotated_dr.json,http://54.173.234.186/DepthDuration/depth_discrimination_MTurk/DepthDiscrim_HTML.html#2,2,1366,768,1366,768,6-19-2021,15-9-19,84,depth_discrimination_stimuli/000109_2014-05-14_23-41-52_260595134347_rgbf000035-resize_9/000109_2014-05-14_23-41-52_260595134347_rgbf000035-resize_9-target.png,depth_discrimination_stimuli/000470_2014-06-09_19-42-40_260595134347_rgbf000094-resize_1/000470_2014-06-09_19-42-40_260595134347_rgbf000094-resize_1-target.png,250,1.3545,1.831,1,1421,501,249,500,250,500,feet,,,,,1776244,2111731,39
260059,DepthScenes,duration_discrimination,discrim_jsons/d0_rotated_dr.json,http://54.173.234.186/DepthDuration/depth_discrimination_MTurk/DepthDiscrim_HTML.html#2,2,1366,768,1366,768,6-19-2021,15-9-19,85,depth_discrimination_stimuli/002675_2014-06-13_16-08-49_094959634447_rgbf000151-resize_2/002675_2014-06-13_16-08-49_094959634447_rgbf000151-resize_2-target.png,depth_discrimination_stimuli/001222_2014-06-17_16-24-06_260595134347_rgbf000073-resize_0/001222_2014-06-17_16-24-06_260595134347_rgbf000073-resize_0-target.png,1000,4.5065,1.4385,0,2199,500,1001,499,1000,500,feet,,,,,1776244,2111731,39
260059,DepthScenes,duration_discrimination,discrim_jsons/d0_rotated_dr.json,http://54.173.234.186/DepthDuration/depth_discrimination_MTurk/DepthDiscrim_HTML.html#2,2,1366,768,1366,768,6-19-2021,15-9-19,86,depth_discrimination_stimuli/002987_2014-06-08_18-48-20_094959634447_rgbf000022-resize_0/002987_2014-06-08_18-48-20_094959634447_rgbf000022-resize_0-target.png,depth_discrimination_stimuli/000502_2014-06-08_23-02-32_260595134347_rgbf000063-resize_4/000502_2014-06-08_23-02-32_260595134347_rgbf000063-resize_4-target.png,250,2.6775,2.431,1,1789,500,250,501,249,502,feet,,,,,1776244,2111731,39
260059,DepthScenes,duration_discrimination,discrim_jsons/d0_rotated_dr.json,http://54.173.234.186/DepthDuration/depth_discrimination_MTurk/DepthDiscrim_HTML.html#2,2,1366,768,1366,768,6-19-2021,15-9-19,87,depth_discrimination_stimuli/003079_2014-06-15_15-18-20_094959634447_rgbf000152-resize_8/003079_2014-06-15_15-18-20_094959634447_rgbf000152-resize_8-target.png,depth_discrimination_stimuli/001056_2014-06-08_18-46-44_260595134347_rgbf000068-resize_0/001056_2014-06-08_18-46-44_260595134347_rgbf000068-resize_0-target.png,1000,2.8775,2.6625,1,1794,501,999,506,995,500,feet,,,,,1776244,2111731,39
260059,DepthScenes,duration_discrimination,discrim_jsons/d0_rotated_dr.json,http://54.173.234.186/DepthDuration/depth_discrimination_MTurk/DepthDiscrim_HTML.html#2,2,1366,768,1366,768,6-19-2021,15-9-19,88,depth_discrimination_stimuli/001584_2014-06-20_11-07-43_260595134347_rgbf000002-resize_1/001584_2014-06-20_11-07-43_260595134347_rgbf000002-resize_1-target.png,depth_discrimination_stimuli/002570_2014-06-24_13-59-54_094959634447_rgbf000059-resize_0/002570_2014-06-24_13-59-54_094959634447_rgbf000059-resize_0-target.png,1000,3.53,4.037,0,1803,501,1001,500,999,500,feet,,,,,1776244,2111731,39
260059,DepthScenes,duration_discrimination,discrim_jsons/d0_rotated_dr.json,http://54.173.234.186/DepthDuration/depth_discrimination_MTurk/DepthDiscrim_HTML.html#2,2,1366,768,1366,768,6-19-2021,15-9-19,89,depth_discrimination_stimuli/000742_2014-06-08_18-48-09_260595134347_rgbf000164-resize_4/000742_2014-06-08_18-48-09_260595134347_rgbf000164-resize_4-target.png,depth_discrimination_stimuli/000773_2014-06-08_22-24-54_260595134347_rgbf000093-resize_1/000773_2014-06-08_22-24-54_260595134347_rgbf000093-resize_1-target.png,1000,4.632,4.973,1,2510,502,999,500,1002,498,feet,,,,,1776244,2111731,39
260059,DepthScenes,duration_discrimination,discrim_jsons/d0_rotated_dr.json,http://54.173.234.186/DepthDuration/depth_discrimination_MTurk/DepthDiscrim_HTML.html#2,2,1366,768,1366,768,6-19-2021,15-9-19,90,depth_discrimination_stimuli/002964_2014-06-08_17-46-11_094959634447_rgbf000091-resize_4/002964_2014-06-08_17-46-11_094959634447_rgbf000091-resize_4-target.png,depth_discrimination_stimuli/000483_2014-06-09_20-41-45_260595134347_rgbf000116-resize_4/000483_2014-06-09_20-41-45_260595134347_rgbf000116-resize_4-target.png,1000,1.691,1.337,1,2613,508,1000,505,995,500,feet,,,,,1776244,2111731,39
260059,DepthScenes,duration_discrimination,discrim_jsons/d0_rotated_dr.json,http://54.173.234.186/DepthDuration/depth_discrimination_MTurk/DepthDiscrim_HTML.html#2,2,1366,768,1366,768,6-19-2021,15-9-19,91,depth_discrimination_stimuli/002758_2014-06-22_19-11-20_094959634447_rgbf000128-resize_1/002758_2014-06-22_19-11-20_094959634447_rgbf000128-resize_1-target.png,depth_discrimination_stimuli/000854_2014-06-09_19-43-13_260595134347_rgbf000066-resize_0/000854_2014-06-09_19-43-13_260595134347_rgbf000066-resize_0-target.png,250,2.555,3.068,0,1381,501,250,500,250,500,feet,,,,,1776244,2111731,39
260059,DepthScenes,duration_discrimination,discrim_jsons/d0_rotated_dr.json,http://54.173.234.186/DepthDuration/depth_discrimination_MTurk/DepthDiscrim_HTML.html#2,2,1366,768,1366,768,6-19-2021,15-9-19,92,depth_discrimination_stimuli/002209_2014-06-28_18-36-10_260595134347_rgbf000051-resize_1/002209_2014-06-28_18-36-10_260595134347_rgbf000051-resize_1-target.png,depth_discrimination_stimuli/001055_2014-06-08_18-45-35_260595134347_rgbf000111-resize_4/001055_2014-06-08_18-45-35_260595134347_rgbf000111-resize_4-target.png,1000,2.057,2.429,0,4859,501,1000,500,999,501,feet,,,,,1776244,2111731,39
260059,DepthScenes,duration_discrimination,discrim_jsons/d0_rotated_dr.json,http://54.173.234.186/DepthDuration/depth_discrimination_MTurk/DepthDiscrim_HTML.html#2,2,1366,768,1366,768,6-19-2021,15-9-19,93,depth_discrimination_stimuli/001150_2014-06-17_15-27-34_260595134347_rgbf000108-resize_2/001150_2014-06-17_15-27-34_260595134347_rgbf000108-resize_2-target.png,depth_discrimination_stimuli/000677_2014-06-08_23-10-32_260595134347_rgbf000158-resize_6/000677_2014-06-08_23-10-32_260595134347_rgbf000158-resize_6-target.png,1000,4.0325,3.556,1,1763,509,993,499,1000,501,feet,,,,,1776244,2111731,39
260059,DepthScenes,duration_discrimination,discrim_jsons/d0_rotated_dr.json,http://54.173.234.186/DepthDuration/depth_discrimination_MTurk/DepthDiscrim_HTML.html#2,2,1366,768,1366,768,6-19-2021,15-9-19,94,depth_discrimination_stimuli/001828_2014-06-26_21-40-03_260595134347_rgbf000024-resize_0/001828_2014-06-26_21-40-03_260595134347_rgbf000024-resize_0-target.png,depth_discrimination_stimuli/002414_2014-06-28_20-24-58_260595134347_rgbf000067-resize_4/002414_2014-06-28_20-24-58_260595134347_rgbf000067-resize_4-target.png,250,4.826,4.363,0,1620,501,253,498,250,500,feet,,,,,1776244,2111731,39
260059,DepthScenes,duration_discrimination,discrim_jsons/d0_rotated_dr.json,http://54.173.234.186/DepthDuration/depth_discrimination_MTurk/DepthDiscrim_HTML.html#2,2,1366,768,1366,768,6-19-2021,15-9-19,95,depth_discrimination_stimuli/002905_2014-06-03_18-04-43_094959634447_rgbf000151-resize_2/002905_2014-06-03_18-04-43_094959634447_rgbf000151-resize_2-target.png,depth_discrimination_stimuli/000740_2014-06-08_18-46-23_260595134347_rgbf000049-resize_6/000740_2014-06-08_18-46-23_260595134347_rgbf000049-resize_6-target.png,250,2.0295,1.687,1,1827,501,250,500,250,500,feet,,,,,1776244,2111731,39
260059,DepthScenes,duration_discrimination,discrim_jsons/d0_rotated_dr.json,http://54.173.234.186/DepthDuration/depth_discrimination_MTurk/DepthDiscrim_HTML.html#2,2,1366,768,1366,768,6-19-2021,15-9-19,96,depth_discrimination_stimuli/002153_2014-06-25_21-27-18_260595134347_rgbf000038-resize_5/002153_2014-06-25_21-27-18_260595134347_rgbf000038-resize_5-target.png,depth_discrimination_stimuli/002725_2014-06-22_11-47-51_094959634447_rgbf000070-resize_1/002725_2014-06-22_11-47-51_094959634447_rgbf000070-resize_1-target.png,250,2.505,2.195,0,1766,502,249,501,249,500,feet,,,,,1776244,2111731,39
260059,DepthScenes,duration_discrimination,discrim_jsons/d0_rotated_dr.json,http://54.173.234.186/DepthDuration/depth_discrimination_MTurk/DepthDiscrim_HTML.html#2,2,1366,768,1366,768,6-19-2021,15-9-19,96,,,,,,,1766,502,249,501,249,500,feet,,,,,1776244,2111731,39
260059,DepthScenes,duration_discrimination,discrim_jsons/d0_rotated_dr.json,http://54.173.234.186/DepthDuration/depth_discrimination_MTurk/DepthDiscrim_HTML.html#2,2,1349,768,1366,768,6-19-2021,15-9-19,98,,,,,,,1766,502,249,501,249,500,feet,4,4,depth_discrimination_stimuli/000929_2014-06-09_16-33-19_260595134347_rgbf000139-resize_0/000929_2014-06-09_16-33-19_260595134347_rgbf000139-resize-original.jpg,39984,1776244,2111731,39
260059,DepthScenes,duration_discrimination,discrim_jsons/d0_rotated_dr.json,http://54.173.234.186/DepthDuration/depth_discrimination_MTurk/DepthDiscrim_HTML.html#2,2,1349,768,1366,768,6-19-2021,15-9-19,99,,,,,,,1766,502,249,501,249,500,feet,4,4,depth_discrimination_stimuli/001164_2014-06-17_15-35-46_260595134347_rgbf000085-resize_3/001164_2014-06-17_15-35-46_260595134347_rgbf000085-resize-original.jpg,20420,1776244,2111731,39
260059,DepthScenes,duration_discrimination,discrim_jsons/d0_rotated_dr.json,http://54.173.234.186/DepthDuration/depth_discrimination_MTurk/DepthDiscrim_HTML.html#2,2,1349,768,1366,768,6-19-2021,15-9-19,100,,,,,,,1766,502,249,501,249,500,feet,4,4,depth_discrimination_stimuli/002790_2014-06-22_19-36-35_094959634447_rgbf000074-resize_4/002790_2014-06-22_19-36-35_094959634447_rgbf000074-resize-original.jpg,14777,1776244,2111731,39
260059,DepthScenes,duration_discrimination,discrim_jsons/d0_rotated_dr.json,http://54.173.234.186/DepthDuration/depth_discrimination_MTurk/DepthDiscrim_HTML.html#2,2,1349,768,1366,768,6-19-2021,15-9-19,101,,,,,,,1766,502,249,501,249,500,feet,4,3,depth_discrimination_stimuli/001059_2014-06-08_21-53-27_260595134347_rgbf000061-resize_4/001059_2014-06-08_21-53-27_260595134347_rgbf000061-resize-original.jpg,10842,1776244,2111731,39
260059,DepthScenes,duration_discrimination,discrim_jsons/d0_rotated_dr.json,http://54.173.234.186/DepthDuration/depth_discrimination_MTurk/DepthDiscrim_HTML.html#2,2,1349,768,1366,768,6-19-2021,15-9-19,102,,,,,,,1766,502,249,501,249,500,feet,4,4,depth_discrimination_stimuli/000522_2014-06-08_13-35-06_260595134347_rgbf000244-resize_1/000522_2014-06-08_13-35-06_260595134347_rgbf000244-resize-original.jpg,5602,1776244,2111731,39
260059,DepthScenes,duration_discrimination,discrim_jsons/d0_rotated_dr.json,http://54.173.234.186/DepthDuration/depth_discrimination_MTurk/DepthDiscrim_HTML.html#2,2,1349,768,1366,768,6-19-2021,15-9-19,103,,,,,,,1766,502,249,501,249,500,feet,5,5,depth_discrimination_stimuli/002637_2014-06-24_14-51-13_094959634447_rgbf000066-resize_4/002637_2014-06-24_14-51-13_094959634447_rgbf000066-resize-original.jpg,7138,1776244,2111731,39
260059,DepthScenes,duration_discrimination,discrim_jsons/d0_rotated_dr.json,http://54.173.234.186/DepthDuration/depth_discrimination_MTurk/DepthDiscrim_HTML.html#2,2,1349,768,1366,768,6-19-2021,15-9-19,104,,,,,,,1766,502,249,501,249,500,feet,4,4,depth_discrimination_stimuli/001828_2014-06-26_21-40-03_260595134347_rgbf000024-resize_0/001828_2014-06-26_21-40-03_260595134347_rgbf000024-resize-original.jpg,8460,1776244,2111731,39
260059,DepthScenes,duration_discrimination,discrim_jsons/d0_rotated_dr.json,http://54.173.234.186/DepthDuration/depth_discrimination_MTurk/DepthDiscrim_HTML.html#2,2,1349,768,1366,768,6-19-2021,15-9-19,105,,,,,,,1766,502,249,501,249,500,feet,5,3,depth_discrimination_stimuli/002444_2014-06-28_20-32-08_260595134347_rgbf000027-resize_0/002444_2014-06-28_20-32-08_260595134347_rgbf000027-resize-original.jpg,16496,1776244,2111731,39
260059,DepthScenes,duration_discrimination,discrim_jsons/d0_rotated_dr.json,http://54.173.234.186/DepthDuration/depth_discrimination_MTurk/DepthDiscrim_HTML.html#2,2,1349,768,1366,768,6-19-2021,15-9-19,106,,,,,,,1766,502,249,501,249,500,feet,4,3,depth_discrimination_stimuli/001810_2014-06-26_20-51-35_260595134347_rgbf000040-resize_3/001810_2014-06-26_20-51-35_260595134347_rgbf000040-resize-original.jpg,6323,1776244,2111731,39
260059,DepthScenes,duration_discrimination,discrim_jsons/d0_rotated_dr.json,http://54.173.234.186/DepthDuration/depth_discrimination_MTurk/DepthDiscrim_HTML.html#2,2,1349,768,1366,768,6-19-2021,15-9-19,107,,,,,,,1766,502,249,501,249,500,feet,4,4,depth_discrimination_stimuli/001011_2014-06-08_23-18-54_260595134347_rgbf000044-resize_4/001011_2014-06-08_23-18-54_260595134347_rgbf000044-resize-original.jpg,4268,1776244,2111731,39
260059,DepthScenes,duration_discrimination,discrim_jsons/d0_rotated_dr.json,http://54.173.234.186/DepthDuration/depth_discrimination_MTurk/DepthDiscrim_HTML.html#2,2,1349,768,1366,768,6-19-2021,15-9-19,108,,,,,,,1766,502,249,501,249,500,feet,4,3,depth_discrimination_stimuli/000542_2014-06-08_18-27-08_260595134347_rgbf000118-resize_1/000542_2014-06-08_18-27-08_260595134347_rgbf000118-resize-original.jpg,3492,1776244,2111731,39
260059,DepthScenes,duration_discrimination,discrim_jsons/d0_rotated_dr.json,http://54.173.234.186/DepthDuration/depth_discrimination_MTurk/DepthDiscrim_HTML.html#2,2,1349,768,1366,768,6-19-2021,15-9-19,109,,,,,,,1766,502,249,501,249,500,feet,5,4,depth_discrimination_stimuli/003621_2014-05-23_18-06-08_094959634447_rgbf000101-resize_1/003621_2014-05-23_18-06-08_094959634447_rgbf000101-resize-original.jpg,4300,1776244,2111731,39
260059,DepthScenes,duration_discrimination,discrim_jsons/d0_rotated_dr.json,http://54.173.234.186/DepthDuration/depth_discrimination_MTurk/DepthDiscrim_HTML.html#2,2,1349,768,1366,768,6-19-2021,15-9-19,110,,,,,,,1766,502,249,501,249,500,feet,4,3,depth_discrimination_stimuli/002748_2014-06-22_19-07-22_094959634447_rgbf000078-resize_1/002748_2014-06-22_19-07-22_094959634447_rgbf000078-resize-original.jpg,2979,1776244,2111731,39
260059,DepthScenes,duration_discrimination,discrim_jsons/d0_rotated_dr.json,http://54.173.234.186/DepthDuration/depth_discrimination_MTurk/DepthDiscrim_HTML.html#2,2,1349,768,1366,768,6-19-2021,15-9-19,111,,,,,,,1766,502,249,501,249,500,feet,4,5,depth_discrimination_stimuli/002568_2014-06-24_13-59-21_094959634447_rgbf000062-resize_4/002568_2014-06-24_13-59-21_094959634447_rgbf000062-resize-original.jpg,6579,1776244,2111731,39
260059,DepthScenes,duration_discrimination,discrim_jsons/d0_rotated_dr.json,http://54.173.234.186/DepthDuration/depth_discrimination_MTurk/DepthDiscrim_HTML.html#2,2,1349,768,1366,768,6-19-2021,15-9-19,112,,,,,,,1766,502,249,501,249,500,feet,4,3,depth_discrimination_stimuli/002987_2014-06-08_18-48-20_094959634447_rgbf000022-resize_0/002987_2014-06-08_18-48-20_094959634447_rgbf000022-resize-original.jpg,6318,1776244,2111731,39
260059,DepthScenes,duration_discrimination,discrim_jsons/d0_rotated_dr.json,http://54.173.234.186/DepthDuration/depth_discrimination_MTurk/DepthDiscrim_HTML.html#2,2,1349,768,1366,768,6-19-2021,15-9-19,113,,,,,,,1766,502,249,501,249,500,feet,4,3,depth_discrimination_stimuli/001289_2014-06-16_16-25-52_260595134347_rgbf000067-resize_1/001289_2014-06-16_16-25-52_260595134347_rgbf000067-resize-original.jpg,9662,1776244,2111731,39
260059,DepthScenes,duration_discrimination,discrim_jsons/d0_rotated_dr.json,http://54.173.234.186/DepthDuration/depth_discrimination_MTurk/DepthDiscrim_HTML.html#2,2,1349,768,1366,768,6-19-2021,15-9-19,114,,,,,,,1766,502,249,501,249,500,feet,4,4,depth_discrimination_stimuli/000720_2014-06-08_18-37-27_260595134347_rgbf000203-resize_4/000720_2014-06-08_18-37-27_260595134347_rgbf000203-resize-original.jpg,5859,1776244,2111731,39
260059,DepthScenes,duration_discrimination,discrim_jsons/d0_rotated_dr.json,http://54.173.234.186/DepthDuration/depth_discrimination_MTurk/DepthDiscrim_HTML.html#2,2,1349,768,1366,768,6-19-2021,15-9-19,115,,,,,,,1766,502,249,501,249,500,feet,3,4,depth_discrimination_stimuli/000740_2014-06-08_18-46-23_260595134347_rgbf000049-resize_6/000740_2014-06-08_18-46-23_260595134347_rgbf000049-resize-original.jpg,7137,1776244,2111731,39
260059,DepthScenes,duration_discrimination,discrim_jsons/d0_rotated_dr.json,http://54.173.234.186/DepthDuration/depth_discrimination_MTurk/DepthDiscrim_HTML.html#2,2,1349,768,1366,768,6-19-2021,15-9-19,116,,,,,,,1766,502,249,501,249,500,feet,5,4,depth_discrimination_stimuli/003092_2014-06-24_21-01-49_094959634447_rgbf000049-resize_2/003092_2014-06-24_21-01-49_094959634447_rgbf000049-resize-original.jpg,4562,1776244,2111731,39
260059,DepthScenes,duration_discrimination,discrim_jsons/d0_rotated_dr.json,http://54.173.234.186/DepthDuration/depth_discrimination_MTurk/DepthDiscrim_HTML.html#2,2,1349,768,1366,768,6-19-2021,15-9-19,117,,,,,,,1766,502,249,501,249,500,feet,4,5,depth_discrimination_stimuli/001392_2014-06-19_16-07-59_260595134347_rgbf000046-resize_1/001392_2014-06-19_16-07-59_260595134347_rgbf000046-resize-original.jpg,10861,1776244,2111731,39
260059,DepthScenes,duration_discrimination,discrim_jsons/d0_rotated_dr.json,http://54.173.234.186/DepthDuration/depth_discrimination_MTurk/DepthDiscrim_HTML.html#2,2,1349,768,1366,768,6-19-2021,15-9-19,118,,,,,,,1766,502,249,501,249,500,feet,4,3,depth_discrimination_stimuli/000486_2014-06-09_20-47-20_260595134347_rgbf000143-resize_2/000486_2014-06-09_20-47-20_260595134347_rgbf000143-resize-original.jpg,13077,1776244,2111731,39
260059,DepthScenes,duration_discrimination,discrim_jsons/d0_rotated_dr.json,http://54.173.234.186/DepthDuration/depth_discrimination_MTurk/DepthDiscrim_HTML.html#2,2,1349,768,1366,768,6-19-2021,15-9-19,119,,,,,,,1766,502,249,501,249,500,feet,5,4,depth_discrimination_stimuli/000709_2014-06-08_13-51-55_260595134347_rgbf000068-resize_3/000709_2014-06-08_13-51-55_260595134347_rgbf000068-resize-original.jpg,9404,1776244,2111731,39
260059,DepthScenes,duration_discrimination,discrim_jsons/d0_rotated_dr.json,http://54.173.234.186/DepthDuration/depth_discrimination_MTurk/DepthDiscrim_HTML.html#2,2,1349,768,1366,768,6-19-2021,15-9-19,120,,,,,,,1766,502,249,501,249,500,feet,3,4,depth_discrimination_stimuli/002425_2014-06-28_20-27-29_260595134347_rgbf000031-resize_8/002425_2014-06-28_20-27-29_260595134347_rgbf000031-resize-original.jpg,7524,1776244,2111731,39
260059,DepthScenes,duration_discrimination,discrim_jsons/d0_rotated_dr.json,http://54.173.234.186/DepthDuration/depth_discrimination_MTurk/DepthDiscrim_HTML.html#2,2,1349,768,1366,768,6-19-2021,15-9-19,121,,,,,,,1766,502,249,501,249,500,feet,5,4,depth_discrimination_stimuli/001092_2014-06-15_17-34-58_260595134347_rgbf000171-resize_3/001092_2014-06-15_17-34-58_260595134347_rgbf000171-resize-original.jpg,5766,1776244,2111731,39
260059,DepthScenes,duration_discrimination,discrim_jsons/d0_rotated_dr.json,http://54.173.234.186/DepthDuration/depth_discrimination_MTurk/DepthDiscrim_HTML.html#2,2,1349,768,1366,768,6-19-2021,15-9-19,122,,,,,,,1766,502,249,501,249,500,feet,4,5,depth_discrimination_stimuli/001532_2014-06-20_16-50-41_260595134347_rgbf000081-resize_4/001532_2014-06-20_16-50-41_260595134347_rgbf000081-resize-original.jpg,12562,1776244,2111731,39
260059,DepthScenes,duration_discrimination,discrim_jsons/d0_rotated_dr.json,http://54.173.234.186/DepthDuration/depth_discrimination_MTurk/DepthDiscrim_HTML.html#2,2,1349,768,1366,768,6-19-2021,15-9-19,123,,,,,,,1766,502,249,501,249,500,feet,4,5,depth_discrimination_stimuli/000109_2014-05-14_23-41-52_260595134347_rgbf000035-resize_9/000109_2014-05-14_23-41-52_260595134347_rgbf000035-resize-original.jpg,14461,1776244,2111731,39
260059,DepthScenes,duration_discrimination,discrim_jsons/d0_rotated_dr.json,http://54.173.234.186/DepthDuration/depth_discrimination_MTurk/DepthDiscrim_HTML.html#2,2,1349,768,1366,768,6-19-2021,15-9-19,124,,,,,,,1766,502,249,501,249,500,feet,4,4,depth_discrimination_stimuli/001167_2014-06-17_15-38-07_260595134347_rgbf000108-resize_0/001167_2014-06-17_15-38-07_260595134347_rgbf000108-resize-original.jpg,7278,1776244,2111731,39
260059,DepthScenes,duration_discrimination,discrim_jsons/d0_rotated_dr.json,http://54.173.234.186/DepthDuration/depth_discrimination_MTurk/DepthDiscrim_HTML.html#2,2,1349,768,1366,768,6-19-2021,15-9-19,125,,,,,,,1766,502,249,501,249,500,feet,4,3,depth_discrimination_stimuli/000502_2014-06-08_23-02-32_260595134347_rgbf000063-resize_4/000502_2014-06-08_23-02-32_260595134347_rgbf000063-resize-original.jpg,5642,1776244,2111731,39
260059,DepthScenes,duration_discrimination,discrim_jsons/d0_rotated_dr.json,http://54.173.234.186/DepthDuration/depth_discrimination_MTurk/DepthDiscrim_HTML.html#2,2,1349,768,1366,768,6-19-2021,15-9-19,126,,,,,,,1766,502,249,501,249,500,feet,4,5,depth_discrimination_stimuli/002600_2014-06-24_14-27-04_094959634447_rgbf000074-resize_2/002600_2014-06-24_14-27-04_094959634447_rgbf000074-resize-original.jpg,3476,1776244,2111731,39
260059,DepthScenes,duration_discrimination,discrim_jsons/d0_rotated_dr.json,http://54.173.234.186/DepthDuration/depth_discrimination_MTurk/DepthDiscrim_HTML.html#2,2,1349,768,1366,768,6-19-2021,15-9-19,127,,,,,,,1766,502,249,501,249,500,feet,4,4,depth_discrimination_stimuli/001450_2014-06-19_17-02-03_260595134347_rgbf000203-resize_4/001450_2014-06-19_17-02-03_260595134347_rgbf000203-resize-original.jpg,4180,1776244,2111731,39
260059,DepthScenes,duration_discrimination,discrim_jsons/d0_rotated_dr.json,http://54.173.234.186/DepthDuration/depth_discrimination_MTurk/DepthDiscrim_HTML.html#2,2,1349,768,1366,768,6-19-2021,15-9-19,128,,,,,,,1766,502,249,501,249,500,feet,5,4,depth_discrimination_stimuli/002153_2014-06-25_21-27-18_260595134347_rgbf000038-resize_5/002153_2014-06-25_21-27-18_260595134347_rgbf000038-resize-original.jpg,4779,1776244,2111731,39
260059,DepthScenes,duration_discrimination,discrim_jsons/d0_rotated_dr.json,http://54.173.234.186/DepthDuration/depth_discrimination_MTurk/DepthDiscrim_HTML.html#2,2,1349,768,1366,768,6-19-2021,15-9-19,129,,,,,,,1766,502,249,501,249,500,feet,5,4,depth_discrimination_stimuli/001555_2014-06-20_17-12-10_260595134347_rgbf000065-resize_4/001555_2014-06-20_17-12-10_260595134347_rgbf000065-resize-original.jpg,4450,1776244,2111731,39
260059,DepthScenes,duration_discrimination,discrim_jsons/d0_rotated_dr.json,http://54.173.234.186/DepthDuration/depth_discrimination_MTurk/DepthDiscrim_HTML.html#2,2,1349,768,1366,768,6-19-2021,15-9-19,130,,,,,,,1766,502,249,501,249,500,feet,4,3,depth_discrimination_stimuli/001055_2014-06-08_18-45-35_260595134347_rgbf000111-resize_4/001055_2014-06-08_18-45-35_260595134347_rgbf000111-resize-original.jpg,5878,1776244,2111731,39
260059,DepthScenes,duration_discrimination,discrim_jsons/d0_rotated_dr.json,http://54.173.234.186/DepthDuration/depth_discrimination_MTurk/DepthDiscrim_HTML.html#2,2,1349,768,1366,768,6-19-2021,15-9-19,131,,,,,,,1766,502,249,501,249,500,feet,4,3,depth_discrimination_stimuli/003048_2014-06-15_13-49-43_094959634447_rgbf000150-resize_1/003048_2014-06-15_13-49-43_094959634447_rgbf000150-resize-original.jpg,6693,1776244,2111731,39
260059,DepthScenes,duration_discrimination,discrim_jsons/d0_rotated_dr.json,http://54.173.234.186/DepthDuration/depth_discrimination_MTurk/DepthDiscrim_HTML.html#2,2,1349,768,1366,768,6-19-2021,15-9-19,132,,,,,,,1766,502,249,501,249,500,feet,5,4,depth_discrimination_stimuli/001016_2014-06-09_16-16-10_260595134347_rgbf000112-resize_5/001016_2014-06-09_16-16-10_260595134347_rgbf000112-resize-original.jpg,4839,1776244,2111731,39
260059,DepthScenes,duration_discrimination,discrim_jsons/d0_rotated_dr.json,http://54.173.234.186/DepthDuration/depth_discrimination_MTurk/DepthDiscrim_HTML.html#2,2,1349,768,1366,768,6-19-2021,15-9-19,133,,,,,,,1766,502,249,501,249,500,feet,5,4,depth_discrimination_stimuli/000636_2014-06-08_16-39-02_260595134347_rgbf000108-resize_4/000636_2014-06-08_16-39-02_260595134347_rgbf000108-resize-original.jpg,4238,1776244,2111731,39
260059,DepthScenes,duration_discrimination,discrim_jsons/d0_rotated_dr.json,http://54.173.234.186/DepthDuration/depth_discrimination_MTurk/DepthDiscrim_HTML.html#2,2,1349,768,1366,768,6-19-2021,15-9-19,134,,,,,,,1766,502,249,501,249,500,feet,3,4,depth_discrimination_stimuli/000906_2014-06-08_13-35-43_260595134347_rgbf000155-resize_1/000906_2014-06-08_13-35-43_260595134347_rgbf000155-resize-original.jpg,3242,1776244,2111731,39
260059,DepthScenes,duration_discrimination,discrim_jsons/d0_rotated_dr.json,http://54.173.234.186/DepthDuration/depth_discrimination_MTurk/DepthDiscrim_HTML.html#2,2,1349,768,1366,768,6-19-2021,15-9-19,135,,,,,,,1766,502,249,501,249,500,feet,5,4,depth_discrimination_stimuli/001136_2014-06-17_15-19-41_260595134347_rgbf000076-resize_3/001136_2014-06-17_15-19-41_260595134347_rgbf000076-resize-original.jpg,3218,1776244,2111731,39
260059,DepthScenes,duration_discrimination,discrim_jsons/d0_rotated_dr.json,http://54.173.234.186/DepthDuration/depth_discrimination_MTurk/DepthDiscrim_HTML.html#2,2,1349,768,1366,768,6-19-2021,15-9-19,136,,,,,,,1766,502,249,501,249,500,feet,4,4,depth_discrimination_stimuli/002118_2014-06-25_20-32-08_260595134347_rgbf000078-resize_1/002118_2014-06-25_20-32-08_260595134347_rgbf000078-resize-original.jpg,6378,1776244,2111731,39
260059,DepthScenes,duration_discrimination,discrim_jsons/d0_rotated_dr.json,http://54.173.234.186/DepthDuration/depth_discrimination_MTurk/DepthDiscrim_HTML.html#2,2,1349,768,1366,768,6-19-2021,15-9-19,137,,,,,,,1766,502,249,501,249,500,feet,3,5,depth_discrimination_stimuli/000736_2014-06-08_18-24-15_260595134347_rgbf000206-resize_3/000736_2014-06-08_18-24-15_260595134347_rgbf000206-resize-original.jpg,8590,1776244,2111731,39
260059,DepthScenes,duration_discrimination,discrim_jsons/d0_rotated_dr.json,http://54.173.234.186/DepthDuration/depth_discrimination_MTurk/DepthDiscrim_HTML.html#2,2,1349,768,1366,768,6-19-2021,15-9-19,138,,,,,,,1766,502,249,501,249,500,feet,4,4,depth_discrimination_stimuli/002639_2014-06-24_14-51-37_094959634447_rgbf000074-resize_4/002639_2014-06-24_14-51-37_094959634447_rgbf000074-resize-original.jpg,6811,1776244,2111731,39
260059,DepthScenes,duration_discrimination,discrim_jsons/d0_rotated_dr.json,http://54.173.234.186/DepthDuration/depth_discrimination_MTurk/DepthDiscrim_HTML.html#2,2,1349,768,1366,768,6-19-2021,15-9-19,139,,,,,,,1766,502,249,501,249,500,feet,5,5,depth_discrimination_stimuli/002445_2014-06-28_20-32-16_260595134347_rgbf000029-resize_4/002445_2014-06-28_20-32-16_260595134347_rgbf000029-resize-original.jpg,6558,1776244,2111731,39
260059,DepthScenes,duration_discrimination,discrim_jsons/d0_rotated_dr.json,http://54.173.234.186/DepthDuration/depth_discrimination_MTurk/DepthDiscrim_HTML.html#2,2,1349,768,1366,768,6-19-2021,15-9-19,140,,,,,,,1766,502,249,501,249,500,feet,4,4,depth_discrimination_stimuli/000549_2014-06-08_22-10-24_260595134347_rgbf000247-resize_3/000549_2014-06-08_22-10-24_260595134347_rgbf000247-resize-original.jpg,7862,1776244,2111731,39
260059,DepthScenes,duration_discrimination,discrim_jsons/d0_rotated_dr.json,http://54.173.234.186/DepthDuration/depth_discrimination_MTurk/DepthDiscrim_HTML.html#2,2,1349,768,1366,768,6-19-2021,15-9-19,141,,,,,,,1766,502,249,501,249,500,feet,5,5,depth_discrimination_stimuli/002323_2014-06-28_20-01-54_260595134347_rgbf000051-resize_4/002323_2014-06-28_20-01-54_260595134347_rgbf000051-resize-original.jpg,7059,1776244,2111731,39
260059,DepthScenes,duration_discrimination,discrim_jsons/d0_rotated_dr.json,http://54.173.234.186/DepthDuration/depth_discrimination_MTurk/DepthDiscrim_HTML.html#2,2,1349,768,1366,768,6-19-2021,15-9-19,142,,,,,,,1766,502,249,501,249,500,feet,4,4,depth_discrimination_stimuli/000869_2014-06-09_20-50-18_260595134347_rgbf000060-resize_3/000869_2014-06-09_20-50-18_260595134347_rgbf000060-resize-original.jpg,6599,1776244,2111731,39
260059,DepthScenes,duration_discrimination,discrim_jsons/d0_rotated_dr.json,http://54.173.234.186/DepthDuration/depth_discrimination_MTurk/DepthDiscrim_HTML.html#2,2,1349,768,1366,768,6-19-2021,15-9-19,143,,,,,,,1766,502,249,501,249,500,feet,5,4,depth_discrimination_stimuli/000739_2014-06-08_18-45-58_260595134347_rgbf000068-resize_1/000739_2014-06-08_18-45-58_260595134347_rgbf000068-resize-original.jpg,10680,1776244,2111731,39
260059,DepthScenes,duration_discrimination,discrim_jsons/d0_rotated_dr.json,http://54.173.234.186/DepthDuration/depth_discrimination_MTurk/DepthDiscrim_HTML.html#2,2,1349,768,1366,768,6-19-2021,15-9-19,144,,,,,,,1766,502,249,501,249,500,feet,4,4,depth_discrimination_stimuli/001110_2014-06-15_17-25-28_260595134347_rgbf000150-resize_1/001110_2014-06-15_17-25-28_260595134347_rgbf000150-resize-original.jpg,11227,1776244,2111731,39
260059,DepthScenes,duration_discrimination,discrim_jsons/d0_rotated_dr.json,http://54.173.234.186/DepthDuration/depth_discrimination_MTurk/DepthDiscrim_HTML.html#2,2,1349,768,1366,768,6-19-2021,15-9-19,145,,,,,,,1766,502,249,501,249,500,feet,3,3,depth_discrimination_stimuli/002570_2014-06-24_13-59-54_094959634447_rgbf000059-resize_0/002570_2014-06-24_13-59-54_094959634447_rgbf000059-resize-original.jpg,4672,1776244,2111731,39
260059,DepthScenes,duration_discrimination,discrim_jsons/d0_rotated_dr.json,http://54.173.234.186/DepthDuration/depth_discrimination_MTurk/DepthDiscrim_HTML.html#2,2,1349,768,1366,768,6-19-2021,15-9-19,146,,,,,,,1766,502,249,501,249,500,feet,5,4,depth_discrimination_stimuli/000749_2014-06-08_21-55-06_260595134347_rgbf000070-resize_2/000749_2014-06-08_21-55-06_260595134347_rgbf000070-resize-original.jpg,4599,1776244,2111731,39
260059,DepthScenes,duration_discrimination,discrim_jsons/d0_rotated_dr.json,http://54.173.234.186/DepthDuration/depth_discrimination_MTurk/DepthDiscrim_HTML.html#2,2,1349,768,1366,768,6-19-2021,15-9-19,147,,,,,,,1766,502,249,501,249,500,feet,5,5,depth_discrimination_stimuli/002678_2014-06-13_16-15-32_094959634447_rgbf000151-resize_6/002678_2014-06-13_16-15-32_094959634447_rgbf000151-resize-original.jpg,4120,1776244,2111731,39
260059,DepthScenes,duration_discrimination,discrim_jsons/d0_rotated_dr.json,http://54.173.234.186/DepthDuration/depth_discrimination_MTurk/DepthDiscrim_HTML.html#2,2,1349,768,1366,768,6-19-2021,15-9-19,148,,,,,,,1766,502,249,501,249,500,feet,4,5,depth_discrimination_stimuli/001133_2014-06-17_14-49-16_260595134347_rgbf000100-resize_0/001133_2014-06-17_14-49-16_260595134347_rgbf000100-resize-original.jpg,4220,1776244,2111731,39
260059,DepthScenes,duration_discrimination,discrim_jsons/d0_rotated_dr.json,http://54.173.234.186/DepthDuration/depth_discrimination_MTurk/DepthDiscrim_HTML.html#2,2,1349,768,1366,768,6-19-2021,15-9-19,149,,,,,,,1766,502,249,501,249,500,feet,5,4,scene_property_catch_stimuli/sun_bpzzatthlcapxzol.jpg,4480,1776244,2111731,39
260059,DepthScenes,duration_discrimination,discrim_jsons/d0_rotated_dr.json,http://54.173.234.186/DepthDuration/depth_discrimination_MTurk/DepthDiscrim_HTML.html#2,2,1349,768,1366,768,6-19-2021,15-9-19,150,,,,,,,1766,502,249,501,249,500,feet,5,4,depth_discrimination_stimuli/003490_2014-05-21_15-50-11_094959634447_rgbf000101-resize_3/003490_2014-05-21_15-50-11_094959634447_rgbf000101-resize-original.jpg,6480,1776244,2111731,39
260059,DepthScenes,duration_discrimination,discrim_jsons/d0_rotated_dr.json,http://54.173.234.186/DepthDuration/depth_discrimination_MTurk/DepthDiscrim_HTML.html#2,2,1349,768,1366,768,6-19-2021,15-9-19,151,,,,,,,1766,502,249,501,249,500,feet,4,5,depth_discrimination_stimuli/003423_2014-05-21_10-23-26_094959634447_rgbf002665-resize_2/003423_2014-05-21_10-23-26_094959634447_rgbf002665-resize-original.jpg,7760,1776244,2111731,39
260059,DepthScenes,duration_discrimination,discrim_jsons/d0_rotated_dr.json,http://54.173.234.186/DepthDuration/depth_discrimination_MTurk/DepthDiscrim_HTML.html#2,2,1349,768,1366,768,6-19-2021,15-9-19,152,,,,,,,1766,502,249,501,249,500,feet,5,4,depth_discrimination_stimuli/001175_2014-06-17_15-45-55_260595134347_rgbf000129-resize_4/001175_2014-06-17_15-45-55_260595134347_rgbf000129-resize-original.jpg,6179,1776244,2111731,39
260059,DepthScenes,duration_discrimination,discrim_jsons/d0_rotated_dr.json,http://54.173.234.186/DepthDuration/depth_discrimination_MTurk/DepthDiscrim_HTML.html#2,2,1349,768,1366,768,6-19-2021,15-9-19,153,,,,,,,1766,502,249,501,249,500,feet,4,5,depth_discrimination_stimuli/001158_2014-06-17_15-32-16_260595134347_rgbf000138-resize_2/001158_2014-06-17_15-32-16_260595134347_rgbf000138-resize-original.jpg,4860,1776244,2111731,39
260059,DepthScenes,duration_discrimination,discrim_jsons/d0_rotated_dr.json,http://54.173.234.186/DepthDuration/depth_discrimination_MTurk/DepthDiscrim_HTML.html#2,2,1349,768,1366,768,6-19-2021,15-9-19,154,,,,,,,1766,502,249,501,249,500,feet,5,4,depth_discrimination_stimuli/001197_2014-06-17_16-01-50_260595134347_rgbf000103-resize_4/001197_2014-06-17_16-01-50_260595134347_rgbf000103-resize-original.jpg,4000,1776244,2111731,39
260059,DepthScenes,duration_discrimination,discrim_jsons/d0_rotated_dr.json,http://54.173.234.186/DepthDuration/depth_discrimination_MTurk/DepthDiscrim_HTML.html#2,2,1349,768,1366,768,6-19-2021,15-9-19,155,,,,,,,1766,502,249,501,249,500,feet,4,5,depth_discrimination_stimuli/000830_2014-06-04_19-49-31_260595134347_rgbf000096-resize_2/000830_2014-06-04_19-49-31_260595134347_rgbf000096-resize-original.jpg,7046,1776244,2111731,39
260059,DepthScenes,duration_discrimination,discrim_jsons/d0_rotated_dr.json,http://54.173.234.186/DepthDuration/depth_discrimination_MTurk/DepthDiscrim_HTML.html#2,2,1349,768,1366,768,6-19-2021,15-9-19,156,,,,,,,1766,502,249,501,249,500,feet,4,5,depth_discrimination_stimuli/001449_2014-06-19_17-01-27_260595134347_rgbf000116-resize_2/001449_2014-06-19_17-01-27_260595134347_rgbf000116-resize-original.jpg,5434,1776244,2111731,39
260059,DepthScenes,duration_discrimination,discrim_jsons/d0_rotated_dr.json,http://54.173.234.186/DepthDuration/depth_discrimination_MTurk/DepthDiscrim_HTML.html#2,2,1349,768,1366,768,6-19-2021,15-9-19,157,,,,,,,1766,502,249,501,249,500,feet,4,4,depth_discrimination_stimuli/001571_2014-06-20_17-21-32_260595134347_rgbf000089-resize_1/001571_2014-06-20_17-21-32_260595134347_rgbf000089-resize-original.jpg,4139,1776244,2111731,39
260059,DepthScenes,duration_discrimination,discrim_jsons/d0_rotated_dr.json,http://54.173.234.186/DepthDuration/depth_discrimination_MTurk/DepthDiscrim_HTML.html#2,2,1349,768,1366,768,6-19-2021,15-9-19,158,,,,,,,1766,502,249,501,249,500,feet,5,4,depth_discrimination_stimuli/002414_2014-06-28_20-24-58_260595134347_rgbf000067-resize_4/002414_2014-06-28_20-24-58_260595134347_rgbf000067-resize-original.jpg,5479,1776244,2111731,39
260059,DepthScenes,duration_discrimination,discrim_jsons/d0_rotated_dr.json,http://54.173.234.186/DepthDuration/depth_discrimination_MTurk/DepthDiscrim_HTML.html#2,2,1349,768,1366,768,6-19-2021,15-9-19,159,,,,,,,1766,502,249,501,249,500,feet,4,5,depth_discrimination_stimuli/002057_2014-06-24_21-00-13_260595134347_rgbf000120-resize_1/002057_2014-06-24_21-00-13_260595134347_rgbf000120-resize-original.jpg,4847,1776244,2111731,39
260059,DepthScenes,duration_discrimination,discrim_jsons/d0_rotated_dr.json,http://54.173.234.186/DepthDuration/depth_discrimination_MTurk/DepthDiscrim_HTML.html#2,2,1349,768,1366,768,6-19-2021,15-9-19,160,,,,,,,1766,502,249,501,249,500,feet,4,5,depth_discrimination_stimuli/001650_2014-06-20_12-09-00_260595134347_rgbf000087-resize_3/001650_2014-06-20_12-09-00_260595134347_rgbf000087-resize-original.jpg,3832,1776244,2111731,39
260059,DepthScenes,duration_discrimination,discrim_jsons/d0_rotated_dr.json,http://54.173.234.186/DepthDuration/depth_discrimination_MTurk/DepthDiscrim_HTML.html#2,2,1349,768,1366,768,6-19-2021,15-9-19,161,,,,,,,1766,502,249,501,249,500,feet,4,4,depth_discrimination_stimuli/002305_2014-06-28_19-56-50_260595134347_rgbf000102-resize_7/002305_2014-06-28_19-56-50_260595134347_rgbf000102-resize-original.jpg,3480,1776244,2111731,39
260059,DepthScenes,duration_discrimination,discrim_jsons/d0_rotated_dr.json,http://54.173.234.186/DepthDuration/depth_discrimination_MTurk/DepthDiscrim_HTML.html#2,2,1349,768,1366,768,6-19-2021,15-9-19,162,,,,,,,1766,502,249,501,249,500,feet,3,3,depth_discrimination_stimuli/003495_2014-05-21_16-01-51_094959634447_rgbf000100-resize_3/003495_2014-05-21_16-01-51_094959634447_rgbf000100-resize-original.jpg,2960,1776244,2111731,39
260059,DepthScenes,duration_discrimination,discrim_jsons/d0_rotated_dr.json,http://54.173.234.186/DepthDuration/depth_discrimination_MTurk/DepthDiscrim_HTML.html#2,2,1349,768,1366,768,6-19-2021,15-9-19,163,,,,,,,1766,502,249,501,249,500,feet,4,3,depth_discrimination_stimuli/003129_2014-05-12_10-48-10_094959634447_rgbf000100-resize_0/003129_2014-05-12_10-48-10_094959634447_rgbf000100-resize-original.jpg,3280,1776244,2111731,39
260059,DepthScenes,duration_discrimination,discrim_jsons/d0_rotated_dr.json,http://54.173.234.186/DepthDuration/depth_discrimination_MTurk/DepthDiscrim_HTML.html#2,2,1349,768,1366,768,6-19-2021,15-9-19,164,,,,,,,1766,502,249,501,249,500,feet,4,5,depth_discrimination_stimuli/002545_2014-06-24_13-38-53_094959634447_rgbf000080-resize_4/002545_2014-06-24_13-38-53_094959634447_rgbf000080-resize-original.jpg,5460,1776244,2111731,39
260059,DepthScenes,duration_discrimination,discrim_jsons/d0_rotated_dr.json,http://54.173.234.186/DepthDuration/depth_discrimination_MTurk/DepthDiscrim_HTML.html#2,2,1349,768,1366,768,6-19-2021,15-9-19,165,,,,,,,1766,502,249,501,249,500,feet,3,4,depth_discrimination_stimuli/000691_2014-06-08_13-08-50_260595134347_rgbf000132-resize_3/000691_2014-06-08_13-08-50_260595134347_rgbf000132-resize-original.jpg,4079,1776244,2111731,39
260059,DepthScenes,duration_discrimination,discrim_jsons/d0_rotated_dr.json,http://54.173.234.186/DepthDuration/depth_discrimination_MTurk/DepthDiscrim_HTML.html#2,2,1349,768,1366,768,6-19-2021,15-9-19,166,,,,,,,1766,502,249,501,249,500,feet,5,3,depth_discrimination_stimuli/001244_2014-06-17_16-47-45_260595134347_rgbf000030-resize_4/001244_2014-06-17_16-47-45_260595134347_rgbf000030-resize-original.jpg,4159,1776244,2111731,39
260059,DepthScenes,duration_discrimination,discrim_jsons/d0_rotated_dr.json,http://54.173.234.186/DepthDuration/depth_discrimination_MTurk/DepthDiscrim_HTML.html#2,2,1349,768,1366,768,6-19-2021,15-9-19,167,,,,,,,1766,502,249,501,249,500,feet,4,5,depth_discrimination_stimuli/000773_2014-06-08_22-24-54_260595134347_rgbf000093-resize_1/000773_2014-06-08_22-24-54_260595134347_rgbf000093-resize-original.jpg,5202,1776244,2111731,39
260059,DepthScenes,duration_discrimination,discrim_jsons/d0_rotated_dr.json,http://54.173.234.186/DepthDuration/depth_discrimination_MTurk/DepthDiscrim_HTML.html#2,2,1349,768,1366,768,6-19-2021,15-9-19,168,,,,,,,1766,502,249,501,249,500,feet,3,4,depth_discrimination_stimuli/002875_2014-06-01_15-19-00_094959634447_rgbf000151-resize_1/002875_2014-06-01_15-19-00_094959634447_rgbf000151-resize-original.jpg,4395,1776244,2111731,39
260059,DepthScenes,duration_discrimination,discrim_jsons/d0_rotated_dr.json,http://54.173.234.186/DepthDuration/depth_discrimination_MTurk/DepthDiscrim_HTML.html#2,2,1349,768,1366,768,6-19-2021,15-9-19,169,,,,,,,1766,502,249,501,249,500,feet,5,3,depth_discrimination_stimuli/000635_2014-06-08_16-38-42_260595134347_rgbf000106-resize_1/000635_2014-06-08_16-38-42_260595134347_rgbf000106-resize-original.jpg,3566,1776244,2111731,39
260059,DepthScenes,duration_discrimination,discrim_jsons/d0_rotated_dr.json,http://54.173.234.186/DepthDuration/depth_discrimination_MTurk/DepthDiscrim_HTML.html#2,2,1349,768,1366,768,6-19-2021,15-9-19,170,,,,,,,1766,502,249,501,249,500,feet,4,5,depth_discrimination_stimuli/000866_2014-06-09_20-45-42_260595134347_rgbf000139-resize_1/000866_2014-06-09_20-45-42_260595134347_rgbf000139-resize-original.jpg,4151,1776244,2111731,39
260059,DepthScenes,duration_discrimination,discrim_jsons/d0_rotated_dr.json,http://54.173.234.186/DepthDuration/depth_discrimination_MTurk/DepthDiscrim_HTML.html#2,2,1349,768,1366,768,6-19-2021,15-9-19,171,,,,,,,1766,502,249,501,249,500,feet,4,5,depth_discrimination_stimuli/000414_2014-06-04_19-49-13_260595134347_rgbf000044-resize_0/000414_2014-06-04_19-49-13_260595134347_rgbf000044-resize-original.jpg,73822,1776244,2111731,39
260059,DepthScenes,duration_discrimination,discrim_jsons/d0_rotated_dr.json,http://54.173.234.186/DepthDuration/depth_discrimination_MTurk/DepthDiscrim_HTML.html#2,2,1349,768,1366,768,6-19-2021,15-9-19,172,,,,,,,1766,502,249,501,249,500,feet,4,4,depth_discrimination_stimuli/000677_2014-06-08_23-10-32_260595134347_rgbf000158-resize_6/000677_2014-06-08_23-10-32_260595134347_rgbf000158-resize-original.jpg,3797,1776244,2111731,39
260059,DepthScenes,duration_discrimination,discrim_jsons/d0_rotated_dr.json,http://54.173.234.186/DepthDuration/depth_discrimination_MTurk/DepthDiscrim_HTML.html#2,2,1349,768,1366,768,6-19-2021,15-9-19,173,,,,,,,1766,502,249,501,249,500,feet,5,4,depth_discrimination_stimuli/000943_2014-06-09_19-31-07_260595134347_rgbf000128-resize_1/000943_2014-06-09_19-31-07_260595134347_rgbf000128-resize-original.jpg,3861,1776244,2111731,39
260059,DepthScenes,duration_discrimination,discrim_jsons/d0_rotated_dr.json,http://54.173.234.186/DepthDuration/depth_discrimination_MTurk/DepthDiscrim_HTML.html#2,2,1349,768,1366,768,6-19-2021,15-9-19,174,,,,,,,1766,502,249,501,249,500,feet,4,3,depth_discrimination_stimuli/002579_2014-06-24_14-08-03_094959634447_rgbf000061-resize_2/002579_2014-06-24_14-08-03_094959634447_rgbf000061-resize-original.jpg,5519,1776244,2111731,39
260059,DepthScenes,duration_discrimination,discrim_jsons/d0_rotated_dr.json,http://54.173.234.186/DepthDuration/depth_discrimination_MTurk/DepthDiscrim_HTML.html#2,2,1349,768,1366,768,6-19-2021,15-9-19,175,,,,,,,1766,502,249,501,249,500,feet,5,4,depth_discrimination_stimuli/000191_2014-05-12_17-07-38_260595134347_rgbf000199-resize_0/000191_2014-05-12_17-07-38_260595134347_rgbf000199-resize-original.jpg,3517,1776244,2111731,39
260059,DepthScenes,duration_discrimination,discrim_jsons/d0_rotated_dr.json,http://54.173.234.186/DepthDuration/depth_discrimination_MTurk/DepthDiscrim_HTML.html#2,2,1349,768,1366,768,6-19-2021,15-9-19,176,,,,,,,1766,502,249,501,249,500,feet,4,5,depth_discrimination_stimuli/000734_2014-06-08_17-39-11_260595134347_rgbf000128-resize_2/000734_2014-06-08_17-39-11_260595134347_rgbf000128-resize-original.jpg,2797,1776244,2111731,39
260059,DepthScenes,duration_discrimination,discrim_jsons/d0_rotated_dr.json,http://54.173.234.186/DepthDuration/depth_discrimination_MTurk/DepthDiscrim_HTML.html#2,2,1349,768,1366,768,6-19-2021,15-9-19,177,,,,,,,1766,502,249,501,249,500,feet,5,3,depth_discrimination_stimuli/001100_2014-06-15_17-46-26_260595134347_rgbf000225-resize_2/001100_2014-06-15_17-46-26_260595134347_rgbf000225-resize-original.jpg,2420,1776244,2111731,39
260059,DepthScenes,duration_discrimination,discrim_jsons/d0_rotated_dr.json,http://54.173.234.186/DepthDuration/depth_discrimination_MTurk/DepthDiscrim_HTML.html#2,2,1349,768,1366,768,6-19-2021,15-9-19,178,,,,,,,1766,502,249,501,249,500,feet,4,4,depth_discrimination_stimuli/000735_2014-06-08_18-23-50_260595134347_rgbf000163-resize_2/000735_2014-06-08_18-23-50_260595134347_rgbf000163-resize-original.jpg,3637,1776244,2111731,39
260059,DepthScenes,duration_discrimination,discrim_jsons/d0_rotated_dr.json,http://54.173.234.186/DepthDuration/depth_discrimination_MTurk/DepthDiscrim_HTML.html#2,2,1349,768,1366,768,6-19-2021,15-9-19,179,,,,,,,1766,502,249,501,249,500,feet,5,5,depth_discrimination_stimuli/000368_2014-06-09_15-53-01_260595134347_rgbf000155-resize_2/000368_2014-06-09_15-53-01_260595134347_rgbf000155-resize-original.jpg,3303,1776244,2111731,39
260059,DepthScenes,duration_discrimination,discrim_jsons/d0_rotated_dr.json,http://54.173.234.186/DepthDuration/depth_discrimination_MTurk/DepthDiscrim_HTML.html#2,2,1349,768,1366,768,6-19-2021,15-9-19,180,,,,,,,1766,502,249,501,249,500,feet,4,3,scene_property_catch_stimuli/sun_aoquhiddlfqapdlz.jpg,7179,1776244,2111731,39
260059,DepthScenes,duration_discrimination,discrim_jsons/d0_rotated_dr.json,http://54.173.234.186/DepthDuration/depth_discrimination_MTurk/DepthDiscrim_HTML.html#2,2,1349,768,1366,768,6-19-2021,15-9-19,181,,,,,,,1766,502,249,501,249,500,feet,4,3,depth_discrimination_stimuli/000457_2014-06-08_16-52-43_260595134347_rgbf000199-resize_1/000457_2014-06-08_16-52-43_260595134347_rgbf000199-resize-original.jpg,6120,1776244,2111731,39
260059,DepthScenes,duration_discrimination,discrim_jsons/d0_rotated_dr.json,http://54.173.234.186/DepthDuration/depth_discrimination_MTurk/DepthDiscrim_HTML.html#2,2,1349,768,1366,768,6-19-2021,15-9-19,182,,,,,,,1766,502,249,501,249,500,feet,4,4,depth_discrimination_stimuli/000917_2014-06-09_22-45-29_260595134347_rgbf000149-resize_3/000917_2014-06-09_22-45-29_260595134347_rgbf000149-resize-original.jpg,4765,1776244,2111731,39
260059,DepthScenes,duration_discrimination,discrim_jsons/d0_rotated_dr.json,http://54.173.234.186/DepthDuration/depth_discrimination_MTurk/DepthDiscrim_HTML.html#2,2,1349,768,1366,768,6-19-2021,15-9-19,183,,,,,,,1766,502,249,501,249,500,feet,4,5,depth_discrimination_stimuli/001584_2014-06-20_11-07-43_260595134347_rgbf000002-resize_1/001584_2014-06-20_11-07-43_260595134347_rgbf000002-resize-original.jpg,3776,1776244,2111731,39
260059,DepthScenes,duration_discrimination,discrim_jsons/d0_rotated_dr.json,http://54.173.234.186/DepthDuration/depth_discrimination_MTurk/DepthDiscrim_HTML.html#2,2,1349,768,1366,768,6-19-2021,15-9-19,184,,,,,,,1766,502,249,501,249,500,feet,4,5,depth_discrimination_stimuli/002209_2014-06-28_18-36-10_260595134347_rgbf000051-resize_1/002209_2014-06-28_18-36-10_260595134347_rgbf000051-resize-original.jpg,7248,1776244,2111731,39
260059,DepthScenes,duration_discrimination,discrim_jsons/d0_rotated_dr.json,http://54.173.234.186/DepthDuration/depth_discrimination_MTurk/DepthDiscrim_HTML.html#2,2,1349,768,1366,768,6-19-2021,15-9-19,185,,,,,,,1766,502,249,501,249,500,feet,4,5,depth_discrimination_stimuli/002995_2014-06-15_12-31-26_094959634447_rgbf000150-resize_1/002995_2014-06-15_12-31-26_094959634447_rgbf000150-resize-original.jpg,4633,1776244,2111731,39
260059,DepthScenes,duration_discrimination,discrim_jsons/d0_rotated_dr.json,http://54.173.234.186/DepthDuration/depth_discrimination_MTurk/DepthDiscrim_HTML.html#2,2,1349,768,1366,768,6-19-2021,15-9-19,186,,,,,,,1766,502,249,501,249,500,feet,4,5,depth_discrimination_stimuli/003228_2014-05-14_13-42-35_094959634447_rgbf000101-resize_1/003228_2014-05-14_13-42-35_094959634447_rgbf000101-resize-original.jpg,4318,1776244,2111731,39
260059,DepthScenes,duration_discrimination,discrim_jsons/d0_rotated_dr.json,http://54.173.234.186/DepthDuration/depth_discrimination_MTurk/DepthDiscrim_HTML.html#2,2,1349,768,1366,768,6-19-2021,15-9-19,187,,,,,,,1766,502,249,501,249,500,feet,4,3,depth_discrimination_stimuli/002460_2014-06-28_20-35-43_260595134347_rgbf000028-resize_4/002460_2014-06-28_20-35-43_260595134347_rgbf000028-resize-original.jpg,8027,1776244,2111731,39
260059,DepthScenes,duration_discrimination,discrim_jsons/d0_rotated_dr.json,http://54.173.234.186/DepthDuration/depth_discrimination_MTurk/DepthDiscrim_HTML.html#2,2,1349,768,1366,768,6-19-2021,15-9-19,188,,,,,,,1766,502,249,501,249,500,feet,4,4,depth_discrimination_stimuli/000447_2014-06-08_16-15-46_260595134347_rgbf000130-resize_1/000447_2014-06-08_16-15-46_260595134347_rgbf000130-resize-original.jpg,5271,1776244,2111731,39
260059,DepthScenes,duration_discrimination,discrim_jsons/d0_rotated_dr.json,http://54.173.234.186/DepthDuration/depth_discrimination_MTurk/DepthDiscrim_HTML.html#2,2,1349,768,1366,768,6-19-2021,15-9-19,189,,,,,,,1766,502,249,501,249,500,feet,4,4,depth_discrimination_stimuli/001417_2014-06-19_16-25-36_260595134347_rgbf000115-resize_5/001417_2014-06-19_16-25-36_260595134347_rgbf000115-resize-original.jpg,86760,1776244,2111731,39
260059,DepthScenes,duration_discrimination,discrim_jsons/d0_rotated_dr.json,http://54.173.234.186/DepthDuration/depth_discrimination_MTurk/DepthDiscrim_HTML.html#2,2,1349,768,1366,768,6-19-2021,15-9-19,190,,,,,,,1766,502,249,501,249,500,feet,5,4,depth_discrimination_stimuli/000555_2014-06-09_22-42-23_260595134347_rgbf000037-resize_4/000555_2014-06-09_22-42-23_260595134347_rgbf000037-resize-original.jpg,17128,1776244,2111731,39
260059,DepthScenes,duration_discrimination,discrim_jsons/d0_rotated_dr.json,http://54.173.234.186/DepthDuration/depth_discrimination_MTurk/DepthDiscrim_HTML.html#2,2,1349,768,1366,768,6-19-2021,15-9-19,191,,,,,,,1766,502,249,501,249,500,feet,4,4,depth_discrimination_stimuli/000470_2014-06-09_19-42-40_260595134347_rgbf000094-resize_1/000470_2014-06-09_19-42-40_260595134347_rgbf000094-resize-original.jpg,7448,1776244,2111731,39
260059,DepthScenes,duration_discrimination,discrim_jsons/d0_rotated_dr.json,http://54.173.234.186/DepthDuration/depth_discrimination_MTurk/DepthDiscrim_HTML.html#2,2,1349,768,1366,768,6-19-2021,15-9-19,192,,,,,,,1766,502,249,501,249,500,feet,5,4,depth_discrimination_stimuli/003010_2014-06-15_12-54-35_094959634447_rgbf000112-resize_0/003010_2014-06-15_12-54-35_094959634447_rgbf000112-resize-original.jpg,5946,1776244,2111731,39
260059,DepthScenes,duration_discrimination,discrim_jsons/d0_rotated_dr.json,http://54.173.234.186/DepthDuration/depth_discrimination_MTurk/DepthDiscrim_HTML.html#2,2,1349,768,1366,768,6-19-2021,15-9-19,193,,,,,,,1766,502,249,501,249,500,feet,4,4,depth_discrimination_stimuli/000742_2014-06-08_18-48-09_260595134347_rgbf000164-resize_4/000742_2014-06-08_18-48-09_260595134347_rgbf000164-resize-original.jpg,7778,1776244,2111731,39
260059,DepthScenes,duration_discrimination,discrim_jsons/d0_rotated_dr.json,http://54.173.234.186/DepthDuration/depth_discrimination_MTurk/DepthDiscrim_HTML.html#2,2,1349,768,1366,768,6-19-2021,15-9-19,194,,,,,,,1766,502,249,501,249,500,feet,4,4,depth_discrimination_stimuli/000878_2014-06-08_22-52-45_260595134347_rgbf000045-resize_2/000878_2014-06-08_22-52-45_260595134347_rgbf000045-resize-original.jpg,11887,1776244,2111731,39
