subjID,experimentName,versionName,sequenceName,url,selected_row,windowWidth,windowHeight,screenWidth,screenHeight,startDate,startTime,trial,stimulus_0,stimulus_1,duration,actual_depth_0,actual_depth_1,discrim_choice,trial_RT,log_fixation,log_sceneDuration1,log_mask1,log_sceneDuration2,log_mask2,unitSelection,meanDepth_rating,navigability_rating,rated_stimulus,rating_RT,experimentTime,totalTime,age
127869,DepthScenes,duration_discrimination,discrim_jsons/d0_rotated_dr.json,http://54.197.185.130/DepthDuration/depth_discrimination_MTurk/DepthDiscrim_HTML.html#2,2,1366,625,1366,768,6-9-2021,10-2-29,1,depth_discrimination_stimuli/002103_2014-06-25_20-00-40_260595134347_rgbf000049-resize_0/002103_2014-06-25_20-00-40_260595134347_rgbf000049-resize_0-target.png,depth_discrimination_stimuli/000692_2014-06-08_13-09-42_260595134347_rgbf000199-resize_2/000692_2014-06-08_13-09-42_260595134347_rgbf000199-resize_2-target.png,1000,4.105,3.661,0,1755,504,1023,837,650,488,meters,,,,,508527,612816,30
127869,DepthScenes,duration_discrimination,discrim_jsons/d0_rotated_dr.json,http://54.197.185.130/DepthDuration/depth_discrimination_MTurk/DepthDiscrim_HTML.html#2,2,1366,625,1366,768,6-9-2021,10-2-29,2,depth_discrimination_stimuli/002468_2014-06-28_20-38-39_260595134347_rgbf000045-resize_1/002468_2014-06-28_20-38-39_260595134347_rgbf000045-resize_1-target.png,depth_discrimination_stimuli/002579_2014-06-24_14-08-03_094959634447_rgbf000061-resize_2/002579_2014-06-24_14-08-03_094959634447_rgbf000061-resize_2-target.png,1000,1.956,2.223125,1,2445,502,1001,509,990,506,meters,,,,,508527,612816,30
127869,DepthScenes,duration_discrimination,discrim_jsons/d0_rotated_dr.json,http://54.197.185.130/DepthDuration/depth_discrimination_MTurk/DepthDiscrim_HTML.html#2,2,1366,625,1366,768,6-9-2021,10-2-29,3,depth_discrimination_stimuli/002039_2014-06-24_20-22-38_260595134347_rgbf000084-resize_1/002039_2014-06-24_20-22-38_260595134347_rgbf000084-resize_1-target.png,depth_discrimination_stimuli/001450_2014-06-19_17-02-03_260595134347_rgbf000203-resize_4/001450_2014-06-19_17-02-03_260595134347_rgbf000203-resize_4-target.png,1000,4.408,4.0106666666667,0,2139,509,992,501,1027,473,meters,,,,,508527,612816,30
127869,DepthScenes,duration_discrimination,discrim_jsons/d0_rotated_dr.json,http://54.197.185.130/DepthDuration/depth_discrimination_MTurk/DepthDiscrim_HTML.html#2,2,1366,625,1366,768,6-9-2021,10-2-29,4,depth_discrimination_stimuli/000943_2014-06-09_19-31-07_260595134347_rgbf000128-resize_1/000943_2014-06-09_19-31-07_260595134347_rgbf000128-resize_1-target.png,depth_discrimination_stimuli/001555_2014-06-20_17-12-10_260595134347_rgbf000065-resize_4/001555_2014-06-20_17-12-10_260595134347_rgbf000065-resize_4-target.png,250,1.9765,1.633,1,827,655,106,498,256,489,meters,,,,,508527,612816,30
127869,DepthScenes,duration_discrimination,discrim_jsons/d0_rotated_dr.json,http://54.197.185.130/DepthDuration/depth_discrimination_MTurk/DepthDiscrim_HTML.html#2,2,1366,625,1366,768,6-9-2021,10-2-29,5,depth_discrimination_stimuli/000709_2014-06-08_13-51-55_260595134347_rgbf000068-resize_3/000709_2014-06-08_13-51-55_260595134347_rgbf000068-resize_3-target.png,depth_discrimination_stimuli/003587_2014-05-23_16-48-02_094959634447_rgbf002384-resize_2/003587_2014-05-23_16-48-02_094959634447_rgbf002384-resize_2-target.png,1000,1.803,1.357,1,1730,501,1014,486,1009,491,meters,,,,,508527,612816,30
127869,DepthScenes,duration_discrimination,discrim_jsons/d0_rotated_dr.json,http://54.197.185.130/DepthDuration/depth_discrimination_MTurk/DepthDiscrim_HTML.html#2,2,1366,625,1366,768,6-9-2021,10-2-29,6,depth_discrimination_stimuli/002136_2014-06-25_21-18-03_260595134347_rgbf000109-resize_3/002136_2014-06-25_21-18-03_260595134347_rgbf000109-resize_3-target.png,depth_discrimination_stimuli/000469_2014-06-09_19-42-10_260595134347_rgbf000081-resize_1/000469_2014-06-09_19-42-10_260595134347_rgbf000081-resize_1-target.png,1000,1.957,1.652,0,1982,502,1009,491,1016,485,meters,,,,,508527,612816,30
127869,DepthScenes,duration_discrimination,discrim_jsons/d0_rotated_dr.json,http://54.197.185.130/DepthDuration/depth_discrimination_MTurk/DepthDiscrim_HTML.html#2,2,1366,625,1366,768,6-9-2021,10-2-29,7,depth_discrimination_stimuli/002344_2014-06-28_20-06-29_260595134347_rgbf000030-resize_1/002344_2014-06-28_20-06-29_260595134347_rgbf000030-resize_1-target.png,depth_discrimination_stimuli/002509_2014-06-24_13-19-22_094959634447_rgbf000077-resize_0/002509_2014-06-24_13-19-22_094959634447_rgbf000077-resize_0-target.png,1000,1.5795,1.3065,0,1528,508,1008,485,1007,494,meters,,,,,508527,612816,30
127869,DepthScenes,duration_discrimination,discrim_jsons/d0_rotated_dr.json,http://54.197.185.130/DepthDuration/depth_discrimination_MTurk/DepthDiscrim_HTML.html#2,2,1366,625,1366,768,6-9-2021,10-2-29,8,depth_discrimination_stimuli/002464_2014-06-28_20-36-57_260595134347_rgbf000029-resize_0/002464_2014-06-28_20-36-57_260595134347_rgbf000029-resize_0-target.png,depth_discrimination_stimuli/000409_2014-06-04_19-23-33_260595134347_rgbf000067-resize_0/000409_2014-06-04_19-23-33_260595134347_rgbf000067-resize_0-target.png,250,3.9525,3.7335,0,892,512,240,500,250,504,meters,,,,,508527,612816,30
127869,DepthScenes,duration_discrimination,discrim_jsons/d0_rotated_dr.json,http://54.197.185.130/DepthDuration/depth_discrimination_MTurk/DepthDiscrim_HTML.html#2,2,1366,625,1366,768,6-9-2021,10-2-29,9,depth_discrimination_stimuli/003048_2014-06-15_13-49-43_094959634447_rgbf000150-resize_1/003048_2014-06-15_13-49-43_094959634447_rgbf000150-resize_1-target.png,depth_discrimination_stimuli/002444_2014-06-28_20-32-08_260595134347_rgbf000027-resize_0/002444_2014-06-28_20-32-08_260595134347_rgbf000027-resize_0-target.png,250,4.0035,4.389,1,1177,500,251,500,251,499,meters,,,,,508527,612816,30
127869,DepthScenes,duration_discrimination,discrim_jsons/d0_rotated_dr.json,http://54.197.185.130/DepthDuration/depth_discrimination_MTurk/DepthDiscrim_HTML.html#2,2,1366,625,1366,768,6-9-2021,10-2-29,10,depth_discrimination_stimuli/002630_2014-06-24_14-47-50_094959634447_rgbf000055-resize_1/002630_2014-06-24_14-47-50_094959634447_rgbf000055-resize_1-target.png,depth_discrimination_stimuli/001449_2014-06-19_17-01-27_260595134347_rgbf000116-resize_2/001449_2014-06-19_17-01-27_260595134347_rgbf000116-resize_2-target.png,1000,3.0095,3.452,0,1806,501,1006,495,1002,498,meters,,,,,508527,612816,30
127869,DepthScenes,duration_discrimination,discrim_jsons/d0_rotated_dr.json,http://54.197.185.130/DepthDuration/depth_discrimination_MTurk/DepthDiscrim_HTML.html#2,2,1366,625,1366,768,6-9-2021,10-2-29,11,depth_discrimination_stimuli/002131_2014-06-25_21-12-01_260595134347_rgbf000083-resize_0/002131_2014-06-25_21-12-01_260595134347_rgbf000083-resize_0-target.png,depth_discrimination_stimuli/001100_2014-06-15_17-46-26_260595134347_rgbf000225-resize_2/001100_2014-06-15_17-46-26_260595134347_rgbf000225-resize_2-target.png,250,1.7685,2.24,0,1209,504,248,516,240,497,meters,,,,,508527,612816,30
127869,DepthScenes,duration_discrimination,discrim_jsons/d0_rotated_dr.json,http://54.197.185.130/DepthDuration/depth_discrimination_MTurk/DepthDiscrim_HTML.html#2,2,1366,625,1366,768,6-9-2021,10-2-29,12,depth_discrimination_stimuli/002949_2014-06-26_15-57-42_094959634447_rgbf000079-resize_1/002949_2014-06-26_15-57-42_094959634447_rgbf000079-resize_1-target.png,depth_discrimination_stimuli/002279_2014-06-28_18-55-32_260595134347_rgbf000040-resize_5/002279_2014-06-28_18-55-32_260595134347_rgbf000040-resize_5-target.png,250,1.8915,1.5043333333333,0,1087,501,251,499,260,492,meters,,,,,508527,612816,30
127869,DepthScenes,duration_discrimination,discrim_jsons/d0_rotated_dr.json,http://54.197.185.130/DepthDuration/depth_discrimination_MTurk/DepthDiscrim_HTML.html#2,2,1366,625,1366,768,6-9-2021,10-2-29,13,depth_discrimination_stimuli/001516_2014-06-20_16-25-09_260595134347_rgbf000076-resize_2/001516_2014-06-20_16-25-09_260595134347_rgbf000076-resize_2-target.png,depth_discrimination_stimuli/000635_2014-06-08_16-38-42_260595134347_rgbf000106-resize_1/000635_2014-06-08_16-38-42_260595134347_rgbf000106-resize_1-target.png,250,1.7445,2.074,0,1226,501,281,509,224,487,meters,,,,,508527,612816,30
127869,DepthScenes,duration_discrimination,discrim_jsons/d0_rotated_dr.json,http://54.197.185.130/DepthDuration/depth_discrimination_MTurk/DepthDiscrim_HTML.html#2,2,1366,625,1366,768,6-9-2021,10-2-29,14,depth_discrimination_stimuli/001148_2014-06-17_15-26-42_260595134347_rgbf000129-resize_0/001148_2014-06-17_15-26-42_260595134347_rgbf000129-resize_0-target.png,depth_discrimination_stimuli/000734_2014-06-08_17-39-11_260595134347_rgbf000128-resize_2/000734_2014-06-08_17-39-11_260595134347_rgbf000128-resize_2-target.png,1000,4.368,4.098,0,2101,501,1129,373,1002,496,meters,,,,,508527,612816,30
127869,DepthScenes,duration_discrimination,discrim_jsons/d0_rotated_dr.json,http://54.197.185.130/DepthDuration/depth_discrimination_MTurk/DepthDiscrim_HTML.html#2,2,1366,625,1366,768,6-9-2021,10-2-29,15,depth_discrimination_stimuli/002043_2014-06-24_20-29-38_260595134347_rgbf000039-resize_4/002043_2014-06-24_20-29-38_260595134347_rgbf000039-resize_4-target.png,depth_discrimination_stimuli/002445_2014-06-28_20-32-16_260595134347_rgbf000029-resize_4/002445_2014-06-28_20-32-16_260595134347_rgbf000029-resize_4-target.png,1000,2.8435,2.5315,0,1841,501,1032,469,999,502,meters,,,,,508527,612816,30
127869,DepthScenes,duration_discrimination,discrim_jsons/d0_rotated_dr.json,http://54.197.185.130/DepthDuration/depth_discrimination_MTurk/DepthDiscrim_HTML.html#2,2,1366,625,1366,768,6-9-2021,10-2-29,16,depth_discrimination_stimuli/000454_2014-06-08_16-37-28_260595134347_rgbf000048-resize_2/000454_2014-06-08_16-37-28_260595134347_rgbf000048-resize_2-target.png,depth_discrimination_stimuli/000375_2014-06-08_11-17-29_260595134347_rgbf000133-resize_2/000375_2014-06-08_11-17-29_260595134347_rgbf000133-resize_2-target.png,1000,1.213,4.718,1,1945,501,1001,499,1004,497,meters,,,,,508527,612816,30
127869,DepthScenes,duration_discrimination,discrim_jsons/d0_rotated_dr.json,http://54.197.185.130/DepthDuration/depth_discrimination_MTurk/DepthDiscrim_HTML.html#2,2,1366,625,1366,768,6-9-2021,10-2-29,17,depth_discrimination_stimuli/003395_2014-05-20_15-39-18_094959634447_rgbf000101-resize_0/003395_2014-05-20_15-39-18_094959634447_rgbf000101-resize_0-target.png,depth_discrimination_stimuli/001540_2014-06-20_17-01-05_260595134347_rgbf000086-resize_2/001540_2014-06-20_17-01-05_260595134347_rgbf000086-resize_2-target.png,250,4.835,1.459,0,556,502,283,798,26,393,meters,,,,,508527,612816,30
127869,DepthScenes,duration_discrimination,discrim_jsons/d0_rotated_dr.json,http://54.197.185.130/DepthDuration/depth_discrimination_MTurk/DepthDiscrim_HTML.html#2,2,1366,625,1366,768,6-9-2021,10-2-29,18,depth_discrimination_stimuli/003621_2014-05-23_18-06-08_094959634447_rgbf000101-resize_1/003621_2014-05-23_18-06-08_094959634447_rgbf000101-resize_1-target.png,depth_discrimination_stimuli/001808_2014-06-26_20-50-58_260595134347_rgbf000029-resize_1/001808_2014-06-26_20-50-58_260595134347_rgbf000029-resize_1-target.png,1000,3.9835,4.249,1,1779,503,1001,497,999,501,meters,,,,,508527,612816,30
127869,DepthScenes,duration_discrimination,discrim_jsons/d0_rotated_dr.json,http://54.197.185.130/DepthDuration/depth_discrimination_MTurk/DepthDiscrim_HTML.html#2,2,1366,625,1366,768,6-9-2021,10-2-29,19,depth_discrimination_stimuli/001806_2014-06-26_20-50-20_260595134347_rgbf000091-resize_1/001806_2014-06-26_20-50-20_260595134347_rgbf000091-resize_1-target.png,depth_discrimination_stimuli/002460_2014-06-28_20-35-43_260595134347_rgbf000028-resize_4/002460_2014-06-28_20-35-43_260595134347_rgbf000028-resize_4-target.png,250,2.7305,2.269,0,1546,506,245,507,243,501,meters,,,,,508527,612816,30
127869,DepthScenes,duration_discrimination,discrim_jsons/d0_rotated_dr.json,http://54.197.185.130/DepthDuration/depth_discrimination_MTurk/DepthDiscrim_HTML.html#2,2,1366,625,1366,768,6-9-2021,10-2-29,20,depth_discrimination_stimuli/001132_2014-06-17_14-48-54_260595134347_rgbf000100-resize_2/001132_2014-06-17_14-48-54_260595134347_rgbf000100-resize_2-target.png,depth_discrimination_stimuli/002639_2014-06-24_14-51-37_094959634447_rgbf000074-resize_4/002639_2014-06-24_14-51-37_094959634447_rgbf000074-resize_4-target.png,250,3.753,4.0375,0,945,562,190,501,249,508,meters,,,,,508527,612816,30
127869,DepthScenes,duration_discrimination,discrim_jsons/d0_rotated_dr.json,http://54.197.185.130/DepthDuration/depth_discrimination_MTurk/DepthDiscrim_HTML.html#2,2,1366,625,1366,768,6-9-2021,10-2-29,21,depth_discrimination_stimuli/001532_2014-06-20_16-50-41_260595134347_rgbf000081-resize_4/001532_2014-06-20_16-50-41_260595134347_rgbf000081-resize_4-target.png,depth_discrimination_stimuli/002784_2014-06-22_19-26-30_094959634447_rgbf000083-resize_3/002784_2014-06-22_19-26-30_094959634447_rgbf000083-resize_3-target.png,250,1.5758333333333,1.8046666666667,0,963,501,259,498,247,497,meters,,,,,508527,612816,30
127869,DepthScenes,duration_discrimination,discrim_jsons/d0_rotated_dr.json,http://54.197.185.130/DepthDuration/depth_discrimination_MTurk/DepthDiscrim_HTML.html#2,2,1366,625,1366,768,6-9-2021,10-2-29,22,depth_discrimination_stimuli/002545_2014-06-24_13-38-53_094959634447_rgbf000080-resize_4/002545_2014-06-24_13-38-53_094959634447_rgbf000080-resize_4-target.png,depth_discrimination_stimuli/002549_2014-06-24_13-41-39_094959634447_rgbf000022-resize_3/002549_2014-06-24_13-41-39_094959634447_rgbf000022-resize_3-target.png,1000,1.9205,1.476,1,1542,500,1007,503,993,504,meters,,,,,508527,612816,30
127869,DepthScenes,duration_discrimination,discrim_jsons/d0_rotated_dr.json,http://54.197.185.130/DepthDuration/depth_discrimination_MTurk/DepthDiscrim_HTML.html#2,2,1366,625,1366,768,6-9-2021,10-2-29,23,depth_discrimination_stimuli/001175_2014-06-17_15-45-55_260595134347_rgbf000129-resize_4/001175_2014-06-17_15-45-55_260595134347_rgbf000129-resize_4-target.png,depth_discrimination_stimuli/002467_2014-06-28_20-38-07_260595134347_rgbf000026-resize_2/002467_2014-06-28_20-38-07_260595134347_rgbf000026-resize_2-target.png,250,4.255,4.742,0,1143,502,249,506,358,386,meters,,,,,508527,612816,30
127869,DepthScenes,duration_discrimination,discrim_jsons/d0_rotated_dr.json,http://54.197.185.130/DepthDuration/depth_discrimination_MTurk/DepthDiscrim_HTML.html#2,2,1366,625,1366,768,6-9-2021,10-2-29,24,depth_discrimination_stimuli/000137_2014-05-20_17-04-49_260595134347_rgbf000120-resize_1/000137_2014-05-20_17-04-49_260595134347_rgbf000120-resize_1-target.png,depth_discrimination_stimuli/000691_2014-06-08_13-08-50_260595134347_rgbf000132-resize_3/000691_2014-06-08_13-08-50_260595134347_rgbf000132-resize_3-target.png,1000,3.786,4.153,0,1748,502,999,531,970,505,meters,,,,,508527,612816,30
127869,DepthScenes,duration_discrimination,discrim_jsons/d0_rotated_dr.json,http://54.197.185.130/DepthDuration/depth_discrimination_MTurk/DepthDiscrim_HTML.html#2,2,1366,625,1366,768,6-9-2021,10-2-29,25,depth_discrimination_stimuli/000542_2014-06-08_18-27-08_260595134347_rgbf000118-resize_1/000542_2014-06-08_18-27-08_260595134347_rgbf000118-resize_1-target.png,depth_discrimination_stimuli/002118_2014-06-25_20-32-08_260595134347_rgbf000078-resize_1/002118_2014-06-25_20-32-08_260595134347_rgbf000078-resize_1-target.png,250,3,2.646,1,1283,502,268,482,250,500,meters,,,,,508527,612816,30
127869,DepthScenes,duration_discrimination,discrim_jsons/d0_rotated_dr.json,http://54.197.185.130/DepthDuration/depth_discrimination_MTurk/DepthDiscrim_HTML.html#2,2,1366,625,1366,768,6-9-2021,10-2-29,26,depth_discrimination_stimuli/001170_2014-06-17_15-43-44_260595134347_rgbf000096-resize_6/001170_2014-06-17_15-43-44_260595134347_rgbf000096-resize_6-target.png,depth_discrimination_stimuli/002364_2014-06-28_20-11-05_260595134347_rgbf000042-resize_0/002364_2014-06-28_20-11-05_260595134347_rgbf000042-resize_0-target.png,1000,1.191,4.682,1,1623,509,992,498,1008,499,meters,,,,,508527,612816,30
127869,DepthScenes,duration_discrimination,discrim_jsons/d0_rotated_dr.json,http://54.197.185.130/DepthDuration/depth_discrimination_MTurk/DepthDiscrim_HTML.html#2,2,1366,625,1366,768,6-9-2021,10-2-29,27,depth_discrimination_stimuli/000736_2014-06-08_18-24-15_260595134347_rgbf000206-resize_3/000736_2014-06-08_18-24-15_260595134347_rgbf000206-resize_3-target.png,depth_discrimination_stimuli/002323_2014-06-28_20-01-54_260595134347_rgbf000051-resize_4/002323_2014-06-28_20-01-54_260595134347_rgbf000051-resize_4-target.png,1000,3.515,3.731,0,1650,506,997,535,963,502,meters,,,,,508527,612816,30
127869,DepthScenes,duration_discrimination,discrim_jsons/d0_rotated_dr.json,http://54.197.185.130/DepthDuration/depth_discrimination_MTurk/DepthDiscrim_HTML.html#2,2,1366,625,1366,768,6-9-2021,10-2-29,28,depth_discrimination_stimuli/002365_2014-06-28_20-11-21_260595134347_rgbf000102-resize_1/002365_2014-06-28_20-11-21_260595134347_rgbf000102-resize_1-target.png,depth_discrimination_stimuli/000457_2014-06-08_16-52-43_260595134347_rgbf000199-resize_1/000457_2014-06-08_16-52-43_260595134347_rgbf000199-resize_1-target.png,250,4.013,3.649,0,1132,509,255,493,250,499,meters,,,,,508527,612816,30
127869,DepthScenes,duration_discrimination,discrim_jsons/d0_rotated_dr.json,http://54.197.185.130/DepthDuration/depth_discrimination_MTurk/DepthDiscrim_HTML.html#2,2,1366,625,1366,768,6-9-2021,10-2-29,29,depth_discrimination_stimuli/002995_2014-06-15_12-31-26_094959634447_rgbf000150-resize_1/002995_2014-06-15_12-31-26_094959634447_rgbf000150-resize_1-target.png,depth_discrimination_stimuli/000739_2014-06-08_18-45-58_260595134347_rgbf000068-resize_1/000739_2014-06-08_18-45-58_260595134347_rgbf000068-resize_1-target.png,250,3.836,3.534,0,830,511,240,512,238,500,meters,,,,,508527,612816,30
127869,DepthScenes,duration_discrimination,discrim_jsons/d0_rotated_dr.json,http://54.197.185.130/DepthDuration/depth_discrimination_MTurk/DepthDiscrim_HTML.html#2,2,1366,625,1366,768,6-9-2021,10-2-29,30,depth_discrimination_stimuli/003010_2014-06-15_12-54-35_094959634447_rgbf000112-resize_0/003010_2014-06-15_12-54-35_094959634447_rgbf000112-resize_0-target.png,depth_discrimination_stimuli/003546_2014-05-22_15-48-53_094959634447_rgbf004816-resize_3/003546_2014-05-22_15-48-53_094959634447_rgbf004816-resize_3-target.png,250,3.1185,2.62625,0,959,502,251,498,251,500,meters,,,,,508527,612816,30
127869,DepthScenes,duration_discrimination,discrim_jsons/d0_rotated_dr.json,http://54.197.185.130/DepthDuration/depth_discrimination_MTurk/DepthDiscrim_HTML.html#2,2,1366,625,1366,768,6-9-2021,10-2-29,31,depth_discrimination_stimuli/002340_2014-06-28_20-05-46_260595134347_rgbf000113-resize_0/002340_2014-06-28_20-05-46_260595134347_rgbf000113-resize_0-target.png,depth_discrimination_stimuli/001264_2014-06-16_16-10-23_260595134347_rgbf000109-resize_1/001264_2014-06-16_16-10-23_260595134347_rgbf000109-resize_1-target.png,250,2.4735,2.9665,0,1430,559,192,501,249,500,meters,,,,,508527,612816,30
127869,DepthScenes,duration_discrimination,discrim_jsons/d0_rotated_dr.json,http://54.197.185.130/DepthDuration/depth_discrimination_MTurk/DepthDiscrim_HTML.html#2,2,1366,625,1366,768,6-9-2021,10-2-29,32,depth_discrimination_stimuli/001570_2014-06-20_17-21-09_260595134347_rgbf000135-resize_4/001570_2014-06-20_17-21-09_260595134347_rgbf000135-resize_4-target.png,depth_discrimination_stimuli/002375_2014-06-28_20-13-44_260595134347_rgbf000032-resize_1/002375_2014-06-28_20-13-44_260595134347_rgbf000032-resize_1-target.png,1000,4.467,4.0175,1,1807,500,1000,514,988,507,meters,,,,,508527,612816,30
127869,DepthScenes,duration_discrimination,discrim_jsons/d0_rotated_dr.json,http://54.197.185.130/DepthDuration/depth_discrimination_MTurk/DepthDiscrim_HTML.html#2,2,1366,625,1366,768,6-9-2021,10-2-29,33,depth_discrimination_stimuli/001214_2014-06-17_16-13-55_260595134347_rgbf000111-resize_0/001214_2014-06-17_16-13-55_260595134347_rgbf000111-resize_0-target.png,depth_discrimination_stimuli/000665_2014-06-09_20-42-35_260595134347_rgbf000110-resize_1/000665_2014-06-09_20-42-35_260595134347_rgbf000110-resize_1-target.png,1000,2.6505,3.057,1,2169,609,1001,392,1003,496,meters,,,,,508527,612816,30
127869,DepthScenes,duration_discrimination,discrim_jsons/d0_rotated_dr.json,http://54.197.185.130/DepthDuration/depth_discrimination_MTurk/DepthDiscrim_HTML.html#2,2,1366,625,1366,768,6-9-2021,10-2-29,34,depth_discrimination_stimuli/001724_2014-06-26_19-28-50_260595134347_rgbf000037-resize_7/001724_2014-06-26_19-28-50_260595134347_rgbf000037-resize_7-target.png,depth_discrimination_stimuli/002989_2014-06-15_12-25-03_094959634447_rgbf000150-resize_3/002989_2014-06-15_12-25-03_094959634447_rgbf000150-resize_3-target.png,250,3.827,4.1975,0,1101,501,250,503,247,501,meters,,,,,508527,612816,30
127869,DepthScenes,duration_discrimination,discrim_jsons/d0_rotated_dr.json,http://54.197.185.130/DepthDuration/depth_discrimination_MTurk/DepthDiscrim_HTML.html#2,2,1366,625,1366,768,6-9-2021,10-2-29,35,depth_discrimination_stimuli/001618_2014-06-20_11-37-31_260595134347_rgbf000027-resize_3/001618_2014-06-20_11-37-31_260595134347_rgbf000027-resize_3-target.png,depth_discrimination_stimuli/001016_2014-06-09_16-16-10_260595134347_rgbf000112-resize_5/001016_2014-06-09_16-16-10_260595134347_rgbf000112-resize_5-target.png,1000,1.8725,1.6565,1,2175,501,1036,465,1009,509,meters,,,,,508527,612816,30
127869,DepthScenes,duration_discrimination,discrim_jsons/d0_rotated_dr.json,http://54.197.185.130/DepthDuration/depth_discrimination_MTurk/DepthDiscrim_HTML.html#2,2,1366,625,1366,768,6-9-2021,10-2-29,36,depth_discrimination_stimuli/001571_2014-06-20_17-21-32_260595134347_rgbf000089-resize_1/001571_2014-06-20_17-21-32_260595134347_rgbf000089-resize_1-target.png,depth_discrimination_stimuli/002953_2014-06-08_17-32-18_094959634447_rgbf000059-resize_5/002953_2014-06-08_17-32-18_094959634447_rgbf000059-resize_5-target.png,250,1.86,1.551,0,797,502,266,541,201,493,meters,,,,,508527,612816,30
127869,DepthScenes,duration_discrimination,discrim_jsons/d0_rotated_dr.json,http://54.197.185.130/DepthDuration/depth_discrimination_MTurk/DepthDiscrim_HTML.html#2,2,1366,625,1366,768,6-9-2021,10-2-29,37,depth_discrimination_stimuli/000917_2014-06-09_22-45-29_260595134347_rgbf000149-resize_3/000917_2014-06-09_22-45-29_260595134347_rgbf000149-resize_3-target.png,depth_discrimination_stimuli/003081_2014-06-15_15-19-16_094959634447_rgbf000150-resize_1/003081_2014-06-15_15-19-16_094959634447_rgbf000150-resize_1-target.png,1000,4.1865,3.9125,0,1786,502,1076,543,878,499,meters,,,,,508527,612816,30
127869,DepthScenes,duration_discrimination,discrim_jsons/d0_rotated_dr.json,http://54.197.185.130/DepthDuration/depth_discrimination_MTurk/DepthDiscrim_HTML.html#2,2,1366,625,1366,768,6-9-2021,10-2-29,38,depth_discrimination_stimuli/003228_2014-05-14_13-42-35_094959634447_rgbf000101-resize_1/003228_2014-05-14_13-42-35_094959634447_rgbf000101-resize_1-target.png,depth_discrimination_stimuli/001164_2014-06-17_15-35-46_260595134347_rgbf000085-resize_3/001164_2014-06-17_15-35-46_260595134347_rgbf000085-resize_3-target.png,1000,1.968,2.354,0,1898,507,994,513,996,538,meters,,,,,508527,612816,30
127869,DepthScenes,duration_discrimination,discrim_jsons/d0_rotated_dr.json,http://54.197.185.130/DepthDuration/depth_discrimination_MTurk/DepthDiscrim_HTML.html#2,2,1366,625,1366,768,6-9-2021,10-2-29,39,depth_discrimination_stimuli/000906_2014-06-08_13-35-43_260595134347_rgbf000155-resize_1/000906_2014-06-08_13-35-43_260595134347_rgbf000155-resize_1-target.png,depth_discrimination_stimuli/001059_2014-06-08_21-53-27_260595134347_rgbf000061-resize_4/001059_2014-06-08_21-53-27_260595134347_rgbf000061-resize_4-target.png,1000,2.849,2.4185,0,1655,501,1020,481,1000,538,meters,,,,,508527,612816,30
127869,DepthScenes,duration_discrimination,discrim_jsons/d0_rotated_dr.json,http://54.197.185.130/DepthDuration/depth_discrimination_MTurk/DepthDiscrim_HTML.html#2,2,1366,625,1366,768,6-9-2021,10-2-29,40,depth_discrimination_stimuli/002748_2014-06-22_19-07-22_094959634447_rgbf000078-resize_1/002748_2014-06-22_19-07-22_094959634447_rgbf000078-resize_1-target.png,depth_discrimination_stimuli/002657_2014-06-13_15-29-54_094959634447_rgbf000150-resize_1/002657_2014-06-13_15-29-54_094959634447_rgbf000150-resize_1-target.png,1000,4.6705,4.919,0,1590,501,1014,487,998,502,meters,,,,,508527,612816,30
127869,DepthScenes,duration_discrimination,discrim_jsons/d0_rotated_dr.json,http://54.197.185.130/DepthDuration/depth_discrimination_MTurk/DepthDiscrim_HTML.html#2,2,1366,625,1366,768,6-9-2021,10-2-29,41,depth_discrimination_stimuli/000800_2014-06-08_22-42-09_260595134347_rgbf000095-resize_3/000800_2014-06-08_22-42-09_260595134347_rgbf000095-resize_3-target.png,depth_discrimination_stimuli/002700_2014-06-22_11-27-02_094959634447_rgbf000124-resize_3/002700_2014-06-22_11-27-02_094959634447_rgbf000124-resize_3-target.png,250,2.8,3.301,0,1362,506,245,504,455,296,meters,,,,,508527,612816,30
127869,DepthScenes,duration_discrimination,discrim_jsons/d0_rotated_dr.json,http://54.197.185.130/DepthDuration/depth_discrimination_MTurk/DepthDiscrim_HTML.html#2,2,1366,625,1366,768,6-9-2021,10-2-29,42,depth_discrimination_stimuli/002875_2014-06-01_15-19-00_094959634447_rgbf000151-resize_1/002875_2014-06-01_15-19-00_094959634447_rgbf000151-resize_1-target.png,depth_discrimination_stimuli/000749_2014-06-08_21-55-06_260595134347_rgbf000070-resize_2/000749_2014-06-08_21-55-06_260595134347_rgbf000070-resize_2-target.png,1000,1.9675,2.331,0,1658,502,1032,468,999,501,meters,,,,,508527,612816,30
127869,DepthScenes,duration_discrimination,discrim_jsons/d0_rotated_dr.json,http://54.197.185.130/DepthDuration/depth_discrimination_MTurk/DepthDiscrim_HTML.html#2,2,1366,625,1366,768,6-9-2021,10-2-29,43,depth_discrimination_stimuli/003288_2014-05-14_21-50-30_094959634447_rgbf000028-resize_3/003288_2014-05-14_21-50-30_094959634447_rgbf000028-resize_3-target.png,depth_discrimination_stimuli/000735_2014-06-08_18-23-50_260595134347_rgbf000163-resize_2/000735_2014-06-08_18-23-50_260595134347_rgbf000163-resize_2-target.png,1000,3.877,4.1695,0,1589,506,1010,494,992,503,meters,,,,,508527,612816,30
127869,DepthScenes,duration_discrimination,discrim_jsons/d0_rotated_dr.json,http://54.197.185.130/DepthDuration/depth_discrimination_MTurk/DepthDiscrim_HTML.html#2,2,1366,625,1366,768,6-9-2021,10-2-29,44,depth_discrimination_stimuli/000447_2014-06-08_16-15-46_260595134347_rgbf000130-resize_1/000447_2014-06-08_16-15-46_260595134347_rgbf000130-resize_1-target.png,depth_discrimination_stimuli/002988_2014-06-15_12-24-20_094959634447_rgbf000150-resize_1/002988_2014-06-15_12-24-20_094959634447_rgbf000150-resize_1-target.png,250,4.479,4.767,0,783,502,266,484,249,500,meters,,,,,508527,612816,30
127869,DepthScenes,duration_discrimination,discrim_jsons/d0_rotated_dr.json,http://54.197.185.130/DepthDuration/depth_discrimination_MTurk/DepthDiscrim_HTML.html#2,2,1366,625,1366,768,6-9-2021,10-2-29,45,depth_discrimination_stimuli/002272_2014-06-28_18-53-56_260595134347_rgbf000067-resize_2/002272_2014-06-28_18-53-56_260595134347_rgbf000067-resize_2-target.png,depth_discrimination_stimuli/003534_2014-05-22_15-06-10_094959634447_rgbf000102-resize_4/003534_2014-05-22_15-06-10_094959634447_rgbf000102-resize_4-target.png,250,1.138,1.426,0,1192,548,209,498,254,489,meters,,,,,508527,612816,30
127869,DepthScenes,duration_discrimination,discrim_jsons/d0_rotated_dr.json,http://54.197.185.130/DepthDuration/depth_discrimination_MTurk/DepthDiscrim_HTML.html#2,2,1366,625,1366,768,6-9-2021,10-2-29,46,depth_discrimination_stimuli/000522_2014-06-08_13-35-06_260595134347_rgbf000244-resize_1/000522_2014-06-08_13-35-06_260595134347_rgbf000244-resize_1-target.png,depth_discrimination_stimuli/001092_2014-06-15_17-34-58_260595134347_rgbf000171-resize_3/001092_2014-06-15_17-34-58_260595134347_rgbf000171-resize_3-target.png,1000,2.3715,2.6935,0,1556,554,957,516,1030,448,meters,,,,,508527,612816,30
127869,DepthScenes,duration_discrimination,discrim_jsons/d0_rotated_dr.json,http://54.197.185.130/DepthDuration/depth_discrimination_MTurk/DepthDiscrim_HTML.html#2,2,1366,625,1366,768,6-9-2021,10-2-29,47,depth_discrimination_stimuli/000866_2014-06-09_20-45-42_260595134347_rgbf000139-resize_1/000866_2014-06-09_20-45-42_260595134347_rgbf000139-resize_1-target.png,depth_discrimination_stimuli/000682_2014-06-08_23-14-58_260595134347_rgbf000041-resize_5/000682_2014-06-08_23-14-58_260595134347_rgbf000041-resize_5-target.png,1000,3.2155,2.724,0,1738,500,1005,535,962,511,meters,,,,,508527,612816,30
127869,DepthScenes,duration_discrimination,discrim_jsons/d0_rotated_dr.json,http://54.197.185.130/DepthDuration/depth_discrimination_MTurk/DepthDiscrim_HTML.html#2,2,1366,625,1366,768,6-9-2021,10-2-29,48,depth_discrimination_stimuli/000569_2014-06-09_22-51-47_260595134347_rgbf000141-resize_3/000569_2014-06-09_22-51-47_260595134347_rgbf000141-resize_3-target.png,depth_discrimination_stimuli/000868_2014-06-09_20-49-52_260595134347_rgbf000064-resize_4/000868_2014-06-09_20-49-52_260595134347_rgbf000064-resize_4-target.png,250,4.512,1.2815,0,1184,514,249,501,236,502,meters,,,,,508527,612816,30
127869,DepthScenes,duration_discrimination,discrim_jsons/d0_rotated_dr.json,http://54.197.185.130/DepthDuration/depth_discrimination_MTurk/DepthDiscrim_HTML.html#2,2,1366,625,1366,768,6-9-2021,10-2-29,49,depth_discrimination_stimuli/000636_2014-06-08_16-39-02_260595134347_rgbf000108-resize_4/000636_2014-06-08_16-39-02_260595134347_rgbf000108-resize_4-target.png,depth_discrimination_stimuli/002568_2014-06-24_13-59-21_094959634447_rgbf000062-resize_4/002568_2014-06-24_13-59-21_094959634447_rgbf000062-resize_4-target.png,1000,2.682,3.015,1,2051,503,1013,491,995,502,meters,,,,,508527,612816,30
127869,DepthScenes,duration_discrimination,discrim_jsons/d0_rotated_dr.json,http://54.197.185.130/DepthDuration/depth_discrimination_MTurk/DepthDiscrim_HTML.html#2,2,1366,625,1366,768,6-9-2021,10-2-29,50,depth_discrimination_stimuli/001181_2014-06-17_15-50-57_260595134347_rgbf000106-resize_4/001181_2014-06-17_15-50-57_260595134347_rgbf000106-resize_4-target.png,depth_discrimination_stimuli/002425_2014-06-28_20-27-29_260595134347_rgbf000031-resize_8/002425_2014-06-28_20-27-29_260595134347_rgbf000031-resize_8-target.png,1000,4.149,3.896,1,1729,695,817,490,1000,500,meters,,,,,508527,612816,30
127869,DepthScenes,duration_discrimination,discrim_jsons/d0_rotated_dr.json,http://54.197.185.130/DepthDuration/depth_discrimination_MTurk/DepthDiscrim_HTML.html#2,2,1366,625,1366,768,6-9-2021,10-2-29,51,depth_discrimination_stimuli/001498_2014-06-19_17-45-14_260595134347_rgbf000129-resize_4/001498_2014-06-19_17-45-14_260595134347_rgbf000129-resize_4-target.png,depth_discrimination_stimuli/003125_2014-05-12_10-39-22_094959634447_rgbf000100-resize_0/003125_2014-05-12_10-39-22_094959634447_rgbf000100-resize_0-target.png,250,1.4075,4.8655,0,958,512,241,509,240,501,meters,,,,,508527,612816,30
127869,DepthScenes,duration_discrimination,discrim_jsons/d0_rotated_dr.json,http://54.197.185.130/DepthDuration/depth_discrimination_MTurk/DepthDiscrim_HTML.html#2,2,1366,625,1366,768,6-9-2021,10-2-29,52,depth_discrimination_stimuli/002637_2014-06-24_14-51-13_094959634447_rgbf000066-resize_4/002637_2014-06-24_14-51-13_094959634447_rgbf000066-resize_4-target.png,depth_discrimination_stimuli/000720_2014-06-08_18-37-27_260595134347_rgbf000203-resize_4/000720_2014-06-08_18-37-27_260595134347_rgbf000203-resize_4-target.png,250,1.9955,1.558,0,888,503,248,501,250,510,meters,,,,,508527,612816,30
127869,DepthScenes,duration_discrimination,discrim_jsons/d0_rotated_dr.json,http://54.197.185.130/DepthDuration/depth_discrimination_MTurk/DepthDiscrim_HTML.html#2,2,1366,625,1366,768,6-9-2021,10-2-29,53,depth_discrimination_stimuli/000368_2014-06-09_15-53-01_260595134347_rgbf000155-resize_2/000368_2014-06-09_15-53-01_260595134347_rgbf000155-resize_2-target.png,depth_discrimination_stimuli/002199_2014-06-28_18-33-56_260595134347_rgbf000074-resize_0/002199_2014-06-28_18-33-56_260595134347_rgbf000074-resize_0-target.png,1000,2.486,1.996,0,1711,501,1001,507,1002,491,meters,,,,,508527,612816,30
127869,DepthScenes,duration_discrimination,discrim_jsons/d0_rotated_dr.json,http://54.197.185.130/DepthDuration/depth_discrimination_MTurk/DepthDiscrim_HTML.html#2,2,1366,625,1366,768,6-9-2021,10-2-29,54,depth_discrimination_stimuli/002788_2014-06-22_19-36-03_094959634447_rgbf000088-resize_2/002788_2014-06-22_19-36-03_094959634447_rgbf000088-resize_2-target.png,depth_discrimination_stimuli/001289_2014-06-16_16-25-52_260595134347_rgbf000067-resize_1/001289_2014-06-16_16-25-52_260595134347_rgbf000067-resize_1-target.png,250,1.6465,1.8835,0,1320,502,248,508,243,499,meters,,,,,508527,612816,30
127869,DepthScenes,duration_discrimination,discrim_jsons/d0_rotated_dr.json,http://54.197.185.130/DepthDuration/depth_discrimination_MTurk/DepthDiscrim_HTML.html#2,2,1366,625,1366,768,6-9-2021,10-2-29,55,depth_discrimination_stimuli/003083_2014-06-15_15-21-03_094959634447_rgbf000063-resize_1/003083_2014-06-15_15-21-03_094959634447_rgbf000063-resize_1-target.png,depth_discrimination_stimuli/001417_2014-06-19_16-25-36_260595134347_rgbf000115-resize_5/001417_2014-06-19_16-25-36_260595134347_rgbf000115-resize_5-target.png,1000,4.1405,4.6255,0,2228,502,998,503,998,501,meters,,,,,508527,612816,30
127869,DepthScenes,duration_discrimination,discrim_jsons/d0_rotated_dr.json,http://54.197.185.130/DepthDuration/depth_discrimination_MTurk/DepthDiscrim_HTML.html#2,2,1366,625,1366,768,6-9-2021,10-2-29,56,depth_discrimination_stimuli/001133_2014-06-17_14-49-16_260595134347_rgbf000100-resize_0/001133_2014-06-17_14-49-16_260595134347_rgbf000100-resize_0-target.png,depth_discrimination_stimuli/001617_2014-06-20_11-35-32_260595134347_rgbf000066-resize_1/001617_2014-06-20_11-35-32_260595134347_rgbf000066-resize_1-target.png,250,4.2115,3.791,1,1223,502,249,501,252,498,meters,,,,,508527,612816,30
127869,DepthScenes,duration_discrimination,discrim_jsons/d0_rotated_dr.json,http://54.197.185.130/DepthDuration/depth_discrimination_MTurk/DepthDiscrim_HTML.html#2,2,1366,625,1366,768,6-9-2021,10-2-29,57,depth_discrimination_stimuli/000009_2014-05-26_14-32-05_260595134347_rgbf000034-resize_3/000009_2014-05-26_14-32-05_260595134347_rgbf000034-resize_3-target.png,depth_discrimination_stimuli/002660_2014-06-13_15-44-18_094959634447_rgbf001878-resize_2/002660_2014-06-13_15-44-18_094959634447_rgbf001878-resize_2-target.png,250,3.8715,3.576,0,1293,502,249,521,231,498,meters,,,,,508527,612816,30
127869,DepthScenes,duration_discrimination,discrim_jsons/d0_rotated_dr.json,http://54.197.185.130/DepthDuration/depth_discrimination_MTurk/DepthDiscrim_HTML.html#2,2,1366,625,1366,768,6-9-2021,10-2-29,58,depth_discrimination_stimuli/003495_2014-05-21_16-01-51_094959634447_rgbf000100-resize_3/003495_2014-05-21_16-01-51_094959634447_rgbf000100-resize_3-target.png,depth_discrimination_stimuli/001167_2014-06-17_15-38-07_260595134347_rgbf000108-resize_0/001167_2014-06-17_15-38-07_260595134347_rgbf000108-resize_0-target.png,1000,1.6255,1.8505,0,2197,514,988,499,1001,500,meters,,,,,508527,612816,30
127869,DepthScenes,duration_discrimination,discrim_jsons/d0_rotated_dr.json,http://54.197.185.130/DepthDuration/depth_discrimination_MTurk/DepthDiscrim_HTML.html#2,2,1366,625,1366,768,6-9-2021,10-2-29,59,depth_discrimination_stimuli/000830_2014-06-04_19-49-31_260595134347_rgbf000096-resize_2/000830_2014-06-04_19-49-31_260595134347_rgbf000096-resize_2-target.png,depth_discrimination_stimuli/000929_2014-06-09_16-33-19_260595134347_rgbf000139-resize_0/000929_2014-06-09_16-33-19_260595134347_rgbf000139-resize_0-target.png,1000,2.6353333333333,2.868,0,2144,500,1010,493,1120,378,meters,,,,,508527,612816,30
127869,DepthScenes,duration_discrimination,discrim_jsons/d0_rotated_dr.json,http://54.197.185.130/DepthDuration/depth_discrimination_MTurk/DepthDiscrim_HTML.html#2,2,1366,625,1366,768,6-9-2021,10-2-29,60,depth_discrimination_stimuli/001136_2014-06-17_15-19-41_260595134347_rgbf000076-resize_3/001136_2014-06-17_15-19-41_260595134347_rgbf000076-resize_3-target.png,depth_discrimination_stimuli/000869_2014-06-09_20-50-18_260595134347_rgbf000060-resize_3/000869_2014-06-09_20-50-18_260595134347_rgbf000060-resize_3-target.png,1000,1.8655,2.266,1,1510,500,1133,368,1001,500,meters,,,,,508527,612816,30
127869,DepthScenes,duration_discrimination,discrim_jsons/d0_rotated_dr.json,http://54.197.185.130/DepthDuration/depth_discrimination_MTurk/DepthDiscrim_HTML.html#2,2,1366,625,1366,768,6-9-2021,10-2-29,61,depth_discrimination_stimuli/001029_2014-06-08_13-17-57_260595134347_rgbf000065-resize_1/001029_2014-06-08_13-17-57_260595134347_rgbf000065-resize_1-target.png,depth_discrimination_stimuli/001199_2014-06-17_16-03-48_260595134347_rgbf000077-resize_0/001199_2014-06-17_16-03-48_260595134347_rgbf000077-resize_0-target.png,1000,3.0835,3.4375,1,1560,554,948,504,994,503,meters,,,,,508527,612816,30
127869,DepthScenes,duration_discrimination,discrim_jsons/d0_rotated_dr.json,http://54.197.185.130/DepthDuration/depth_discrimination_MTurk/DepthDiscrim_HTML.html#2,2,1366,625,1366,768,6-9-2021,10-2-29,62,depth_discrimination_stimuli/003092_2014-06-24_21-01-49_094959634447_rgbf000049-resize_2/003092_2014-06-24_21-01-49_094959634447_rgbf000049-resize_2-target.png,depth_discrimination_stimuli/000753_2014-06-08_21-57-44_260595134347_rgbf000123-resize_3/000753_2014-06-08_21-57-44_260595134347_rgbf000123-resize_3-target.png,250,1.666,1.916,0,963,502,259,492,249,499,meters,,,,,508527,612816,30
127869,DepthScenes,duration_discrimination,discrim_jsons/d0_rotated_dr.json,http://54.197.185.130/DepthDuration/depth_discrimination_MTurk/DepthDiscrim_HTML.html#2,2,1366,625,1366,768,6-9-2021,10-2-29,63,depth_discrimination_stimuli/000758_2014-06-08_22-05-08_260595134347_rgbf000085-resize_0/000758_2014-06-08_22-05-08_260595134347_rgbf000085-resize_0-target.png,depth_discrimination_stimuli/003070_2014-06-15_14-58-27_094959634447_rgbf000150-resize_3/003070_2014-06-15_14-58-27_094959634447_rgbf000150-resize_3-target.png,250,3.381,2.9415,1,5919,502,250,508,245,496,meters,,,,,508527,612816,30
127869,DepthScenes,duration_discrimination,discrim_jsons/d0_rotated_dr.json,http://54.197.185.130/DepthDuration/depth_discrimination_MTurk/DepthDiscrim_HTML.html#2,2,1366,625,1366,768,6-9-2021,10-2-29,64,depth_discrimination_stimuli/000191_2014-05-12_17-07-38_260595134347_rgbf000199-resize_0/000191_2014-05-12_17-07-38_260595134347_rgbf000199-resize_0-target.png,depth_discrimination_stimuli/000780_2014-06-08_22-28-29_260595134347_rgbf000126-resize_1/000780_2014-06-08_22-28-29_260595134347_rgbf000126-resize_1-target.png,250,3.7995,3.3825,1,750,510,255,503,249,497,meters,,,,,508527,612816,30
127869,DepthScenes,duration_discrimination,discrim_jsons/d0_rotated_dr.json,http://54.197.185.130/DepthDuration/depth_discrimination_MTurk/DepthDiscrim_HTML.html#2,2,1366,625,1366,768,6-9-2021,10-2-29,65,depth_discrimination_stimuli/000953_2014-06-08_11-42-19_260595134347_rgbf000083-resize_0/000953_2014-06-08_11-42-19_260595134347_rgbf000083-resize_0-target.png,depth_discrimination_stimuli/000787_2014-06-08_22-33-53_260595134347_rgbf000175-resize_1/000787_2014-06-08_22-33-53_260595134347_rgbf000175-resize_1-target.png,1000,1.369,4.784,1,1699,728,774,499,1001,512,meters,,,,,508527,612816,30
127869,DepthScenes,duration_discrimination,discrim_jsons/d0_rotated_dr.json,http://54.197.185.130/DepthDuration/depth_discrimination_MTurk/DepthDiscrim_HTML.html#2,2,1366,625,1366,768,6-9-2021,10-2-29,66,depth_discrimination_stimuli/003423_2014-05-21_10-23-26_094959634447_rgbf002665-resize_2/003423_2014-05-21_10-23-26_094959634447_rgbf002665-resize_2-target.png,depth_discrimination_stimuli/001235_2014-06-17_16-37-36_260595134347_rgbf000084-resize_4/001235_2014-06-17_16-37-36_260595134347_rgbf000084-resize_4-target.png,250,3.2575,3.6605,0,843,504,252,500,246,500,meters,,,,,508527,612816,30
127869,DepthScenes,duration_discrimination,discrim_jsons/d0_rotated_dr.json,http://54.197.185.130/DepthDuration/depth_discrimination_MTurk/DepthDiscrim_HTML.html#2,2,1366,625,1366,768,6-9-2021,10-2-29,67,depth_discrimination_stimuli/000927_2014-06-09_16-32-30_260595134347_rgbf000123-resize_3/000927_2014-06-09_16-32-30_260595134347_rgbf000123-resize_3-target.png,depth_discrimination_stimuli/001810_2014-06-26_20-51-35_260595134347_rgbf000040-resize_3/001810_2014-06-26_20-51-35_260595134347_rgbf000040-resize_3-target.png,1000,2.6785,2.2525,0,1809,510,992,511,997,562,meters,,,,,508527,612816,30
127869,DepthScenes,duration_discrimination,discrim_jsons/d0_rotated_dr.json,http://54.197.185.130/DepthDuration/depth_discrimination_MTurk/DepthDiscrim_HTML.html#2,2,1366,625,1366,768,6-9-2021,10-2-29,68,depth_discrimination_stimuli/000788_2014-06-08_22-34-36_260595134347_rgbf000131-resize_1/000788_2014-06-08_22-34-36_260595134347_rgbf000131-resize_1-target.png,depth_discrimination_stimuli/000521_2014-06-08_13-34-35_260595134347_rgbf000191-resize_2/000521_2014-06-08_13-34-35_260595134347_rgbf000191-resize_2-target.png,1000,3.359,3.0385,0,1572,519,989,501,993,511,meters,,,,,508527,612816,30
127869,DepthScenes,duration_discrimination,discrim_jsons/d0_rotated_dr.json,http://54.197.185.130/DepthDuration/depth_discrimination_MTurk/DepthDiscrim_HTML.html#2,2,1366,625,1366,768,6-9-2021,10-2-29,69,depth_discrimination_stimuli/002805_2014-06-22_19-54-03_094959634447_rgbf000079-resize_1/002805_2014-06-22_19-54-03_094959634447_rgbf000079-resize_1-target.png,depth_discrimination_stimuli/003292_2014-05-14_21-53-49_094959634447_rgbf000100-resize_2/003292_2014-05-14_21-53-49_094959634447_rgbf000100-resize_2-target.png,250,3.144,3.4815,1,1026,503,248,514,253,490,meters,,,,,508527,612816,30
127869,DepthScenes,duration_discrimination,discrim_jsons/d0_rotated_dr.json,http://54.197.185.130/DepthDuration/depth_discrimination_MTurk/DepthDiscrim_HTML.html#2,2,1366,625,1366,768,6-9-2021,10-2-29,70,depth_discrimination_stimuli/001815_2014-06-26_20-52-55_260595134347_rgbf000020-resize_0/001815_2014-06-26_20-52-55_260595134347_rgbf000020-resize_0-target.png,depth_discrimination_stimuli/000642_2014-06-08_16-59-25_260595134347_rgbf000098-resize_2/000642_2014-06-08_16-59-25_260595134347_rgbf000098-resize_2-target.png,250,3.3865,2.8815,1,995,502,250,504,249,499,meters,,,,,508527,612816,30
127869,DepthScenes,duration_discrimination,discrim_jsons/d0_rotated_dr.json,http://54.197.185.130/DepthDuration/depth_discrimination_MTurk/DepthDiscrim_HTML.html#2,2,1366,625,1366,768,6-9-2021,10-2-29,71,depth_discrimination_stimuli/003338_2014-05-20_11-01-23_094959634447_rgbf000051-resize_6/003338_2014-05-20_11-01-23_094959634447_rgbf000051-resize_6-target.png,depth_discrimination_stimuli/000878_2014-06-08_22-52-45_260595134347_rgbf000045-resize_2/000878_2014-06-08_22-52-45_260595134347_rgbf000045-resize_2-target.png,250,1.693,2.092,0,1081,502,262,487,250,510,meters,,,,,508527,612816,30
127869,DepthScenes,duration_discrimination,discrim_jsons/d0_rotated_dr.json,http://54.197.185.130/DepthDuration/depth_discrimination_MTurk/DepthDiscrim_HTML.html#2,2,1366,625,1366,768,6-9-2021,10-2-29,72,depth_discrimination_stimuli/002139_2014-06-25_21-19-37_260595134347_rgbf000124-resize_2/002139_2014-06-25_21-19-37_260595134347_rgbf000124-resize_2-target.png,depth_discrimination_stimuli/000549_2014-06-08_22-10-24_260595134347_rgbf000247-resize_3/000549_2014-06-08_22-10-24_260595134347_rgbf000247-resize_3-target.png,1000,2.107,1.841,0,1999,501,999,500,1001,500,meters,,,,,508527,612816,30
127869,DepthScenes,duration_discrimination,discrim_jsons/d0_rotated_dr.json,http://54.197.185.130/DepthDuration/depth_discrimination_MTurk/DepthDiscrim_HTML.html#2,2,1366,625,1366,768,6-9-2021,10-2-29,73,depth_discrimination_stimuli/000555_2014-06-09_22-42-23_260595134347_rgbf000037-resize_4/000555_2014-06-09_22-42-23_260595134347_rgbf000037-resize_4-target.png,depth_discrimination_stimuli/001110_2014-06-15_17-25-28_260595134347_rgbf000150-resize_1/001110_2014-06-15_17-25-28_260595134347_rgbf000150-resize_1-target.png,1000,1.9765,1.7115,0,1559,500,1001,501,1000,500,meters,,,,,508527,612816,30
127869,DepthScenes,duration_discrimination,discrim_jsons/d0_rotated_dr.json,http://54.197.185.130/DepthDuration/depth_discrimination_MTurk/DepthDiscrim_HTML.html#2,2,1366,625,1366,768,6-9-2021,10-2-29,74,depth_discrimination_stimuli/003490_2014-05-21_15-50-11_094959634447_rgbf000101-resize_3/003490_2014-05-21_15-50-11_094959634447_rgbf000101-resize_3-target.png,depth_discrimination_stimuli/001392_2014-06-19_16-07-59_260595134347_rgbf000046-resize_1/001392_2014-06-19_16-07-59_260595134347_rgbf000046-resize_1-target.png,250,3.6445,4.135,1,1165,502,256,620,125,507,meters,,,,,508527,612816,30
127869,DepthScenes,duration_discrimination,discrim_jsons/d0_rotated_dr.json,http://54.197.185.130/DepthDuration/depth_discrimination_MTurk/DepthDiscrim_HTML.html#2,2,1366,625,1366,768,6-9-2021,10-2-29,75,depth_discrimination_stimuli/002663_2014-06-13_15-50-26_094959634447_rgbf000075-resize_1/002663_2014-06-13_15-50-26_094959634447_rgbf000075-resize_1-target.png,depth_discrimination_stimuli/000414_2014-06-04_19-49-13_260595134347_rgbf000044-resize_0/000414_2014-06-04_19-49-13_260595134347_rgbf000044-resize_0-target.png,250,4.7495,4.329,0,1197,502,250,501,252,498,meters,,,,,508527,612816,30
127869,DepthScenes,duration_discrimination,discrim_jsons/d0_rotated_dr.json,http://54.197.185.130/DepthDuration/depth_discrimination_MTurk/DepthDiscrim_HTML.html#2,2,1366,625,1366,768,6-9-2021,10-2-29,76,depth_discrimination_stimuli/001188_2014-06-17_15-54-10_260595134347_rgbf000090-resize_2/001188_2014-06-17_15-54-10_260595134347_rgbf000090-resize_2-target.png,depth_discrimination_stimuli/002750_2014-06-22_19-08-03_094959634447_rgbf000094-resize_4/002750_2014-06-22_19-08-03_094959634447_rgbf000094-resize_4-target.png,1000,2.744,2.354,0,1597,503,1000,504,995,500,meters,,,,,508527,612816,30
127869,DepthScenes,duration_discrimination,discrim_jsons/d0_rotated_dr.json,http://54.197.185.130/DepthDuration/depth_discrimination_MTurk/DepthDiscrim_HTML.html#2,2,1366,625,1366,768,6-9-2021,10-2-29,77,depth_discrimination_stimuli/002678_2014-06-13_16-15-32_094959634447_rgbf000151-resize_6/002678_2014-06-13_16-15-32_094959634447_rgbf000151-resize_6-target.png,depth_discrimination_stimuli/001011_2014-06-08_23-18-54_260595134347_rgbf000044-resize_4/001011_2014-06-08_23-18-54_260595134347_rgbf000044-resize_4-target.png,250,2.183,2.473,0,987,503,254,495,286,467,meters,,,,,508527,612816,30
127869,DepthScenes,duration_discrimination,discrim_jsons/d0_rotated_dr.json,http://54.197.185.130/DepthDuration/depth_discrimination_MTurk/DepthDiscrim_HTML.html#2,2,1366,625,1366,768,6-9-2021,10-2-29,78,depth_discrimination_stimuli/002790_2014-06-22_19-36-35_094959634447_rgbf000074-resize_4/002790_2014-06-22_19-36-35_094959634447_rgbf000074-resize_4-target.png,depth_discrimination_stimuli/001032_2014-06-08_13-23-17_260595134347_rgbf000021-resize_3/001032_2014-06-08_13-23-17_260595134347_rgbf000021-resize_3-target.png,250,3.512,3.2725,0,1309,501,252,498,249,504,meters,,,,,508527,612816,30
127869,DepthScenes,duration_discrimination,discrim_jsons/d0_rotated_dr.json,http://54.197.185.130/DepthDuration/depth_discrimination_MTurk/DepthDiscrim_HTML.html#2,2,1366,625,1366,768,6-9-2021,10-2-29,79,depth_discrimination_stimuli/003492_2014-05-21_15-50-55_094959634447_rgbf000828-resize_1/003492_2014-05-21_15-50-55_094959634447_rgbf000828-resize_1-target.png,depth_discrimination_stimuli/001158_2014-06-17_15-32-16_260595134347_rgbf000138-resize_2/001158_2014-06-17_15-32-16_260595134347_rgbf000138-resize_2-target.png,1000,4.06875,4.5315,0,1681,501,1000,603,1284,181,meters,,,,,508527,612816,30
127869,DepthScenes,duration_discrimination,discrim_jsons/d0_rotated_dr.json,http://54.197.185.130/DepthDuration/depth_discrimination_MTurk/DepthDiscrim_HTML.html#2,2,1366,625,1366,768,6-9-2021,10-2-29,80,depth_discrimination_stimuli/002763_2014-06-22_19-13-10_094959634447_rgbf000075-resize_4/002763_2014-06-22_19-13-10_094959634447_rgbf000075-resize_4-target.png,depth_discrimination_stimuli/001244_2014-06-17_16-47-45_260595134347_rgbf000030-resize_4/001244_2014-06-17_16-47-45_260595134347_rgbf000030-resize_4-target.png,250,1.68375,2.0425,0,1092,507,244,503,270,482,meters,,,,,508527,612816,30
127869,DepthScenes,duration_discrimination,discrim_jsons/d0_rotated_dr.json,http://54.197.185.130/DepthDuration/depth_discrimination_MTurk/DepthDiscrim_HTML.html#2,2,1366,625,1366,768,6-9-2021,10-2-29,81,depth_discrimination_stimuli/002057_2014-06-24_21-00-13_260595134347_rgbf000120-resize_1/002057_2014-06-24_21-00-13_260595134347_rgbf000120-resize_1-target.png,depth_discrimination_stimuli/000505_2014-06-08_23-03-23_260595134347_rgbf000091-resize_0/000505_2014-06-08_23-03-23_260595134347_rgbf000091-resize_0-target.png,250,2.967,3.3105,0,1288,600,165,487,250,499,meters,,,,,508527,612816,30
127869,DepthScenes,duration_discrimination,discrim_jsons/d0_rotated_dr.json,http://54.197.185.130/DepthDuration/depth_discrimination_MTurk/DepthDiscrim_HTML.html#2,2,1366,625,1366,768,6-9-2021,10-2-29,82,depth_discrimination_stimuli/002072_2014-06-24_21-48-06_260595134347_rgbf000115-resize_0/002072_2014-06-24_21-48-06_260595134347_rgbf000115-resize_0-target.png,depth_discrimination_stimuli/001012_2014-06-08_23-19-38_260595134347_rgbf000057-resize_0/001012_2014-06-08_23-19-38_260595134347_rgbf000057-resize_0-target.png,250,4.702,1.38325,0,959,515,238,498,251,542,meters,,,,,508527,612816,30
127869,DepthScenes,duration_discrimination,discrim_jsons/d0_rotated_dr.json,http://54.197.185.130/DepthDuration/depth_discrimination_MTurk/DepthDiscrim_HTML.html#2,2,1366,625,1366,768,6-9-2021,10-2-29,83,depth_discrimination_stimuli/000810_2014-06-08_17-20-01_260595134347_rgbf000105-resize_0/000810_2014-06-08_17-20-01_260595134347_rgbf000105-resize_0-target.png,depth_discrimination_stimuli/000103_2014-05-14_22-01-17_260595134347_rgbf000152-resize_5/000103_2014-05-14_22-01-17_260595134347_rgbf000152-resize_5-target.png,250,1.4865,1.993,1,5627,501,257,496,248,505,meters,,,,,508527,612816,30
127869,DepthScenes,duration_discrimination,discrim_jsons/d0_rotated_dr.json,http://54.197.185.130/DepthDuration/depth_discrimination_MTurk/DepthDiscrim_HTML.html#2,2,1366,625,1366,768,6-9-2021,10-2-29,84,depth_discrimination_stimuli/000109_2014-05-14_23-41-52_260595134347_rgbf000035-resize_9/000109_2014-05-14_23-41-52_260595134347_rgbf000035-resize_9-target.png,depth_discrimination_stimuli/000470_2014-06-09_19-42-40_260595134347_rgbf000094-resize_1/000470_2014-06-09_19-42-40_260595134347_rgbf000094-resize_1-target.png,250,1.3545,1.831,0,772,502,253,499,264,484,meters,,,,,508527,612816,30
127869,DepthScenes,duration_discrimination,discrim_jsons/d0_rotated_dr.json,http://54.197.185.130/DepthDuration/depth_discrimination_MTurk/DepthDiscrim_HTML.html#2,2,1366,625,1366,768,6-9-2021,10-2-29,85,depth_discrimination_stimuli/002675_2014-06-13_16-08-49_094959634447_rgbf000151-resize_2/002675_2014-06-13_16-08-49_094959634447_rgbf000151-resize_2-target.png,depth_discrimination_stimuli/001222_2014-06-17_16-24-06_260595134347_rgbf000073-resize_0/001222_2014-06-17_16-24-06_260595134347_rgbf000073-resize_0-target.png,1000,4.5065,1.4385,1,2099,501,1000,518,981,500,meters,,,,,508527,612816,30
127869,DepthScenes,duration_discrimination,discrim_jsons/d0_rotated_dr.json,http://54.197.185.130/DepthDuration/depth_discrimination_MTurk/DepthDiscrim_HTML.html#2,2,1366,625,1366,768,6-9-2021,10-2-29,86,depth_discrimination_stimuli/002987_2014-06-08_18-48-20_094959634447_rgbf000022-resize_0/002987_2014-06-08_18-48-20_094959634447_rgbf000022-resize_0-target.png,depth_discrimination_stimuli/000502_2014-06-08_23-02-32_260595134347_rgbf000063-resize_4/000502_2014-06-08_23-02-32_260595134347_rgbf000063-resize_4-target.png,250,2.6775,2.431,0,1505,501,250,503,248,499,meters,,,,,508527,612816,30
127869,DepthScenes,duration_discrimination,discrim_jsons/d0_rotated_dr.json,http://54.197.185.130/DepthDuration/depth_discrimination_MTurk/DepthDiscrim_HTML.html#2,2,1366,625,1366,768,6-9-2021,10-2-29,87,depth_discrimination_stimuli/003079_2014-06-15_15-18-20_094959634447_rgbf000152-resize_8/003079_2014-06-15_15-18-20_094959634447_rgbf000152-resize_8-target.png,depth_discrimination_stimuli/001056_2014-06-08_18-46-44_260595134347_rgbf000068-resize_0/001056_2014-06-08_18-46-44_260595134347_rgbf000068-resize_0-target.png,1000,2.8775,2.6625,0,2200,501,1115,389,1053,442,meters,,,,,508527,612816,30
127869,DepthScenes,duration_discrimination,discrim_jsons/d0_rotated_dr.json,http://54.197.185.130/DepthDuration/depth_discrimination_MTurk/DepthDiscrim_HTML.html#2,2,1366,625,1366,768,6-9-2021,10-2-29,88,depth_discrimination_stimuli/001584_2014-06-20_11-07-43_260595134347_rgbf000002-resize_1/001584_2014-06-20_11-07-43_260595134347_rgbf000002-resize_1-target.png,depth_discrimination_stimuli/002570_2014-06-24_13-59-54_094959634447_rgbf000059-resize_0/002570_2014-06-24_13-59-54_094959634447_rgbf000059-resize_0-target.png,1000,3.53,4.037,0,1782,515,996,496,995,500,meters,,,,,508527,612816,30
127869,DepthScenes,duration_discrimination,discrim_jsons/d0_rotated_dr.json,http://54.197.185.130/DepthDuration/depth_discrimination_MTurk/DepthDiscrim_HTML.html#2,2,1366,625,1366,768,6-9-2021,10-2-29,89,depth_discrimination_stimuli/000742_2014-06-08_18-48-09_260595134347_rgbf000164-resize_4/000742_2014-06-08_18-48-09_260595134347_rgbf000164-resize_4-target.png,depth_discrimination_stimuli/000773_2014-06-08_22-24-54_260595134347_rgbf000093-resize_1/000773_2014-06-08_22-24-54_260595134347_rgbf000093-resize_1-target.png,1000,4.632,4.973,0,1560,502,1000,499,1000,532,meters,,,,,508527,612816,30
127869,DepthScenes,duration_discrimination,discrim_jsons/d0_rotated_dr.json,http://54.197.185.130/DepthDuration/depth_discrimination_MTurk/DepthDiscrim_HTML.html#2,2,1366,625,1366,768,6-9-2021,10-2-29,90,depth_discrimination_stimuli/002964_2014-06-08_17-46-11_094959634447_rgbf000091-resize_4/002964_2014-06-08_17-46-11_094959634447_rgbf000091-resize_4-target.png,depth_discrimination_stimuli/000483_2014-06-09_20-41-45_260595134347_rgbf000116-resize_4/000483_2014-06-09_20-41-45_260595134347_rgbf000116-resize_4-target.png,1000,1.691,1.337,0,11879,502,1000,500,1010,495,meters,,,,,508527,612816,30
127869,DepthScenes,duration_discrimination,discrim_jsons/d0_rotated_dr.json,http://54.197.185.130/DepthDuration/depth_discrimination_MTurk/DepthDiscrim_HTML.html#2,2,1366,625,1366,768,6-9-2021,10-2-29,91,depth_discrimination_stimuli/002758_2014-06-22_19-11-20_094959634447_rgbf000128-resize_1/002758_2014-06-22_19-11-20_094959634447_rgbf000128-resize_1-target.png,depth_discrimination_stimuli/000854_2014-06-09_19-43-13_260595134347_rgbf000066-resize_0/000854_2014-06-09_19-43-13_260595134347_rgbf000066-resize_0-target.png,250,2.555,3.068,1,891,509,242,501,249,513,meters,,,,,508527,612816,30
127869,DepthScenes,duration_discrimination,discrim_jsons/d0_rotated_dr.json,http://54.197.185.130/DepthDuration/depth_discrimination_MTurk/DepthDiscrim_HTML.html#2,2,1366,625,1366,768,6-9-2021,10-2-29,92,depth_discrimination_stimuli/002209_2014-06-28_18-36-10_260595134347_rgbf000051-resize_1/002209_2014-06-28_18-36-10_260595134347_rgbf000051-resize_1-target.png,depth_discrimination_stimuli/001055_2014-06-08_18-45-35_260595134347_rgbf000111-resize_4/001055_2014-06-08_18-45-35_260595134347_rgbf000111-resize_4-target.png,1000,2.057,2.429,0,2283,502,1149,354,1060,436,meters,,,,,508527,612816,30
127869,DepthScenes,duration_discrimination,discrim_jsons/d0_rotated_dr.json,http://54.197.185.130/DepthDuration/depth_discrimination_MTurk/DepthDiscrim_HTML.html#2,2,1366,625,1366,768,6-9-2021,10-2-29,93,depth_discrimination_stimuli/001150_2014-06-17_15-27-34_260595134347_rgbf000108-resize_2/001150_2014-06-17_15-27-34_260595134347_rgbf000108-resize_2-target.png,depth_discrimination_stimuli/000677_2014-06-08_23-10-32_260595134347_rgbf000158-resize_6/000677_2014-06-08_23-10-32_260595134347_rgbf000158-resize_6-target.png,1000,4.0325,3.556,0,1759,504,1007,497,994,512,meters,,,,,508527,612816,30
127869,DepthScenes,duration_discrimination,discrim_jsons/d0_rotated_dr.json,http://54.197.185.130/DepthDuration/depth_discrimination_MTurk/DepthDiscrim_HTML.html#2,2,1366,625,1366,768,6-9-2021,10-2-29,94,depth_discrimination_stimuli/001828_2014-06-26_21-40-03_260595134347_rgbf000024-resize_0/001828_2014-06-26_21-40-03_260595134347_rgbf000024-resize_0-target.png,depth_discrimination_stimuli/002414_2014-06-28_20-24-58_260595134347_rgbf000067-resize_4/002414_2014-06-28_20-24-58_260595134347_rgbf000067-resize_4-target.png,250,4.826,4.363,0,982,535,216,510,241,502,meters,,,,,508527,612816,30
127869,DepthScenes,duration_discrimination,discrim_jsons/d0_rotated_dr.json,http://54.197.185.130/DepthDuration/depth_discrimination_MTurk/DepthDiscrim_HTML.html#2,2,1366,625,1366,768,6-9-2021,10-2-29,95,depth_discrimination_stimuli/002905_2014-06-03_18-04-43_094959634447_rgbf000151-resize_2/002905_2014-06-03_18-04-43_094959634447_rgbf000151-resize_2-target.png,depth_discrimination_stimuli/000740_2014-06-08_18-46-23_260595134347_rgbf000049-resize_6/000740_2014-06-08_18-46-23_260595134347_rgbf000049-resize_6-target.png,250,2.0295,1.687,1,1084,502,260,489,254,497,meters,,,,,508527,612816,30
127869,DepthScenes,duration_discrimination,discrim_jsons/d0_rotated_dr.json,http://54.197.185.130/DepthDuration/depth_discrimination_MTurk/DepthDiscrim_HTML.html#2,2,1366,625,1366,768,6-9-2021,10-2-29,96,depth_discrimination_stimuli/002153_2014-06-25_21-27-18_260595134347_rgbf000038-resize_5/002153_2014-06-25_21-27-18_260595134347_rgbf000038-resize_5-target.png,depth_discrimination_stimuli/002725_2014-06-22_11-47-51_094959634447_rgbf000070-resize_1/002725_2014-06-22_11-47-51_094959634447_rgbf000070-resize_1-target.png,250,2.505,2.195,0,1156,503,252,498,248,508,meters,,,,,508527,612816,30
127869,DepthScenes,duration_discrimination,discrim_jsons/d0_rotated_dr.json,http://54.197.185.130/DepthDuration/depth_discrimination_MTurk/DepthDiscrim_HTML.html#2,2,1366,625,1366,768,6-9-2021,10-2-29,96,,,,,,,1156,503,252,498,248,508,meters,,,,,508527,612816,30
127869,DepthScenes,duration_discrimination,discrim_jsons/d0_rotated_dr.json,http://54.197.185.130/DepthDuration/depth_discrimination_MTurk/DepthDiscrim_HTML.html#2,2,1349,625,1366,768,6-9-2021,10-2-29,98,,,,,,,1156,503,252,498,248,508,meters,4,4,depth_discrimination_stimuli/002057_2014-06-24_21-00-13_260595134347_rgbf000120-resize_1/002057_2014-06-24_21-00-13_260595134347_rgbf000120-resize-original.jpg,6485,508527,612816,30
127869,DepthScenes,duration_discrimination,discrim_jsons/d0_rotated_dr.json,http://54.197.185.130/DepthDuration/depth_discrimination_MTurk/DepthDiscrim_HTML.html#2,2,1349,625,1366,768,6-9-2021,10-2-29,99,,,,,,,1156,503,252,498,248,508,meters,5,3,depth_discrimination_stimuli/001532_2014-06-20_16-50-41_260595134347_rgbf000081-resize_4/001532_2014-06-20_16-50-41_260595134347_rgbf000081-resize-original.jpg,4281,508527,612816,30
127869,DepthScenes,duration_discrimination,discrim_jsons/d0_rotated_dr.json,http://54.197.185.130/DepthDuration/depth_discrimination_MTurk/DepthDiscrim_HTML.html#2,2,1349,625,1366,768,6-9-2021,10-2-29,100,,,,,,,1156,503,252,498,248,508,meters,3,4,depth_discrimination_stimuli/002272_2014-06-28_18-53-56_260595134347_rgbf000067-resize_2/002272_2014-06-28_18-53-56_260595134347_rgbf000067-resize-original.jpg,2153,508527,612816,30
127869,DepthScenes,duration_discrimination,discrim_jsons/d0_rotated_dr.json,http://54.197.185.130/DepthDuration/depth_discrimination_MTurk/DepthDiscrim_HTML.html#2,2,1349,625,1366,768,6-9-2021,10-2-29,101,,,,,,,1156,503,252,498,248,508,meters,4,5,depth_discrimination_stimuli/002213_2014-06-28_18-37-58_260595134347_rgbf000055-resize_1/002213_2014-06-28_18-37-58_260595134347_rgbf000055-resize-original.jpg,11401,508527,612816,30
127869,DepthScenes,duration_discrimination,discrim_jsons/d0_rotated_dr.json,http://54.197.185.130/DepthDuration/depth_discrimination_MTurk/DepthDiscrim_HTML.html#2,2,1349,625,1366,768,6-9-2021,10-2-29,102,,,,,,,1156,503,252,498,248,508,meters,4,3,depth_discrimination_stimuli/002103_2014-06-25_20-00-40_260595134347_rgbf000049-resize_0/002103_2014-06-25_20-00-40_260595134347_rgbf000049-resize-original.jpg,1414,508527,612816,30
127869,DepthScenes,duration_discrimination,discrim_jsons/d0_rotated_dr.json,http://54.197.185.130/DepthDuration/depth_discrimination_MTurk/DepthDiscrim_HTML.html#2,2,1349,625,1366,768,6-9-2021,10-2-29,103,,,,,,,1156,503,252,498,248,508,meters,3,3,depth_discrimination_stimuli/001516_2014-06-20_16-25-09_260595134347_rgbf000076-resize_2/001516_2014-06-20_16-25-09_260595134347_rgbf000076-resize-original.jpg,846,508527,612816,30
127869,DepthScenes,duration_discrimination,discrim_jsons/d0_rotated_dr.json,http://54.197.185.130/DepthDuration/depth_discrimination_MTurk/DepthDiscrim_HTML.html#2,2,1349,625,1366,768,6-9-2021,10-2-29,104,,,,,,,1156,503,252,498,248,508,meters,3,3,depth_discrimination_stimuli/001555_2014-06-20_17-12-10_260595134347_rgbf000065-resize_4/001555_2014-06-20_17-12-10_260595134347_rgbf000065-resize-original.jpg,705,508527,612816,30
127869,DepthScenes,duration_discrimination,discrim_jsons/d0_rotated_dr.json,http://54.197.185.130/DepthDuration/depth_discrimination_MTurk/DepthDiscrim_HTML.html#2,2,1349,625,1366,768,6-9-2021,10-2-29,105,,,,,,,1156,503,252,498,248,508,meters,3,3,depth_discrimination_stimuli/001055_2014-06-08_18-45-35_260595134347_rgbf000111-resize_4/001055_2014-06-08_18-45-35_260595134347_rgbf000111-resize-original.jpg,626,508527,612816,30
127869,DepthScenes,duration_discrimination,discrim_jsons/d0_rotated_dr.json,http://54.197.185.130/DepthDuration/depth_discrimination_MTurk/DepthDiscrim_HTML.html#2,2,1349,625,1366,768,6-9-2021,10-2-29,106,,,,,,,1156,503,252,498,248,508,meters,3,3,depth_discrimination_stimuli/002663_2014-06-13_15-50-26_094959634447_rgbf000075-resize_1/002663_2014-06-13_15-50-26_094959634447_rgbf000075-resize-original.jpg,671,508527,612816,30
127869,DepthScenes,duration_discrimination,discrim_jsons/d0_rotated_dr.json,http://54.197.185.130/DepthDuration/depth_discrimination_MTurk/DepthDiscrim_HTML.html#2,2,1349,625,1366,768,6-9-2021,10-2-29,107,,,,,,,1156,503,252,498,248,508,meters,3,3,depth_discrimination_stimuli/000542_2014-06-08_18-27-08_260595134347_rgbf000118-resize_1/000542_2014-06-08_18-27-08_260595134347_rgbf000118-resize-original.jpg,565,508527,612816,30
127869,DepthScenes,duration_discrimination,discrim_jsons/d0_rotated_dr.json,http://54.197.185.130/DepthDuration/depth_discrimination_MTurk/DepthDiscrim_HTML.html#2,2,1349,625,1366,768,6-9-2021,10-2-29,108,,,,,,,1156,503,252,498,248,508,meters,3,3,depth_discrimination_stimuli/002570_2014-06-24_13-59-54_094959634447_rgbf000059-resize_0/002570_2014-06-24_13-59-54_094959634447_rgbf000059-resize-original.jpg,521,508527,612816,30
127869,DepthScenes,duration_discrimination,discrim_jsons/d0_rotated_dr.json,http://54.197.185.130/DepthDuration/depth_discrimination_MTurk/DepthDiscrim_HTML.html#2,2,1349,625,1366,768,6-9-2021,10-2-29,109,,,,,,,1156,503,252,498,248,508,meters,4,5,depth_discrimination_stimuli/000470_2014-06-09_19-42-40_260595134347_rgbf000094-resize_1/000470_2014-06-09_19-42-40_260595134347_rgbf000094-resize-original.jpg,1532,508527,612816,30
127869,DepthScenes,duration_discrimination,discrim_jsons/d0_rotated_dr.json,http://54.197.185.130/DepthDuration/depth_discrimination_MTurk/DepthDiscrim_HTML.html#2,2,1349,625,1366,768,6-9-2021,10-2-29,110,,,,,,,1156,503,252,498,248,508,meters,4,3,depth_discrimination_stimuli/001584_2014-06-20_11-07-43_260595134347_rgbf000002-resize_1/001584_2014-06-20_11-07-43_260595134347_rgbf000002-resize-original.jpg,886,508527,612816,30
127869,DepthScenes,duration_discrimination,discrim_jsons/d0_rotated_dr.json,http://54.197.185.130/DepthDuration/depth_discrimination_MTurk/DepthDiscrim_HTML.html#2,2,1349,625,1366,768,6-9-2021,10-2-29,111,,,,,,,1156,503,252,498,248,508,meters,3,3,depth_discrimination_stimuli/001244_2014-06-17_16-47-45_260595134347_rgbf000030-resize_4/001244_2014-06-17_16-47-45_260595134347_rgbf000030-resize-original.jpg,438,508527,612816,30
127869,DepthScenes,duration_discrimination,discrim_jsons/d0_rotated_dr.json,http://54.197.185.130/DepthDuration/depth_discrimination_MTurk/DepthDiscrim_HTML.html#2,2,1349,625,1366,768,6-9-2021,10-2-29,112,,,,,,,1156,503,252,498,248,508,meters,4,4,depth_discrimination_stimuli/002445_2014-06-28_20-32-16_260595134347_rgbf000029-resize_4/002445_2014-06-28_20-32-16_260595134347_rgbf000029-resize-original.jpg,1013,508527,612816,30
127869,DepthScenes,duration_discrimination,discrim_jsons/d0_rotated_dr.json,http://54.197.185.130/DepthDuration/depth_discrimination_MTurk/DepthDiscrim_HTML.html#2,2,1349,625,1366,768,6-9-2021,10-2-29,113,,,,,,,1156,503,252,498,248,508,meters,4,4,depth_discrimination_stimuli/001650_2014-06-20_12-09-00_260595134347_rgbf000087-resize_3/001650_2014-06-20_12-09-00_260595134347_rgbf000087-resize-original.jpg,973,508527,612816,30
127869,DepthScenes,duration_discrimination,discrim_jsons/d0_rotated_dr.json,http://54.197.185.130/DepthDuration/depth_discrimination_MTurk/DepthDiscrim_HTML.html#2,2,1349,625,1366,768,6-9-2021,10-2-29,114,,,,,,,1156,503,252,498,248,508,meters,4,4,depth_discrimination_stimuli/001052_2014-06-08_18-24-54_260595134347_rgbf000130-resize_1/001052_2014-06-08_18-24-54_260595134347_rgbf000130-resize-original.jpg,127,508527,612816,30
127869,DepthScenes,duration_discrimination,discrim_jsons/d0_rotated_dr.json,http://54.197.185.130/DepthDuration/depth_discrimination_MTurk/DepthDiscrim_HTML.html#2,2,1349,625,1366,768,6-9-2021,10-2-29,115,,,,,,,1156,503,252,498,248,508,meters,4,4,depth_discrimination_stimuli/001011_2014-06-08_23-18-54_260595134347_rgbf000044-resize_4/001011_2014-06-08_23-18-54_260595134347_rgbf000044-resize-original.jpg,610,508527,612816,30
127869,DepthScenes,duration_discrimination,discrim_jsons/d0_rotated_dr.json,http://54.197.185.130/DepthDuration/depth_discrimination_MTurk/DepthDiscrim_HTML.html#2,2,1349,625,1366,768,6-9-2021,10-2-29,116,,,,,,,1156,503,252,498,248,508,meters,4,4,depth_discrimination_stimuli/000780_2014-06-08_22-28-29_260595134347_rgbf000126-resize_1/000780_2014-06-08_22-28-29_260595134347_rgbf000126-resize-original.jpg,526,508527,612816,30
127869,DepthScenes,duration_discrimination,discrim_jsons/d0_rotated_dr.json,http://54.197.185.130/DepthDuration/depth_discrimination_MTurk/DepthDiscrim_HTML.html#2,2,1349,625,1366,768,6-9-2021,10-2-29,117,,,,,,,1156,503,252,498,248,508,meters,3,3,depth_discrimination_stimuli/003423_2014-05-21_10-23-26_094959634447_rgbf002665-resize_2/003423_2014-05-21_10-23-26_094959634447_rgbf002665-resize-original.jpg,770,508527,612816,30
127869,DepthScenes,duration_discrimination,discrim_jsons/d0_rotated_dr.json,http://54.197.185.130/DepthDuration/depth_discrimination_MTurk/DepthDiscrim_HTML.html#2,2,1349,625,1366,768,6-9-2021,10-2-29,118,,,,,,,1156,503,252,498,248,508,meters,3,3,depth_discrimination_stimuli/000103_2014-05-14_22-01-17_260595134347_rgbf000152-resize_5/000103_2014-05-14_22-01-17_260595134347_rgbf000152-resize-original.jpg,828,508527,612816,30
127869,DepthScenes,duration_discrimination,discrim_jsons/d0_rotated_dr.json,http://54.197.185.130/DepthDuration/depth_discrimination_MTurk/DepthDiscrim_HTML.html#2,2,1349,625,1366,768,6-9-2021,10-2-29,119,,,,,,,1156,503,252,498,248,508,meters,4,4,depth_discrimination_stimuli/000555_2014-06-09_22-42-23_260595134347_rgbf000037-resize_4/000555_2014-06-09_22-42-23_260595134347_rgbf000037-resize-original.jpg,240,508527,612816,30
127869,DepthScenes,duration_discrimination,discrim_jsons/d0_rotated_dr.json,http://54.197.185.130/DepthDuration/depth_discrimination_MTurk/DepthDiscrim_HTML.html#2,2,1349,625,1366,768,6-9-2021,10-2-29,120,,,,,,,1156,503,252,498,248,508,meters,4,4,depth_discrimination_stimuli/000691_2014-06-08_13-08-50_260595134347_rgbf000132-resize_3/000691_2014-06-08_13-08-50_260595134347_rgbf000132-resize-original.jpg,507,508527,612816,30
127869,DepthScenes,duration_discrimination,discrim_jsons/d0_rotated_dr.json,http://54.197.185.130/DepthDuration/depth_discrimination_MTurk/DepthDiscrim_HTML.html#2,2,1349,625,1366,768,6-9-2021,10-2-29,121,,,,,,,1156,503,252,498,248,508,meters,4,5,depth_discrimination_stimuli/003079_2014-06-15_15-18-20_094959634447_rgbf000152-resize_8/003079_2014-06-15_15-18-20_094959634447_rgbf000152-resize-original.jpg,768,508527,612816,30
127869,DepthScenes,duration_discrimination,discrim_jsons/d0_rotated_dr.json,http://54.197.185.130/DepthDuration/depth_discrimination_MTurk/DepthDiscrim_HTML.html#2,2,1349,625,1366,768,6-9-2021,10-2-29,122,,,,,,,1156,503,252,498,248,508,meters,3,5,depth_discrimination_stimuli/001815_2014-06-26_20-52-55_260595134347_rgbf000020-resize_0/001815_2014-06-26_20-52-55_260595134347_rgbf000020-resize-original.jpg,1043,508527,612816,30
127869,DepthScenes,duration_discrimination,discrim_jsons/d0_rotated_dr.json,http://54.197.185.130/DepthDuration/depth_discrimination_MTurk/DepthDiscrim_HTML.html#2,2,1349,625,1366,768,6-9-2021,10-2-29,123,,,,,,,1156,503,252,498,248,508,meters,3,5,depth_discrimination_stimuli/003338_2014-05-20_11-01-23_094959634447_rgbf000051-resize_6/003338_2014-05-20_11-01-23_094959634447_rgbf000051-resize-original.jpg,1102,508527,612816,30
127869,DepthScenes,duration_discrimination,discrim_jsons/d0_rotated_dr.json,http://54.197.185.130/DepthDuration/depth_discrimination_MTurk/DepthDiscrim_HTML.html#2,2,1349,625,1366,768,6-9-2021,10-2-29,124,,,,,,,1156,503,252,498,248,508,meters,3,5,depth_discrimination_stimuli/002344_2014-06-28_20-06-29_260595134347_rgbf000030-resize_1/002344_2014-06-28_20-06-29_260595134347_rgbf000030-resize-original.jpg,2097,508527,612816,30
127869,DepthScenes,duration_discrimination,discrim_jsons/d0_rotated_dr.json,http://54.197.185.130/DepthDuration/depth_discrimination_MTurk/DepthDiscrim_HTML.html#2,2,1349,625,1366,768,6-9-2021,10-2-29,125,,,,,,,1156,503,252,498,248,508,meters,5,5,depth_discrimination_stimuli/001214_2014-06-17_16-13-55_260595134347_rgbf000111-resize_0/001214_2014-06-17_16-13-55_260595134347_rgbf000111-resize-original.jpg,708,508527,612816,30
127869,DepthScenes,duration_discrimination,discrim_jsons/d0_rotated_dr.json,http://54.197.185.130/DepthDuration/depth_discrimination_MTurk/DepthDiscrim_HTML.html#2,2,1349,625,1366,768,6-9-2021,10-2-29,126,,,,,,,1156,503,252,498,248,508,meters,4,4,depth_discrimination_stimuli/001132_2014-06-17_14-48-54_260595134347_rgbf000100-resize_2/001132_2014-06-17_14-48-54_260595134347_rgbf000100-resize-original.jpg,430,508527,612816,30
127869,DepthScenes,duration_discrimination,discrim_jsons/d0_rotated_dr.json,http://54.197.185.130/DepthDuration/depth_discrimination_MTurk/DepthDiscrim_HTML.html#2,2,1349,625,1366,768,6-9-2021,10-2-29,127,,,,,,,1156,503,252,498,248,508,meters,3,3,depth_discrimination_stimuli/003495_2014-05-21_16-01-51_094959634447_rgbf000100-resize_3/003495_2014-05-21_16-01-51_094959634447_rgbf000100-resize-original.jpg,510,508527,612816,30
127869,DepthScenes,duration_discrimination,discrim_jsons/d0_rotated_dr.json,http://54.197.185.130/DepthDuration/depth_discrimination_MTurk/DepthDiscrim_HTML.html#2,2,1349,625,1366,768,6-9-2021,10-2-29,128,,,,,,,1156,503,252,498,248,508,meters,3,4,depth_discrimination_stimuli/002995_2014-06-15_12-31-26_094959634447_rgbf000150-resize_1/002995_2014-06-15_12-31-26_094959634447_rgbf000150-resize-original.jpg,557,508527,612816,30
127869,DepthScenes,duration_discrimination,discrim_jsons/d0_rotated_dr.json,http://54.197.185.130/DepthDuration/depth_discrimination_MTurk/DepthDiscrim_HTML.html#2,2,1349,625,1366,768,6-9-2021,10-2-29,129,,,,,,,1156,503,252,498,248,508,meters,4,4,depth_discrimination_stimuli/001100_2014-06-15_17-46-26_260595134347_rgbf000225-resize_2/001100_2014-06-15_17-46-26_260595134347_rgbf000225-resize-original.jpg,560,508527,612816,30
127869,DepthScenes,duration_discrimination,discrim_jsons/d0_rotated_dr.json,http://54.197.185.130/DepthDuration/depth_discrimination_MTurk/DepthDiscrim_HTML.html#2,2,1349,625,1366,768,6-9-2021,10-2-29,130,,,,,,,1156,503,252,498,248,508,meters,5,5,depth_discrimination_stimuli/000800_2014-06-08_22-42-09_260595134347_rgbf000095-resize_3/000800_2014-06-08_22-42-09_260595134347_rgbf000095-resize-original.jpg,782,508527,612816,30
127869,DepthScenes,duration_discrimination,discrim_jsons/d0_rotated_dr.json,http://54.197.185.130/DepthDuration/depth_discrimination_MTurk/DepthDiscrim_HTML.html#2,2,1349,625,1366,768,6-9-2021,10-2-29,131,,,,,,,1156,503,252,498,248,508,meters,5,5,depth_discrimination_stimuli/001392_2014-06-19_16-07-59_260595134347_rgbf000046-resize_1/001392_2014-06-19_16-07-59_260595134347_rgbf000046-resize-original.jpg,472,508527,612816,30
127869,DepthScenes,duration_discrimination,discrim_jsons/d0_rotated_dr.json,http://54.197.185.130/DepthDuration/depth_discrimination_MTurk/DepthDiscrim_HTML.html#2,2,1349,625,1366,768,6-9-2021,10-2-29,132,,,,,,,1156,503,252,498,248,508,meters,5,5,depth_discrimination_stimuli/002375_2014-06-28_20-13-44_260595134347_rgbf000032-resize_1/002375_2014-06-28_20-13-44_260595134347_rgbf000032-resize-original.jpg,436,508527,612816,30
127869,DepthScenes,duration_discrimination,discrim_jsons/d0_rotated_dr.json,http://54.197.185.130/DepthDuration/depth_discrimination_MTurk/DepthDiscrim_HTML.html#2,2,1349,625,1366,768,6-9-2021,10-2-29,133,,,,,,,1156,503,252,498,248,508,meters,5,5,depth_discrimination_stimuli/001447_2014-06-19_17-00-32_260595134347_rgbf000082-resize_5/001447_2014-06-19_17-00-32_260595134347_rgbf000082-resize-original.jpg,446,508527,612816,30
127869,DepthScenes,duration_discrimination,discrim_jsons/d0_rotated_dr.json,http://54.197.185.130/DepthDuration/depth_discrimination_MTurk/DepthDiscrim_HTML.html#2,2,1349,625,1366,768,6-9-2021,10-2-29,134,,,,,,,1156,503,252,498,248,508,meters,5,5,depth_discrimination_stimuli/001133_2014-06-17_14-49-16_260595134347_rgbf000100-resize_0/001133_2014-06-17_14-49-16_260595134347_rgbf000100-resize-original.jpg,383,508527,612816,30
127869,DepthScenes,duration_discrimination,discrim_jsons/d0_rotated_dr.json,http://54.197.185.130/DepthDuration/depth_discrimination_MTurk/DepthDiscrim_HTML.html#2,2,1349,625,1366,768,6-9-2021,10-2-29,135,,,,,,,1156,503,252,498,248,508,meters,2,3,scene_property_catch_stimuli/sun_bpzzatthlcapxzol.jpg,1918,508527,612816,30
127869,DepthScenes,duration_discrimination,discrim_jsons/d0_rotated_dr.json,http://54.197.185.130/DepthDuration/depth_discrimination_MTurk/DepthDiscrim_HTML.html#2,2,1349,625,1366,768,6-9-2021,10-2-29,136,,,,,,,1156,503,252,498,248,508,meters,4,5,depth_discrimination_stimuli/000758_2014-06-08_22-05-08_260595134347_rgbf000085-resize_0/000758_2014-06-08_22-05-08_260595134347_rgbf000085-resize-original.jpg,441,508527,612816,30
127869,DepthScenes,duration_discrimination,discrim_jsons/d0_rotated_dr.json,http://54.197.185.130/DepthDuration/depth_discrimination_MTurk/DepthDiscrim_HTML.html#2,2,1349,625,1366,768,6-9-2021,10-2-29,137,,,,,,,1156,503,252,498,248,508,meters,3,3,depth_discrimination_stimuli/001618_2014-06-20_11-37-31_260595134347_rgbf000027-resize_3/001618_2014-06-20_11-37-31_260595134347_rgbf000027-resize-original.jpg,601,508527,612816,30
127869,DepthScenes,duration_discrimination,discrim_jsons/d0_rotated_dr.json,http://54.197.185.130/DepthDuration/depth_discrimination_MTurk/DepthDiscrim_HTML.html#2,2,1349,625,1366,768,6-9-2021,10-2-29,138,,,,,,,1156,503,252,498,248,508,meters,2,5,depth_discrimination_stimuli/001164_2014-06-17_15-35-46_260595134347_rgbf000085-resize_3/001164_2014-06-17_15-35-46_260595134347_rgbf000085-resize-original.jpg,936,508527,612816,30
127869,DepthScenes,duration_discrimination,discrim_jsons/d0_rotated_dr.json,http://54.197.185.130/DepthDuration/depth_discrimination_MTurk/DepthDiscrim_HTML.html#2,2,1349,625,1366,768,6-9-2021,10-2-29,139,,,,,,,1156,503,252,498,248,508,meters,3,5,depth_discrimination_stimuli/003069_2014-06-15_14-57-50_094959634447_rgbf000150-resize_4/003069_2014-06-15_14-57-50_094959634447_rgbf000150-resize-original.jpg,1373,508527,612816,30
127869,DepthScenes,duration_discrimination,discrim_jsons/d0_rotated_dr.json,http://54.197.185.130/DepthDuration/depth_discrimination_MTurk/DepthDiscrim_HTML.html#2,2,1349,625,1366,768,6-9-2021,10-2-29,140,,,,,,,1156,503,252,498,248,508,meters,4,2,depth_discrimination_stimuli/000522_2014-06-08_13-35-06_260595134347_rgbf000244-resize_1/000522_2014-06-08_13-35-06_260595134347_rgbf000244-resize-original.jpg,1239,508527,612816,30
127869,DepthScenes,duration_discrimination,discrim_jsons/d0_rotated_dr.json,http://54.197.185.130/DepthDuration/depth_discrimination_MTurk/DepthDiscrim_HTML.html#2,2,1349,625,1366,768,6-9-2021,10-2-29,141,,,,,,,1156,503,252,498,248,508,meters,3,5,scene_property_catch_stimuli/000675_2014-06-08_22-59-18_260595134347_rgbf000096-resize.jpg,1782,508527,612816,30
127869,DepthScenes,duration_discrimination,discrim_jsons/d0_rotated_dr.json,http://54.197.185.130/DepthDuration/depth_discrimination_MTurk/DepthDiscrim_HTML.html#2,2,1349,625,1366,768,6-9-2021,10-2-29,142,,,,,,,1156,503,252,498,248,508,meters,2,3,depth_discrimination_stimuli/001110_2014-06-15_17-25-28_260595134347_rgbf000150-resize_1/001110_2014-06-15_17-25-28_260595134347_rgbf000150-resize-original.jpg,1164,508527,612816,30
127869,DepthScenes,duration_discrimination,discrim_jsons/d0_rotated_dr.json,http://54.197.185.130/DepthDuration/depth_discrimination_MTurk/DepthDiscrim_HTML.html#2,2,1349,625,1366,768,6-9-2021,10-2-29,143,,,,,,,1156,503,252,498,248,508,meters,4,5,depth_discrimination_stimuli/002784_2014-06-22_19-26-30_094959634447_rgbf000083-resize_3/002784_2014-06-22_19-26-30_094959634447_rgbf000083-resize-original.jpg,768,508527,612816,30
127869,DepthScenes,duration_discrimination,discrim_jsons/d0_rotated_dr.json,http://54.197.185.130/DepthDuration/depth_discrimination_MTurk/DepthDiscrim_HTML.html#2,2,1349,625,1366,768,6-9-2021,10-2-29,144,,,,,,,1156,503,252,498,248,508,meters,3,4,depth_discrimination_stimuli/000486_2014-06-09_20-47-20_260595134347_rgbf000143-resize_2/000486_2014-06-09_20-47-20_260595134347_rgbf000143-resize-original.jpg,961,508527,612816,30
127869,DepthScenes,duration_discrimination,discrim_jsons/d0_rotated_dr.json,http://54.197.185.130/DepthDuration/depth_discrimination_MTurk/DepthDiscrim_HTML.html#2,2,1349,625,1366,768,6-9-2021,10-2-29,145,,,,,,,1156,503,252,498,248,508,meters,5,5,depth_discrimination_stimuli/001188_2014-06-17_15-54-10_260595134347_rgbf000090-resize_2/001188_2014-06-17_15-54-10_260595134347_rgbf000090-resize-original.jpg,719,508527,612816,30
127869,DepthScenes,duration_discrimination,discrim_jsons/d0_rotated_dr.json,http://54.197.185.130/DepthDuration/depth_discrimination_MTurk/DepthDiscrim_HTML.html#2,2,1349,625,1366,768,6-9-2021,10-2-29,146,,,,,,,1156,503,252,498,248,508,meters,4,2,depth_discrimination_stimuli/000943_2014-06-09_19-31-07_260595134347_rgbf000128-resize_1/000943_2014-06-09_19-31-07_260595134347_rgbf000128-resize-original.jpg,492,508527,612816,30
127869,DepthScenes,duration_discrimination,discrim_jsons/d0_rotated_dr.json,http://54.197.185.130/DepthDuration/depth_discrimination_MTurk/DepthDiscrim_HTML.html#2,2,1349,625,1366,768,6-9-2021,10-2-29,147,,,,,,,1156,503,252,498,248,508,meters,2,4,depth_discrimination_stimuli/000436_2014-06-09_22-25-11_260595134347_rgbf000137-resize_1/000436_2014-06-09_22-25-11_260595134347_rgbf000137-resize-original.jpg,1178,508527,612816,30
127869,DepthScenes,duration_discrimination,discrim_jsons/d0_rotated_dr.json,http://54.197.185.130/DepthDuration/depth_discrimination_MTurk/DepthDiscrim_HTML.html#2,2,1349,625,1366,768,6-9-2021,10-2-29,148,,,,,,,1156,503,252,498,248,508,meters,5,1,depth_discrimination_stimuli/001059_2014-06-08_21-53-27_260595134347_rgbf000061-resize_4/001059_2014-06-08_21-53-27_260595134347_rgbf000061-resize-original.jpg,1660,508527,612816,30
127869,DepthScenes,duration_discrimination,discrim_jsons/d0_rotated_dr.json,http://54.197.185.130/DepthDuration/depth_discrimination_MTurk/DepthDiscrim_HTML.html#2,2,1349,625,1366,768,6-9-2021,10-2-29,149,,,,,,,1156,503,252,498,248,508,meters,3,5,depth_discrimination_stimuli/002639_2014-06-24_14-51-37_094959634447_rgbf000074-resize_4/002639_2014-06-24_14-51-37_094959634447_rgbf000074-resize-original.jpg,196,508527,612816,30
127869,DepthScenes,duration_discrimination,discrim_jsons/d0_rotated_dr.json,http://54.197.185.130/DepthDuration/depth_discrimination_MTurk/DepthDiscrim_HTML.html#2,2,1349,625,1366,768,6-9-2021,10-2-29,150,,,,,,,1156,503,252,498,248,508,meters,5,4,depth_discrimination_stimuli/002444_2014-06-28_20-32-08_260595134347_rgbf000027-resize_0/002444_2014-06-28_20-32-08_260595134347_rgbf000027-resize-original.jpg,399,508527,612816,30
127869,DepthScenes,duration_discrimination,discrim_jsons/d0_rotated_dr.json,http://54.197.185.130/DepthDuration/depth_discrimination_MTurk/DepthDiscrim_HTML.html#2,2,1349,625,1366,768,6-9-2021,10-2-29,151,,,,,,,1156,503,252,498,248,508,meters,4,2,depth_discrimination_stimuli/001571_2014-06-20_17-21-32_260595134347_rgbf000089-resize_1/001571_2014-06-20_17-21-32_260595134347_rgbf000089-resize-original.jpg,1148,508527,612816,30
127869,DepthScenes,duration_discrimination,discrim_jsons/d0_rotated_dr.json,http://54.197.185.130/DepthDuration/depth_discrimination_MTurk/DepthDiscrim_HTML.html#2,2,1349,625,1366,768,6-9-2021,10-2-29,152,,,,,,,1156,503,252,498,248,508,meters,2,5,depth_discrimination_stimuli/001449_2014-06-19_17-01-27_260595134347_rgbf000116-resize_2/001449_2014-06-19_17-01-27_260595134347_rgbf000116-resize-original.jpg,1239,508527,612816,30
127869,DepthScenes,duration_discrimination,discrim_jsons/d0_rotated_dr.json,http://54.197.185.130/DepthDuration/depth_discrimination_MTurk/DepthDiscrim_HTML.html#2,2,1349,625,1366,768,6-9-2021,10-2-29,153,,,,,,,1156,503,252,498,248,508,meters,5,4,depth_discrimination_stimuli/000869_2014-06-09_20-50-18_260595134347_rgbf000060-resize_3/000869_2014-06-09_20-50-18_260595134347_rgbf000060-resize-original.jpg,635,508527,612816,30
127869,DepthScenes,duration_discrimination,discrim_jsons/d0_rotated_dr.json,http://54.197.185.130/DepthDuration/depth_discrimination_MTurk/DepthDiscrim_HTML.html#2,2,1349,625,1366,768,6-9-2021,10-2-29,154,,,,,,,1156,503,252,498,248,508,meters,2,2,depth_discrimination_stimuli/000830_2014-06-04_19-49-31_260595134347_rgbf000096-resize_2/000830_2014-06-04_19-49-31_260595134347_rgbf000096-resize-original.jpg,955,508527,612816,30
127869,DepthScenes,duration_discrimination,discrim_jsons/d0_rotated_dr.json,http://54.197.185.130/DepthDuration/depth_discrimination_MTurk/DepthDiscrim_HTML.html#2,2,1349,625,1366,768,6-9-2021,10-2-29,155,,,,,,,1156,503,252,498,248,508,meters,2,5,depth_discrimination_stimuli/000736_2014-06-08_18-24-15_260595134347_rgbf000206-resize_3/000736_2014-06-08_18-24-15_260595134347_rgbf000206-resize-original.jpg,4909,508527,612816,30
127869,DepthScenes,duration_discrimination,discrim_jsons/d0_rotated_dr.json,http://54.197.185.130/DepthDuration/depth_discrimination_MTurk/DepthDiscrim_HTML.html#2,2,1349,625,1366,768,6-9-2021,10-2-29,156,,,,,,,1156,503,252,498,248,508,meters,3,4,depth_discrimination_stimuli/001094_2014-06-15_17-36-00_260595134347_rgbf000205-resize_0/001094_2014-06-15_17-36-00_260595134347_rgbf000205-resize-original.jpg,607,508527,612816,30
127869,DepthScenes,duration_discrimination,discrim_jsons/d0_rotated_dr.json,http://54.197.185.130/DepthDuration/depth_discrimination_MTurk/DepthDiscrim_HTML.html#2,2,1349,625,1366,768,6-9-2021,10-2-29,157,,,,,,,1156,503,252,498,248,508,meters,2,2,depth_discrimination_stimuli/003129_2014-05-12_10-48-10_094959634447_rgbf000100-resize_0/003129_2014-05-12_10-48-10_094959634447_rgbf000100-resize-original.jpg,593,508527,612816,30
127869,DepthScenes,duration_discrimination,discrim_jsons/d0_rotated_dr.json,http://54.197.185.130/DepthDuration/depth_discrimination_MTurk/DepthDiscrim_HTML.html#2,2,1349,625,1366,768,6-9-2021,10-2-29,158,,,,,,,1156,503,252,498,248,508,meters,2,5,depth_discrimination_stimuli/002790_2014-06-22_19-36-35_094959634447_rgbf000074-resize_4/002790_2014-06-22_19-36-35_094959634447_rgbf000074-resize-original.jpg,1270,508527,612816,30
127869,DepthScenes,duration_discrimination,discrim_jsons/d0_rotated_dr.json,http://54.197.185.130/DepthDuration/depth_discrimination_MTurk/DepthDiscrim_HTML.html#2,2,1349,625,1366,768,6-9-2021,10-2-29,159,,,,,,,1156,503,252,498,248,508,meters,5,3,depth_discrimination_stimuli/000866_2014-06-09_20-45-42_260595134347_rgbf000139-resize_1/000866_2014-06-09_20-45-42_260595134347_rgbf000139-resize-original.jpg,653,508527,612816,30
127869,DepthScenes,duration_discrimination,discrim_jsons/d0_rotated_dr.json,http://54.197.185.130/DepthDuration/depth_discrimination_MTurk/DepthDiscrim_HTML.html#2,2,1349,625,1366,768,6-9-2021,10-2-29,160,,,,,,,1156,503,252,498,248,508,meters,2,2,depth_discrimination_stimuli/002131_2014-06-25_21-12-01_260595134347_rgbf000083-resize_0/002131_2014-06-25_21-12-01_260595134347_rgbf000083-resize-original.jpg,584,508527,612816,30
127869,DepthScenes,duration_discrimination,discrim_jsons/d0_rotated_dr.json,http://54.197.185.130/DepthDuration/depth_discrimination_MTurk/DepthDiscrim_HTML.html#2,2,1349,625,1366,768,6-9-2021,10-2-29,161,,,,,,,1156,503,252,498,248,508,meters,2,2,depth_discrimination_stimuli/001235_2014-06-17_16-37-36_260595134347_rgbf000084-resize_4/001235_2014-06-17_16-37-36_260595134347_rgbf000084-resize-original.jpg,535,508527,612816,30
127869,DepthScenes,duration_discrimination,discrim_jsons/d0_rotated_dr.json,http://54.197.185.130/DepthDuration/depth_discrimination_MTurk/DepthDiscrim_HTML.html#2,2,1349,625,1366,768,6-9-2021,10-2-29,162,,,,,,,1156,503,252,498,248,508,meters,3,3,depth_discrimination_stimuli/000636_2014-06-08_16-39-02_260595134347_rgbf000108-resize_4/000636_2014-06-08_16-39-02_260595134347_rgbf000108-resize-original.jpg,597,508527,612816,30
127869,DepthScenes,duration_discrimination,discrim_jsons/d0_rotated_dr.json,http://54.197.185.130/DepthDuration/depth_discrimination_MTurk/DepthDiscrim_HTML.html#2,2,1349,625,1366,768,6-9-2021,10-2-29,163,,,,,,,1156,503,252,498,248,508,meters,4,5,depth_discrimination_stimuli/000469_2014-06-09_19-42-10_260595134347_rgbf000081-resize_1/000469_2014-06-09_19-42-10_260595134347_rgbf000081-resize-original.jpg,607,508527,612816,30
127869,DepthScenes,duration_discrimination,discrim_jsons/d0_rotated_dr.json,http://54.197.185.130/DepthDuration/depth_discrimination_MTurk/DepthDiscrim_HTML.html#2,2,1349,625,1366,768,6-9-2021,10-2-29,164,,,,,,,1156,503,252,498,248,508,meters,4,2,depth_discrimination_stimuli/000665_2014-06-09_20-42-35_260595134347_rgbf000110-resize_1/000665_2014-06-09_20-42-35_260595134347_rgbf000110-resize-original.jpg,815,508527,612816,30
127869,DepthScenes,duration_discrimination,discrim_jsons/d0_rotated_dr.json,http://54.197.185.130/DepthDuration/depth_discrimination_MTurk/DepthDiscrim_HTML.html#2,2,1349,625,1366,768,6-9-2021,10-2-29,165,,,,,,,1156,503,252,498,248,508,meters,3,5,depth_discrimination_stimuli/000742_2014-06-08_18-48-09_260595134347_rgbf000164-resize_4/000742_2014-06-08_18-48-09_260595134347_rgbf000164-resize-original.jpg,899,508527,612816,30
127869,DepthScenes,duration_discrimination,discrim_jsons/d0_rotated_dr.json,http://54.197.185.130/DepthDuration/depth_discrimination_MTurk/DepthDiscrim_HTML.html#2,2,1349,625,1366,768,6-9-2021,10-2-29,166,,,,,,,1156,503,252,498,248,508,meters,4,3,depth_discrimination_stimuli/003081_2014-06-15_15-19-16_094959634447_rgbf000150-resize_1/003081_2014-06-15_15-19-16_094959634447_rgbf000150-resize-original.jpg,1051,508527,612816,30
127869,DepthScenes,duration_discrimination,discrim_jsons/d0_rotated_dr.json,http://54.197.185.130/DepthDuration/depth_discrimination_MTurk/DepthDiscrim_HTML.html#2,2,1349,625,1366,768,6-9-2021,10-2-29,167,,,,,,,1156,503,252,498,248,508,meters,3,2,depth_discrimination_stimuli/002949_2014-06-26_15-57-42_094959634447_rgbf000079-resize_1/002949_2014-06-26_15-57-42_094959634447_rgbf000079-resize-original.jpg,264,508527,612816,30
127869,DepthScenes,duration_discrimination,discrim_jsons/d0_rotated_dr.json,http://54.197.185.130/DepthDuration/depth_discrimination_MTurk/DepthDiscrim_HTML.html#2,2,1349,625,1366,768,6-9-2021,10-2-29,168,,,,,,,1156,503,252,498,248,508,meters,2,2,depth_discrimination_stimuli/001808_2014-06-26_20-50-58_260595134347_rgbf000029-resize_1/001808_2014-06-26_20-50-58_260595134347_rgbf000029-resize-original.jpg,506,508527,612816,30
127869,DepthScenes,duration_discrimination,discrim_jsons/d0_rotated_dr.json,http://54.197.185.130/DepthDuration/depth_discrimination_MTurk/DepthDiscrim_HTML.html#2,2,1349,625,1366,768,6-9-2021,10-2-29,169,,,,,,,1156,503,252,498,248,508,meters,2,2,depth_discrimination_stimuli/000642_2014-06-08_16-59-25_260595134347_rgbf000098-resize_2/000642_2014-06-08_16-59-25_260595134347_rgbf000098-resize-original.jpg,635,508527,612816,30
127869,DepthScenes,duration_discrimination,discrim_jsons/d0_rotated_dr.json,http://54.197.185.130/DepthDuration/depth_discrimination_MTurk/DepthDiscrim_HTML.html#2,2,1349,625,1366,768,6-9-2021,10-2-29,170,,,,,,,1156,503,252,498,248,508,meters,2,2,depth_discrimination_stimuli/000740_2014-06-08_18-46-23_260595134347_rgbf000049-resize_6/000740_2014-06-08_18-46-23_260595134347_rgbf000049-resize-original.jpg,563,508527,612816,30
127869,DepthScenes,duration_discrimination,discrim_jsons/d0_rotated_dr.json,http://54.197.185.130/DepthDuration/depth_discrimination_MTurk/DepthDiscrim_HTML.html#2,2,1349,625,1366,768,6-9-2021,10-2-29,171,,,,,,,1156,503,252,498,248,508,meters,2,2,depth_discrimination_stimuli/002549_2014-06-24_13-41-39_094959634447_rgbf000022-resize_3/002549_2014-06-24_13-41-39_094959634447_rgbf000022-resize-original.jpg,577,508527,612816,30
127869,DepthScenes,duration_discrimination,discrim_jsons/d0_rotated_dr.json,http://54.197.185.130/DepthDuration/depth_discrimination_MTurk/DepthDiscrim_HTML.html#2,2,1349,625,1366,768,6-9-2021,10-2-29,172,,,,,,,1156,503,252,498,248,508,meters,3,5,depth_discrimination_stimuli/001092_2014-06-15_17-34-58_260595134347_rgbf000171-resize_3/001092_2014-06-15_17-34-58_260595134347_rgbf000171-resize-original.jpg,629,508527,612816,30
127869,DepthScenes,duration_discrimination,discrim_jsons/d0_rotated_dr.json,http://54.197.185.130/DepthDuration/depth_discrimination_MTurk/DepthDiscrim_HTML.html#2,2,1349,625,1366,768,6-9-2021,10-2-29,173,,,,,,,1156,503,252,498,248,508,meters,3,4,depth_discrimination_stimuli/000505_2014-06-08_23-03-23_260595134347_rgbf000091-resize_0/000505_2014-06-08_23-03-23_260595134347_rgbf000091-resize-original.jpg,1176,508527,612816,30
127869,DepthScenes,duration_discrimination,discrim_jsons/d0_rotated_dr.json,http://54.197.185.130/DepthDuration/depth_discrimination_MTurk/DepthDiscrim_HTML.html#2,2,1349,625,1366,768,6-9-2021,10-2-29,174,,,,,,,1156,503,252,498,248,508,meters,5,3,depth_discrimination_stimuli/002509_2014-06-24_13-19-22_094959634447_rgbf000077-resize_0/002509_2014-06-24_13-19-22_094959634447_rgbf000077-resize-original.jpg,164,508527,612816,30
127869,DepthScenes,duration_discrimination,discrim_jsons/d0_rotated_dr.json,http://54.197.185.130/DepthDuration/depth_discrimination_MTurk/DepthDiscrim_HTML.html#2,2,1349,625,1366,768,6-9-2021,10-2-29,175,,,,,,,1156,503,252,498,248,508,meters,5,5,depth_discrimination_stimuli/001450_2014-06-19_17-02-03_260595134347_rgbf000203-resize_4/001450_2014-06-19_17-02-03_260595134347_rgbf000203-resize-original.jpg,489,508527,612816,30
127869,DepthScenes,duration_discrimination,discrim_jsons/d0_rotated_dr.json,http://54.197.185.130/DepthDuration/depth_discrimination_MTurk/DepthDiscrim_HTML.html#2,2,1349,625,1366,768,6-9-2021,10-2-29,176,,,,,,,1156,503,252,498,248,508,meters,3,4,depth_discrimination_stimuli/002460_2014-06-28_20-35-43_260595134347_rgbf000028-resize_4/002460_2014-06-28_20-35-43_260595134347_rgbf000028-resize-original.jpg,1089,508527,612816,30
127869,DepthScenes,duration_discrimination,discrim_jsons/d0_rotated_dr.json,http://54.197.185.130/DepthDuration/depth_discrimination_MTurk/DepthDiscrim_HTML.html#2,2,1349,625,1366,768,6-9-2021,10-2-29,177,,,,,,,1156,503,252,498,248,508,meters,2,2,depth_discrimination_stimuli/001828_2014-06-26_21-40-03_260595134347_rgbf000024-resize_0/001828_2014-06-26_21-40-03_260595134347_rgbf000024-resize-original.jpg,488,508527,612816,30
127869,DepthScenes,duration_discrimination,discrim_jsons/d0_rotated_dr.json,http://54.197.185.130/DepthDuration/depth_discrimination_MTurk/DepthDiscrim_HTML.html#2,2,1349,625,1366,768,6-9-2021,10-2-29,178,,,,,,,1156,503,252,498,248,508,meters,3,3,depth_discrimination_stimuli/003621_2014-05-23_18-06-08_094959634447_rgbf000101-resize_1/003621_2014-05-23_18-06-08_094959634447_rgbf000101-resize-original.jpg,889,508527,612816,30
127869,DepthScenes,duration_discrimination,discrim_jsons/d0_rotated_dr.json,http://54.197.185.130/DepthDuration/depth_discrimination_MTurk/DepthDiscrim_HTML.html#2,2,1349,625,1366,768,6-9-2021,10-2-29,179,,,,,,,1156,503,252,498,248,508,meters,2,5,scene_property_catch_stimuli/sun_aatxlublfjchvvzu.jpg,1126,508527,612816,30
127869,DepthScenes,duration_discrimination,discrim_jsons/d0_rotated_dr.json,http://54.197.185.130/DepthDuration/depth_discrimination_MTurk/DepthDiscrim_HTML.html#2,2,1349,625,1366,768,6-9-2021,10-2-29,180,,,,,,,1156,503,252,498,248,508,meters,4,3,depth_discrimination_stimuli/002748_2014-06-22_19-07-22_094959634447_rgbf000078-resize_1/002748_2014-06-22_19-07-22_094959634447_rgbf000078-resize-original.jpg,683,508527,612816,30
127869,DepthScenes,duration_discrimination,discrim_jsons/d0_rotated_dr.json,http://54.197.185.130/DepthDuration/depth_discrimination_MTurk/DepthDiscrim_HTML.html#2,2,1349,625,1366,768,6-9-2021,10-2-29,181,,,,,,,1156,503,252,498,248,508,meters,4,5,depth_discrimination_stimuli/000493_2014-06-09_21-01-18_260595134347_rgbf000196-resize_3/000493_2014-06-09_21-01-18_260595134347_rgbf000196-resize-original.jpg,574,508527,612816,30
127869,DepthScenes,duration_discrimination,discrim_jsons/d0_rotated_dr.json,http://54.197.185.130/DepthDuration/depth_discrimination_MTurk/DepthDiscrim_HTML.html#2,2,1349,625,1366,768,6-9-2021,10-2-29,182,,,,,,,1156,503,252,498,248,508,meters,3,5,depth_discrimination_stimuli/000810_2014-06-08_17-20-01_260595134347_rgbf000105-resize_0/000810_2014-06-08_17-20-01_260595134347_rgbf000105-resize-original.jpg,1151,508527,612816,30
127869,DepthScenes,duration_discrimination,discrim_jsons/d0_rotated_dr.json,http://54.197.185.130/DepthDuration/depth_discrimination_MTurk/DepthDiscrim_HTML.html#2,2,1349,625,1366,768,6-9-2021,10-2-29,183,,,,,,,1156,503,252,498,248,508,meters,4,3,depth_discrimination_stimuli/000137_2014-05-20_17-04-49_260595134347_rgbf000120-resize_1/000137_2014-05-20_17-04-49_260595134347_rgbf000120-resize-original.jpg,879,508527,612816,30
127869,DepthScenes,duration_discrimination,discrim_jsons/d0_rotated_dr.json,http://54.197.185.130/DepthDuration/depth_discrimination_MTurk/DepthDiscrim_HTML.html#2,2,1349,625,1366,768,6-9-2021,10-2-29,184,,,,,,,1156,503,252,498,248,508,meters,3,3,depth_discrimination_stimuli/002600_2014-06-24_14-27-04_094959634447_rgbf000074-resize_2/002600_2014-06-24_14-27-04_094959634447_rgbf000074-resize-original.jpg,295,508527,612816,30
127869,DepthScenes,duration_discrimination,discrim_jsons/d0_rotated_dr.json,http://54.197.185.130/DepthDuration/depth_discrimination_MTurk/DepthDiscrim_HTML.html#2,2,1349,625,1366,768,6-9-2021,10-2-29,185,,,,,,,1156,503,252,498,248,508,meters,3,2,depth_discrimination_stimuli/001016_2014-06-09_16-16-10_260595134347_rgbf000112-resize_5/001016_2014-06-09_16-16-10_260595134347_rgbf000112-resize-original.jpg,773,508527,612816,30
127869,DepthScenes,duration_discrimination,discrim_jsons/d0_rotated_dr.json,http://54.197.185.130/DepthDuration/depth_discrimination_MTurk/DepthDiscrim_HTML.html#2,2,1349,625,1366,768,6-9-2021,10-2-29,186,,,,,,,1156,503,252,498,248,508,meters,4,4,depth_discrimination_stimuli/003546_2014-05-22_15-48-53_094959634447_rgbf004816-resize_3/003546_2014-05-22_15-48-53_094959634447_rgbf004816-resize-original.jpg,564,508527,612816,30
127869,DepthScenes,duration_discrimination,discrim_jsons/d0_rotated_dr.json,http://54.197.185.130/DepthDuration/depth_discrimination_MTurk/DepthDiscrim_HTML.html#2,2,1349,625,1366,768,6-9-2021,10-2-29,187,,,,,,,1156,503,252,498,248,508,meters,5,4,depth_discrimination_stimuli/000917_2014-06-09_22-45-29_260595134347_rgbf000149-resize_3/000917_2014-06-09_22-45-29_260595134347_rgbf000149-resize-original.jpg,363,508527,612816,30
127869,DepthScenes,duration_discrimination,discrim_jsons/d0_rotated_dr.json,http://54.197.185.130/DepthDuration/depth_discrimination_MTurk/DepthDiscrim_HTML.html#2,2,1349,625,1366,768,6-9-2021,10-2-29,188,,,,,,,1156,503,252,498,248,508,meters,4,3,depth_discrimination_stimuli/000549_2014-06-08_22-10-24_260595134347_rgbf000247-resize_3/000549_2014-06-08_22-10-24_260595134347_rgbf000247-resize-original.jpg,529,508527,612816,30
127869,DepthScenes,duration_discrimination,discrim_jsons/d0_rotated_dr.json,http://54.197.185.130/DepthDuration/depth_discrimination_MTurk/DepthDiscrim_HTML.html#2,2,1349,625,1366,768,6-9-2021,10-2-29,189,,,,,,,1156,503,252,498,248,508,meters,5,5,depth_discrimination_stimuli/001136_2014-06-17_15-19-41_260595134347_rgbf000076-resize_3/001136_2014-06-17_15-19-41_260595134347_rgbf000076-resize-original.jpg,1319,508527,612816,30
127869,DepthScenes,duration_discrimination,discrim_jsons/d0_rotated_dr.json,http://54.197.185.130/DepthDuration/depth_discrimination_MTurk/DepthDiscrim_HTML.html#2,2,1349,625,1366,768,6-9-2021,10-2-29,190,,,,,,,1156,503,252,498,248,508,meters,3,3,depth_discrimination_stimuli/001810_2014-06-26_20-51-35_260595134347_rgbf000040-resize_3/001810_2014-06-26_20-51-35_260595134347_rgbf000040-resize-original.jpg,859,508527,612816,30
127869,DepthScenes,duration_discrimination,discrim_jsons/d0_rotated_dr.json,http://54.197.185.130/DepthDuration/depth_discrimination_MTurk/DepthDiscrim_HTML.html#2,2,1349,625,1366,768,6-9-2021,10-2-29,191,,,,,,,1156,503,252,498,248,508,meters,3,3,depth_discrimination_stimuli/000854_2014-06-09_19-43-13_260595134347_rgbf000066-resize_0/000854_2014-06-09_19-43-13_260595134347_rgbf000066-resize-original.jpg,738,508527,612816,30
127869,DepthScenes,duration_discrimination,discrim_jsons/d0_rotated_dr.json,http://54.197.185.130/DepthDuration/depth_discrimination_MTurk/DepthDiscrim_HTML.html#2,2,1349,625,1366,768,6-9-2021,10-2-29,192,,,,,,,1156,503,252,498,248,508,meters,5,5,depth_discrimination_stimuli/001197_2014-06-17_16-01-50_260595134347_rgbf000103-resize_4/001197_2014-06-17_16-01-50_260595134347_rgbf000103-resize-original.jpg,2835,508527,612816,30
127869,DepthScenes,duration_discrimination,discrim_jsons/d0_rotated_dr.json,http://54.197.185.130/DepthDuration/depth_discrimination_MTurk/DepthDiscrim_HTML.html#2,2,1349,625,1366,768,6-9-2021,10-2-29,193,,,,,,,1156,503,252,498,248,508,meters,5,4,depth_discrimination_stimuli/003492_2014-05-21_15-50-55_094959634447_rgbf000828-resize_1/003492_2014-05-21_15-50-55_094959634447_rgbf000828-resize-original.jpg,621,508527,612816,30
127869,DepthScenes,duration_discrimination,discrim_jsons/d0_rotated_dr.json,http://54.197.185.130/DepthDuration/depth_discrimination_MTurk/DepthDiscrim_HTML.html#2,2,1349,625,1366,768,6-9-2021,10-2-29,194,,,,,,,1156,503,252,498,248,508,meters,2,2,depth_discrimination_stimuli/000878_2014-06-08_22-52-45_260595134347_rgbf000045-resize_2/000878_2014-06-08_22-52-45_260595134347_rgbf000045-resize-original.jpg,1037,508527,612816,30
127869,DepthScenes,duration_discrimination,discrim_jsons/d0_rotated_dr.json,http://54.197.185.130/DepthDuration/depth_discrimination_MTurk/DepthDiscrim_HTML.html#2,2,1349,625,1366,768,6-9-2021,10-2-29,195,,,,,,,1156,503,252,498,248,508,meters,3,2,depth_discrimination_stimuli/001158_2014-06-17_15-32-16_260595134347_rgbf000138-resize_2/001158_2014-06-17_15-32-16_260595134347_rgbf000138-resize-original.jpg,270,508527,612816,30
