subjID,experimentName,versionName,sequenceName,url,selected_row,windowWidth,windowHeight,screenWidth,screenHeight,startDate,startTime,trial,stimulus_0,stimulus_1,duration,actual_depth_0,actual_depth_1,discrim_choice,trial_RT,log_fixation,log_sceneDuration1,log_mask1,log_sceneDuration2,log_mask2,unitSelection,meanDepth_rating,navigability_rating,rated_stimulus,rating_RT,experimentTime,totalTime,age
376303,DepthScenes,duration_discrimination,discrim_jsons/d0.json,http://54.197.185.130/DepthDuration/depth_discrimination_MTurk/DepthDiscrim_HTML.html#4,4,1366,768,1366,768,6-9-2021,8-39-25,1,depth_discrimination_stimuli/002444_2014-06-28_20-32-08_260595134347_rgbf000027-resize_0/002444_2014-06-28_20-32-08_260595134347_rgbf000027-resize_0-target.png,depth_discrimination_stimuli/003048_2014-06-15_13-49-43_094959634447_rgbf000150-resize_1/003048_2014-06-15_13-49-43_094959634447_rgbf000150-resize_1-target.png,1000,4.389,4.0035,1,3793,517,995,497,1001,491,feet,,,,,1288314,1415513,49
376303,DepthScenes,duration_discrimination,discrim_jsons/d0.json,http://54.197.185.130/DepthDuration/depth_discrimination_MTurk/DepthDiscrim_HTML.html#4,4,1366,768,1366,768,6-9-2021,8-39-25,2,depth_discrimination_stimuli/000469_2014-06-09_19-42-10_260595134347_rgbf000081-resize_1/000469_2014-06-09_19-42-10_260595134347_rgbf000081-resize_1-target.png,depth_discrimination_stimuli/002136_2014-06-25_21-18-03_260595134347_rgbf000109-resize_3/002136_2014-06-25_21-18-03_260595134347_rgbf000109-resize_3-target.png,250,1.652,1.957,1,1172,505,246,504,251,499,feet,,,,,1288314,1415513,49
376303,DepthScenes,duration_discrimination,discrim_jsons/d0.json,http://54.197.185.130/DepthDuration/depth_discrimination_MTurk/DepthDiscrim_HTML.html#4,4,1366,768,1366,768,6-9-2021,8-39-25,3,depth_discrimination_stimuli/000692_2014-06-08_13-09-42_260595134347_rgbf000199-resize_2/000692_2014-06-08_13-09-42_260595134347_rgbf000199-resize_2-target.png,depth_discrimination_stimuli/002103_2014-06-25_20-00-40_260595134347_rgbf000049-resize_0/002103_2014-06-25_20-00-40_260595134347_rgbf000049-resize_0-target.png,250,3.661,4.105,0,1133,513,249,499,241,507,feet,,,,,1288314,1415513,49
376303,DepthScenes,duration_discrimination,discrim_jsons/d0.json,http://54.197.185.130/DepthDuration/depth_discrimination_MTurk/DepthDiscrim_HTML.html#4,4,1366,768,1366,768,6-9-2021,8-39-25,4,depth_discrimination_stimuli/001450_2014-06-19_17-02-03_260595134347_rgbf000203-resize_4/001450_2014-06-19_17-02-03_260595134347_rgbf000203-resize_4-target.png,depth_discrimination_stimuli/002039_2014-06-24_20-22-38_260595134347_rgbf000084-resize_1/002039_2014-06-24_20-22-38_260595134347_rgbf000084-resize_1-target.png,250,4.0106666666667,4.408,0,1121,501,267,495,251,498,feet,,,,,1288314,1415513,49
376303,DepthScenes,duration_discrimination,discrim_jsons/d0.json,http://54.197.185.130/DepthDuration/depth_discrimination_MTurk/DepthDiscrim_HTML.html#4,4,1366,768,1366,768,6-9-2021,8-39-25,5,depth_discrimination_stimuli/000691_2014-06-08_13-08-50_260595134347_rgbf000132-resize_3/000691_2014-06-08_13-08-50_260595134347_rgbf000132-resize_3-target.png,depth_discrimination_stimuli/000137_2014-05-20_17-04-49_260595134347_rgbf000120-resize_1/000137_2014-05-20_17-04-49_260595134347_rgbf000120-resize_1-target.png,250,4.153,3.786,1,1133,514,238,510,239,515,feet,,,,,1288314,1415513,49
376303,DepthScenes,duration_discrimination,discrim_jsons/d0.json,http://54.197.185.130/DepthDuration/depth_discrimination_MTurk/DepthDiscrim_HTML.html#4,4,1366,768,1366,768,6-9-2021,8-39-25,6,depth_discrimination_stimuli/002445_2014-06-28_20-32-16_260595134347_rgbf000029-resize_4/002445_2014-06-28_20-32-16_260595134347_rgbf000029-resize_4-target.png,depth_discrimination_stimuli/002043_2014-06-24_20-29-38_260595134347_rgbf000039-resize_4/002043_2014-06-24_20-29-38_260595134347_rgbf000039-resize_4-target.png,250,2.5315,2.8435,1,1059,503,253,500,249,505,feet,,,,,1288314,1415513,49
376303,DepthScenes,duration_discrimination,discrim_jsons/d0.json,http://54.197.185.130/DepthDuration/depth_discrimination_MTurk/DepthDiscrim_HTML.html#4,4,1366,768,1366,768,6-9-2021,8-39-25,7,depth_discrimination_stimuli/001808_2014-06-26_20-50-58_260595134347_rgbf000029-resize_1/001808_2014-06-26_20-50-58_260595134347_rgbf000029-resize_1-target.png,depth_discrimination_stimuli/003621_2014-05-23_18-06-08_094959634447_rgbf000101-resize_1/003621_2014-05-23_18-06-08_094959634447_rgbf000101-resize_1-target.png,250,4.249,3.9835,0,1062,501,264,498,250,498,feet,,,,,1288314,1415513,49
376303,DepthScenes,duration_discrimination,discrim_jsons/d0.json,http://54.197.185.130/DepthDuration/depth_discrimination_MTurk/DepthDiscrim_HTML.html#4,4,1366,768,1366,768,6-9-2021,8-39-25,8,depth_discrimination_stimuli/002639_2014-06-24_14-51-37_094959634447_rgbf000074-resize_4/002639_2014-06-24_14-51-37_094959634447_rgbf000074-resize_4-target.png,depth_discrimination_stimuli/001132_2014-06-17_14-48-54_260595134347_rgbf000100-resize_2/001132_2014-06-17_14-48-54_260595134347_rgbf000100-resize_2-target.png,1000,4.0375,3.753,0,1749,511,996,500,997,498,feet,,,,,1288314,1415513,49
376303,DepthScenes,duration_discrimination,discrim_jsons/d0.json,http://54.197.185.130/DepthDuration/depth_discrimination_MTurk/DepthDiscrim_HTML.html#4,4,1366,768,1366,768,6-9-2021,8-39-25,9,depth_discrimination_stimuli/003587_2014-05-23_16-48-02_094959634447_rgbf002384-resize_2/003587_2014-05-23_16-48-02_094959634447_rgbf002384-resize_2-target.png,depth_discrimination_stimuli/000709_2014-06-08_13-51-55_260595134347_rgbf000068-resize_3/000709_2014-06-08_13-51-55_260595134347_rgbf000068-resize_3-target.png,250,1.357,1.803,0,1347,511,241,504,250,496,feet,,,,,1288314,1415513,49
376303,DepthScenes,duration_discrimination,discrim_jsons/d0.json,http://54.197.185.130/DepthDuration/depth_discrimination_MTurk/DepthDiscrim_HTML.html#4,4,1366,768,1366,768,6-9-2021,8-39-25,10,depth_discrimination_stimuli/000635_2014-06-08_16-38-42_260595134347_rgbf000106-resize_1/000635_2014-06-08_16-38-42_260595134347_rgbf000106-resize_1-target.png,depth_discrimination_stimuli/001516_2014-06-20_16-25-09_260595134347_rgbf000076-resize_2/001516_2014-06-20_16-25-09_260595134347_rgbf000076-resize_2-target.png,1000,2.074,1.7445,1,1865,508,997,501,1011,498,feet,,,,,1288314,1415513,49
376303,DepthScenes,duration_discrimination,discrim_jsons/d0.json,http://54.197.185.130/DepthDuration/depth_discrimination_MTurk/DepthDiscrim_HTML.html#4,4,1366,768,1366,768,6-9-2021,8-39-25,11,depth_discrimination_stimuli/002579_2014-06-24_14-08-03_094959634447_rgbf000061-resize_2/002579_2014-06-24_14-08-03_094959634447_rgbf000061-resize_2-target.png,depth_discrimination_stimuli/002468_2014-06-28_20-38-39_260595134347_rgbf000045-resize_1/002468_2014-06-28_20-38-39_260595134347_rgbf000045-resize_1-target.png,250,2.223125,1.956,0,1342,510,251,501,248,496,feet,,,,,1288314,1415513,49
376303,DepthScenes,duration_discrimination,discrim_jsons/d0.json,http://54.197.185.130/DepthDuration/depth_discrimination_MTurk/DepthDiscrim_HTML.html#4,4,1366,768,1366,768,6-9-2021,8-39-25,12,depth_discrimination_stimuli/002784_2014-06-22_19-26-30_094959634447_rgbf000083-resize_3/002784_2014-06-22_19-26-30_094959634447_rgbf000083-resize_3-target.png,depth_discrimination_stimuli/001532_2014-06-20_16-50-41_260595134347_rgbf000081-resize_4/001532_2014-06-20_16-50-41_260595134347_rgbf000081-resize_4-target.png,1000,1.8046666666667,1.5758333333333,1,1876,514,995,498,994,502,feet,,,,,1288314,1415513,49
376303,DepthScenes,duration_discrimination,discrim_jsons/d0.json,http://54.197.185.130/DepthDuration/depth_discrimination_MTurk/DepthDiscrim_HTML.html#4,4,1366,768,1366,768,6-9-2021,8-39-25,13,depth_discrimination_stimuli/002279_2014-06-28_18-55-32_260595134347_rgbf000040-resize_5/002279_2014-06-28_18-55-32_260595134347_rgbf000040-resize_5-target.png,depth_discrimination_stimuli/002949_2014-06-26_15-57-42_094959634447_rgbf000079-resize_1/002949_2014-06-26_15-57-42_094959634447_rgbf000079-resize_1-target.png,1000,1.5043333333333,1.8915,0,1887,522,983,496,1012,501,feet,,,,,1288314,1415513,49
376303,DepthScenes,duration_discrimination,discrim_jsons/d0.json,http://54.197.185.130/DepthDuration/depth_discrimination_MTurk/DepthDiscrim_HTML.html#4,4,1366,768,1366,768,6-9-2021,8-39-25,14,depth_discrimination_stimuli/001449_2014-06-19_17-01-27_260595134347_rgbf000116-resize_2/001449_2014-06-19_17-01-27_260595134347_rgbf000116-resize_2-target.png,depth_discrimination_stimuli/002630_2014-06-24_14-47-50_094959634447_rgbf000055-resize_1/002630_2014-06-24_14-47-50_094959634447_rgbf000055-resize_1-target.png,250,3.452,3.0095,1,1504,512,248,500,250,501,feet,,,,,1288314,1415513,49
376303,DepthScenes,duration_discrimination,discrim_jsons/d0.json,http://54.197.185.130/DepthDuration/depth_discrimination_MTurk/DepthDiscrim_HTML.html#4,4,1366,768,1366,768,6-9-2021,8-39-25,15,depth_discrimination_stimuli/002460_2014-06-28_20-35-43_260595134347_rgbf000028-resize_4/002460_2014-06-28_20-35-43_260595134347_rgbf000028-resize_4-target.png,depth_discrimination_stimuli/001806_2014-06-26_20-50-20_260595134347_rgbf000091-resize_1/001806_2014-06-26_20-50-20_260595134347_rgbf000091-resize_1-target.png,1000,2.269,2.7305,0,1868,509,1001,496,1010,500,feet,,,,,1288314,1415513,49
376303,DepthScenes,duration_discrimination,discrim_jsons/d0.json,http://54.197.185.130/DepthDuration/depth_discrimination_MTurk/DepthDiscrim_HTML.html#4,4,1366,768,1366,768,6-9-2021,8-39-25,16,depth_discrimination_stimuli/000409_2014-06-04_19-23-33_260595134347_rgbf000067-resize_0/000409_2014-06-04_19-23-33_260595134347_rgbf000067-resize_0-target.png,depth_discrimination_stimuli/002464_2014-06-28_20-36-57_260595134347_rgbf000029-resize_0/002464_2014-06-28_20-36-57_260595134347_rgbf000029-resize_0-target.png,1000,3.7335,3.9525,1,2033,501,1013,498,991,499,feet,,,,,1288314,1415513,49
376303,DepthScenes,duration_discrimination,discrim_jsons/d0.json,http://54.197.185.130/DepthDuration/depth_discrimination_MTurk/DepthDiscrim_HTML.html#4,4,1366,768,1366,768,6-9-2021,8-39-25,17,depth_discrimination_stimuli/001555_2014-06-20_17-12-10_260595134347_rgbf000065-resize_4/001555_2014-06-20_17-12-10_260595134347_rgbf000065-resize_4-target.png,depth_discrimination_stimuli/000943_2014-06-09_19-31-07_260595134347_rgbf000128-resize_1/000943_2014-06-09_19-31-07_260595134347_rgbf000128-resize_1-target.png,1000,1.633,1.9765,1,1940,513,999,499,995,499,feet,,,,,1288314,1415513,49
376303,DepthScenes,duration_discrimination,discrim_jsons/d0.json,http://54.197.185.130/DepthDuration/depth_discrimination_MTurk/DepthDiscrim_HTML.html#4,4,1366,768,1366,768,6-9-2021,8-39-25,18,depth_discrimination_stimuli/002509_2014-06-24_13-19-22_094959634447_rgbf000077-resize_0/002509_2014-06-24_13-19-22_094959634447_rgbf000077-resize_0-target.png,depth_discrimination_stimuli/002344_2014-06-28_20-06-29_260595134347_rgbf000030-resize_1/002344_2014-06-28_20-06-29_260595134347_rgbf000030-resize_1-target.png,250,1.3065,1.5795,1,1505,505,247,500,250,515,feet,,,,,1288314,1415513,49
376303,DepthScenes,duration_discrimination,discrim_jsons/d0.json,http://54.197.185.130/DepthDuration/depth_discrimination_MTurk/DepthDiscrim_HTML.html#4,4,1366,768,1366,768,6-9-2021,8-39-25,19,depth_discrimination_stimuli/002467_2014-06-28_20-38-07_260595134347_rgbf000026-resize_2/002467_2014-06-28_20-38-07_260595134347_rgbf000026-resize_2-target.png,depth_discrimination_stimuli/001175_2014-06-17_15-45-55_260595134347_rgbf000129-resize_4/001175_2014-06-17_15-45-55_260595134347_rgbf000129-resize_4-target.png,1000,4.742,4.255,1,2033,515,998,498,997,500,feet,,,,,1288314,1415513,49
376303,DepthScenes,duration_discrimination,discrim_jsons/d0.json,http://54.197.185.130/DepthDuration/depth_discrimination_MTurk/DepthDiscrim_HTML.html#4,4,1366,768,1366,768,6-9-2021,8-39-25,20,depth_discrimination_stimuli/001100_2014-06-15_17-46-26_260595134347_rgbf000225-resize_2/001100_2014-06-15_17-46-26_260595134347_rgbf000225-resize_2-target.png,depth_discrimination_stimuli/002131_2014-06-25_21-12-01_260595134347_rgbf000083-resize_0/002131_2014-06-25_21-12-01_260595134347_rgbf000083-resize_0-target.png,1000,2.24,1.7685,0,2003,504,1003,499,999,497,feet,,,,,1288314,1415513,49
376303,DepthScenes,duration_discrimination,discrim_jsons/d0.json,http://54.197.185.130/DepthDuration/depth_discrimination_MTurk/DepthDiscrim_HTML.html#4,4,1366,768,1366,768,6-9-2021,8-39-25,21,depth_discrimination_stimuli/003395_2014-05-20_15-39-18_094959634447_rgbf000101-resize_0/003395_2014-05-20_15-39-18_094959634447_rgbf000101-resize_0-target.png,depth_discrimination_stimuli/001540_2014-06-20_17-01-05_260595134347_rgbf000086-resize_2/001540_2014-06-20_17-01-05_260595134347_rgbf000086-resize_2-target.png,250,4.835,1.459,1,1790,505,251,499,248,499,feet,,,,,1288314,1415513,49
376303,DepthScenes,duration_discrimination,discrim_jsons/d0.json,http://54.197.185.130/DepthDuration/depth_discrimination_MTurk/DepthDiscrim_HTML.html#4,4,1366,768,1366,768,6-9-2021,8-39-25,22,depth_discrimination_stimuli/000454_2014-06-08_16-37-28_260595134347_rgbf000048-resize_2/000454_2014-06-08_16-37-28_260595134347_rgbf000048-resize_2-target.png,depth_discrimination_stimuli/000375_2014-06-08_11-17-29_260595134347_rgbf000133-resize_2/000375_2014-06-08_11-17-29_260595134347_rgbf000133-resize_2-target.png,1000,1.213,4.718,0,1936,516,993,499,998,499,feet,,,,,1288314,1415513,49
376303,DepthScenes,duration_discrimination,discrim_jsons/d0.json,http://54.197.185.130/DepthDuration/depth_discrimination_MTurk/DepthDiscrim_HTML.html#4,4,1366,768,1366,768,6-9-2021,8-39-25,23,depth_discrimination_stimuli/000734_2014-06-08_17-39-11_260595134347_rgbf000128-resize_2/000734_2014-06-08_17-39-11_260595134347_rgbf000128-resize_2-target.png,depth_discrimination_stimuli/001148_2014-06-17_15-26-42_260595134347_rgbf000129-resize_0/001148_2014-06-17_15-26-42_260595134347_rgbf000129-resize_0-target.png,250,4.098,4.368,0,1307,509,243,505,245,500,feet,,,,,1288314,1415513,49
376303,DepthScenes,duration_discrimination,discrim_jsons/d0.json,http://54.197.185.130/DepthDuration/depth_discrimination_MTurk/DepthDiscrim_HTML.html#4,4,1366,768,1366,768,6-9-2021,8-39-25,24,depth_discrimination_stimuli/002549_2014-06-24_13-41-39_094959634447_rgbf000022-resize_3/002549_2014-06-24_13-41-39_094959634447_rgbf000022-resize_3-target.png,depth_discrimination_stimuli/002545_2014-06-24_13-38-53_094959634447_rgbf000080-resize_4/002545_2014-06-24_13-38-53_094959634447_rgbf000080-resize_4-target.png,250,1.476,1.9205,0,1236,514,253,496,239,504,feet,,,,,1288314,1415513,49
376303,DepthScenes,duration_discrimination,discrim_jsons/d0.json,http://54.197.185.130/DepthDuration/depth_discrimination_MTurk/DepthDiscrim_HTML.html#4,4,1366,768,1366,768,6-9-2021,8-39-25,25,depth_discrimination_stimuli/002657_2014-06-13_15-29-54_094959634447_rgbf000150-resize_1/002657_2014-06-13_15-29-54_094959634447_rgbf000150-resize_1-target.png,depth_discrimination_stimuli/002748_2014-06-22_19-07-22_094959634447_rgbf000078-resize_1/002748_2014-06-22_19-07-22_094959634447_rgbf000078-resize_1-target.png,250,4.919,4.6705,0,1207,515,237,508,249,498,feet,,,,,1288314,1415513,49
376303,DepthScenes,duration_discrimination,discrim_jsons/d0.json,http://54.197.185.130/DepthDuration/depth_discrimination_MTurk/DepthDiscrim_HTML.html#4,4,1366,768,1366,768,6-9-2021,8-39-25,26,depth_discrimination_stimuli/002323_2014-06-28_20-01-54_260595134347_rgbf000051-resize_4/002323_2014-06-28_20-01-54_260595134347_rgbf000051-resize_4-target.png,depth_discrimination_stimuli/000736_2014-06-08_18-24-15_260595134347_rgbf000206-resize_3/000736_2014-06-08_18-24-15_260595134347_rgbf000206-resize_3-target.png,250,3.731,3.515,0,1304,514,250,512,236,501,feet,,,,,1288314,1415513,49
376303,DepthScenes,duration_discrimination,discrim_jsons/d0.json,http://54.197.185.130/DepthDuration/depth_discrimination_MTurk/DepthDiscrim_HTML.html#4,4,1366,768,1366,768,6-9-2021,8-39-25,27,depth_discrimination_stimuli/000749_2014-06-08_21-55-06_260595134347_rgbf000070-resize_2/000749_2014-06-08_21-55-06_260595134347_rgbf000070-resize_2-target.png,depth_discrimination_stimuli/002875_2014-06-01_15-19-00_094959634447_rgbf000151-resize_1/002875_2014-06-01_15-19-00_094959634447_rgbf000151-resize_1-target.png,250,2.331,1.9675,1,1209,507,250,501,252,491,feet,,,,,1288314,1415513,49
376303,DepthScenes,duration_discrimination,discrim_jsons/d0.json,http://54.197.185.130/DepthDuration/depth_discrimination_MTurk/DepthDiscrim_HTML.html#4,4,1366,768,1366,768,6-9-2021,8-39-25,28,depth_discrimination_stimuli/000735_2014-06-08_18-23-50_260595134347_rgbf000163-resize_2/000735_2014-06-08_18-23-50_260595134347_rgbf000163-resize_2-target.png,depth_discrimination_stimuli/003288_2014-05-14_21-50-30_094959634447_rgbf000028-resize_3/003288_2014-05-14_21-50-30_094959634447_rgbf000028-resize_3-target.png,250,4.1695,3.877,0,1162,503,264,496,240,510,feet,,,,,1288314,1415513,49
376303,DepthScenes,duration_discrimination,discrim_jsons/d0.json,http://54.197.185.130/DepthDuration/depth_discrimination_MTurk/DepthDiscrim_HTML.html#4,4,1366,768,1366,768,6-9-2021,8-39-25,29,depth_discrimination_stimuli/002375_2014-06-28_20-13-44_260595134347_rgbf000032-resize_1/002375_2014-06-28_20-13-44_260595134347_rgbf000032-resize_1-target.png,depth_discrimination_stimuli/001570_2014-06-20_17-21-09_260595134347_rgbf000135-resize_4/001570_2014-06-20_17-21-09_260595134347_rgbf000135-resize_4-target.png,250,4.0175,4.467,1,1599,516,249,498,248,496,feet,,,,,1288314,1415513,49
376303,DepthScenes,duration_discrimination,discrim_jsons/d0.json,http://54.197.185.130/DepthDuration/depth_discrimination_MTurk/DepthDiscrim_HTML.html#4,4,1366,768,1366,768,6-9-2021,8-39-25,30,depth_discrimination_stimuli/000457_2014-06-08_16-52-43_260595134347_rgbf000199-resize_1/000457_2014-06-08_16-52-43_260595134347_rgbf000199-resize_1-target.png,depth_discrimination_stimuli/002365_2014-06-28_20-11-21_260595134347_rgbf000102-resize_1/002365_2014-06-28_20-11-21_260595134347_rgbf000102-resize_1-target.png,1000,3.649,4.013,1,1676,514,994,496,1000,513,feet,,,,,1288314,1415513,49
376303,DepthScenes,duration_discrimination,discrim_jsons/d0.json,http://54.197.185.130/DepthDuration/depth_discrimination_MTurk/DepthDiscrim_HTML.html#4,4,1366,768,1366,768,6-9-2021,8-39-25,31,depth_discrimination_stimuli/002700_2014-06-22_11-27-02_094959634447_rgbf000124-resize_3/002700_2014-06-22_11-27-02_094959634447_rgbf000124-resize_3-target.png,depth_discrimination_stimuli/000800_2014-06-08_22-42-09_260595134347_rgbf000095-resize_3/000800_2014-06-08_22-42-09_260595134347_rgbf000095-resize_3-target.png,1000,3.301,2.8,0,2061,504,998,501,998,500,feet,,,,,1288314,1415513,49
376303,DepthScenes,duration_discrimination,discrim_jsons/d0.json,http://54.197.185.130/DepthDuration/depth_discrimination_MTurk/DepthDiscrim_HTML.html#4,4,1366,768,1366,768,6-9-2021,8-39-25,32,depth_discrimination_stimuli/001170_2014-06-17_15-43-44_260595134347_rgbf000096-resize_6/001170_2014-06-17_15-43-44_260595134347_rgbf000096-resize_6-target.png,depth_discrimination_stimuli/002364_2014-06-28_20-11-05_260595134347_rgbf000042-resize_0/002364_2014-06-28_20-11-05_260595134347_rgbf000042-resize_0-target.png,1000,1.191,4.682,0,1911,508,999,500,999,496,feet,,,,,1288314,1415513,49
376303,DepthScenes,duration_discrimination,discrim_jsons/d0.json,http://54.197.185.130/DepthDuration/depth_discrimination_MTurk/DepthDiscrim_HTML.html#4,4,1366,768,1366,768,6-9-2021,8-39-25,33,depth_discrimination_stimuli/001016_2014-06-09_16-16-10_260595134347_rgbf000112-resize_5/001016_2014-06-09_16-16-10_260595134347_rgbf000112-resize_5-target.png,depth_discrimination_stimuli/001618_2014-06-20_11-37-31_260595134347_rgbf000027-resize_3/001618_2014-06-20_11-37-31_260595134347_rgbf000027-resize_3-target.png,250,1.6565,1.8725,1,1459,503,253,509,251,499,feet,,,,,1288314,1415513,49
376303,DepthScenes,duration_discrimination,discrim_jsons/d0.json,http://54.197.185.130/DepthDuration/depth_discrimination_MTurk/DepthDiscrim_HTML.html#4,4,1366,768,1366,768,6-9-2021,8-39-25,34,depth_discrimination_stimuli/003081_2014-06-15_15-19-16_094959634447_rgbf000150-resize_1/003081_2014-06-15_15-19-16_094959634447_rgbf000150-resize_1-target.png,depth_discrimination_stimuli/000917_2014-06-09_22-45-29_260595134347_rgbf000149-resize_3/000917_2014-06-09_22-45-29_260595134347_rgbf000149-resize_3-target.png,250,3.9125,4.1865,0,1496,512,240,511,239,510,feet,,,,,1288314,1415513,49
376303,DepthScenes,duration_discrimination,discrim_jsons/d0.json,http://54.197.185.130/DepthDuration/depth_discrimination_MTurk/DepthDiscrim_HTML.html#4,4,1366,768,1366,768,6-9-2021,8-39-25,35,depth_discrimination_stimuli/001059_2014-06-08_21-53-27_260595134347_rgbf000061-resize_4/001059_2014-06-08_21-53-27_260595134347_rgbf000061-resize_4-target.png,depth_discrimination_stimuli/000906_2014-06-08_13-35-43_260595134347_rgbf000155-resize_1/000906_2014-06-08_13-35-43_260595134347_rgbf000155-resize_1-target.png,250,2.4185,2.849,1,1153,508,248,500,247,500,feet,,,,,1288314,1415513,49
376303,DepthScenes,duration_discrimination,discrim_jsons/d0.json,http://54.197.185.130/DepthDuration/depth_discrimination_MTurk/DepthDiscrim_HTML.html#4,4,1366,768,1366,768,6-9-2021,8-39-25,36,depth_discrimination_stimuli/002988_2014-06-15_12-24-20_094959634447_rgbf000150-resize_1/002988_2014-06-15_12-24-20_094959634447_rgbf000150-resize_1-target.png,depth_discrimination_stimuli/000447_2014-06-08_16-15-46_260595134347_rgbf000130-resize_1/000447_2014-06-08_16-15-46_260595134347_rgbf000130-resize_1-target.png,1000,4.767,4.479,0,3618,514,996,500,995,497,feet,,,,,1288314,1415513,49
376303,DepthScenes,duration_discrimination,discrim_jsons/d0.json,http://54.197.185.130/DepthDuration/depth_discrimination_MTurk/DepthDiscrim_HTML.html#4,4,1366,768,1366,768,6-9-2021,8-39-25,37,depth_discrimination_stimuli/001164_2014-06-17_15-35-46_260595134347_rgbf000085-resize_3/001164_2014-06-17_15-35-46_260595134347_rgbf000085-resize_3-target.png,depth_discrimination_stimuli/003228_2014-05-14_13-42-35_094959634447_rgbf000101-resize_1/003228_2014-05-14_13-42-35_094959634447_rgbf000101-resize_1-target.png,250,2.354,1.968,1,1502,512,248,504,238,500,feet,,,,,1288314,1415513,49
376303,DepthScenes,duration_discrimination,discrim_jsons/d0.json,http://54.197.185.130/DepthDuration/depth_discrimination_MTurk/DepthDiscrim_HTML.html#4,4,1366,768,1366,768,6-9-2021,8-39-25,38,depth_discrimination_stimuli/000739_2014-06-08_18-45-58_260595134347_rgbf000068-resize_1/000739_2014-06-08_18-45-58_260595134347_rgbf000068-resize_1-target.png,depth_discrimination_stimuli/002995_2014-06-15_12-31-26_094959634447_rgbf000150-resize_1/002995_2014-06-15_12-31-26_094959634447_rgbf000150-resize_1-target.png,1000,3.534,3.836,1,2336,504,1011,487,1003,500,feet,,,,,1288314,1415513,49
376303,DepthScenes,duration_discrimination,discrim_jsons/d0.json,http://54.197.185.130/DepthDuration/depth_discrimination_MTurk/DepthDiscrim_HTML.html#4,4,1366,768,1366,768,6-9-2021,8-39-25,39,depth_discrimination_stimuli/001092_2014-06-15_17-34-58_260595134347_rgbf000171-resize_3/001092_2014-06-15_17-34-58_260595134347_rgbf000171-resize_3-target.png,depth_discrimination_stimuli/000522_2014-06-08_13-35-06_260595134347_rgbf000244-resize_1/000522_2014-06-08_13-35-06_260595134347_rgbf000244-resize_1-target.png,250,2.6935,2.3715,1,1365,512,241,508,250,498,feet,,,,,1288314,1415513,49
376303,DepthScenes,duration_discrimination,discrim_jsons/d0.json,http://54.197.185.130/DepthDuration/depth_discrimination_MTurk/DepthDiscrim_HTML.html#4,4,1366,768,1366,768,6-9-2021,8-39-25,40,depth_discrimination_stimuli/003534_2014-05-22_15-06-10_094959634447_rgbf000102-resize_4/003534_2014-05-22_15-06-10_094959634447_rgbf000102-resize_4-target.png,depth_discrimination_stimuli/002272_2014-06-28_18-53-56_260595134347_rgbf000067-resize_2/002272_2014-06-28_18-53-56_260595134347_rgbf000067-resize_2-target.png,1000,1.426,1.138,1,2566,511,992,498,1012,497,feet,,,,,1288314,1415513,49
376303,DepthScenes,duration_discrimination,discrim_jsons/d0.json,http://54.197.185.130/DepthDuration/depth_discrimination_MTurk/DepthDiscrim_HTML.html#4,4,1366,768,1366,768,6-9-2021,8-39-25,41,depth_discrimination_stimuli/003546_2014-05-22_15-48-53_094959634447_rgbf004816-resize_3/003546_2014-05-22_15-48-53_094959634447_rgbf004816-resize_3-target.png,depth_discrimination_stimuli/003010_2014-06-15_12-54-35_094959634447_rgbf000112-resize_0/003010_2014-06-15_12-54-35_094959634447_rgbf000112-resize_0-target.png,1000,2.62625,3.1185,1,1854,513,1002,501,998,487,feet,,,,,1288314,1415513,49
376303,DepthScenes,duration_discrimination,discrim_jsons/d0.json,http://54.197.185.130/DepthDuration/depth_discrimination_MTurk/DepthDiscrim_HTML.html#4,4,1366,768,1366,768,6-9-2021,8-39-25,42,depth_discrimination_stimuli/002953_2014-06-08_17-32-18_094959634447_rgbf000059-resize_5/002953_2014-06-08_17-32-18_094959634447_rgbf000059-resize_5-target.png,depth_discrimination_stimuli/001571_2014-06-20_17-21-32_260595134347_rgbf000089-resize_1/001571_2014-06-20_17-21-32_260595134347_rgbf000089-resize_1-target.png,1000,1.551,1.86,0,1616,513,997,502,998,492,feet,,,,,1288314,1415513,49
376303,DepthScenes,duration_discrimination,discrim_jsons/d0.json,http://54.197.185.130/DepthDuration/depth_discrimination_MTurk/DepthDiscrim_HTML.html#4,4,1366,768,1366,768,6-9-2021,8-39-25,43,depth_discrimination_stimuli/000682_2014-06-08_23-14-58_260595134347_rgbf000041-resize_5/000682_2014-06-08_23-14-58_260595134347_rgbf000041-resize_5-target.png,depth_discrimination_stimuli/000866_2014-06-09_20-45-42_260595134347_rgbf000139-resize_1/000866_2014-06-09_20-45-42_260595134347_rgbf000139-resize_1-target.png,250,2.724,3.2155,1,1872,505,253,496,251,511,feet,,,,,1288314,1415513,49
376303,DepthScenes,duration_discrimination,discrim_jsons/d0.json,http://54.197.185.130/DepthDuration/depth_discrimination_MTurk/DepthDiscrim_HTML.html#4,4,1366,768,1366,768,6-9-2021,8-39-25,44,depth_discrimination_stimuli/002989_2014-06-15_12-25-03_094959634447_rgbf000150-resize_3/002989_2014-06-15_12-25-03_094959634447_rgbf000150-resize_3-target.png,depth_discrimination_stimuli/001724_2014-06-26_19-28-50_260595134347_rgbf000037-resize_7/001724_2014-06-26_19-28-50_260595134347_rgbf000037-resize_7-target.png,1000,4.1975,3.827,1,2566,509,999,494,1001,506,feet,,,,,1288314,1415513,49
376303,DepthScenes,duration_discrimination,discrim_jsons/d0.json,http://54.197.185.130/DepthDuration/depth_discrimination_MTurk/DepthDiscrim_HTML.html#4,4,1366,768,1366,768,6-9-2021,8-39-25,45,depth_discrimination_stimuli/001264_2014-06-16_16-10-23_260595134347_rgbf000109-resize_1/001264_2014-06-16_16-10-23_260595134347_rgbf000109-resize_1-target.png,depth_discrimination_stimuli/002340_2014-06-28_20-05-46_260595134347_rgbf000113-resize_0/002340_2014-06-28_20-05-46_260595134347_rgbf000113-resize_0-target.png,1000,2.9665,2.4735,1,2531,501,1002,499,1013,494,feet,,,,,1288314,1415513,49
376303,DepthScenes,duration_discrimination,discrim_jsons/d0.json,http://54.197.185.130/DepthDuration/depth_discrimination_MTurk/DepthDiscrim_HTML.html#4,4,1366,768,1366,768,6-9-2021,8-39-25,46,depth_discrimination_stimuli/002118_2014-06-25_20-32-08_260595134347_rgbf000078-resize_1/002118_2014-06-25_20-32-08_260595134347_rgbf000078-resize_1-target.png,depth_discrimination_stimuli/000542_2014-06-08_18-27-08_260595134347_rgbf000118-resize_1/000542_2014-06-08_18-27-08_260595134347_rgbf000118-resize_1-target.png,1000,2.646,3,1,1990,515,997,490,1009,497,feet,,,,,1288314,1415513,49
376303,DepthScenes,duration_discrimination,discrim_jsons/d0.json,http://54.197.185.130/DepthDuration/depth_discrimination_MTurk/DepthDiscrim_HTML.html#4,4,1366,768,1366,768,6-9-2021,8-39-25,47,depth_discrimination_stimuli/000569_2014-06-09_22-51-47_260595134347_rgbf000141-resize_3/000569_2014-06-09_22-51-47_260595134347_rgbf000141-resize_3-target.png,depth_discrimination_stimuli/000868_2014-06-09_20-49-52_260595134347_rgbf000064-resize_4/000868_2014-06-09_20-49-52_260595134347_rgbf000064-resize_4-target.png,250,4.512,1.2815,1,1598,511,247,498,253,497,feet,,,,,1288314,1415513,49
376303,DepthScenes,duration_discrimination,discrim_jsons/d0.json,http://54.197.185.130/DepthDuration/depth_discrimination_MTurk/DepthDiscrim_HTML.html#4,4,1366,768,1366,768,6-9-2021,8-39-25,48,depth_discrimination_stimuli/000665_2014-06-09_20-42-35_260595134347_rgbf000110-resize_1/000665_2014-06-09_20-42-35_260595134347_rgbf000110-resize_1-target.png,depth_discrimination_stimuli/001214_2014-06-17_16-13-55_260595134347_rgbf000111-resize_0/001214_2014-06-17_16-13-55_260595134347_rgbf000111-resize_0-target.png,250,3.057,2.6505,1,1406,510,248,498,252,497,feet,,,,,1288314,1415513,49
376303,DepthScenes,duration_discrimination,discrim_jsons/d0.json,http://54.197.185.130/DepthDuration/depth_discrimination_MTurk/DepthDiscrim_HTML.html#4,4,1366,768,1366,768,6-9-2021,8-39-25,49,depth_discrimination_stimuli/000753_2014-06-08_21-57-44_260595134347_rgbf000123-resize_3/000753_2014-06-08_21-57-44_260595134347_rgbf000123-resize_3-target.png,depth_discrimination_stimuli/003092_2014-06-24_21-01-49_094959634447_rgbf000049-resize_2/003092_2014-06-24_21-01-49_094959634447_rgbf000049-resize_2-target.png,1000,1.916,1.666,1,2029,511,1003,493,1001,500,feet,,,,,1288314,1415513,49
376303,DepthScenes,duration_discrimination,discrim_jsons/d0.json,http://54.197.185.130/DepthDuration/depth_discrimination_MTurk/DepthDiscrim_HTML.html#4,4,1366,768,1366,768,6-9-2021,8-39-25,50,depth_discrimination_stimuli/000780_2014-06-08_22-28-29_260595134347_rgbf000126-resize_1/000780_2014-06-08_22-28-29_260595134347_rgbf000126-resize_1-target.png,depth_discrimination_stimuli/000191_2014-05-12_17-07-38_260595134347_rgbf000199-resize_0/000191_2014-05-12_17-07-38_260595134347_rgbf000199-resize_0-target.png,1000,3.3825,3.7995,0,1971,517,995,497,998,499,feet,,,,,1288314,1415513,49
376303,DepthScenes,duration_discrimination,discrim_jsons/d0.json,http://54.197.185.130/DepthDuration/depth_discrimination_MTurk/DepthDiscrim_HTML.html#4,4,1366,768,1366,768,6-9-2021,8-39-25,51,depth_discrimination_stimuli/000720_2014-06-08_18-37-27_260595134347_rgbf000203-resize_4/000720_2014-06-08_18-37-27_260595134347_rgbf000203-resize_4-target.png,depth_discrimination_stimuli/002637_2014-06-24_14-51-13_094959634447_rgbf000066-resize_4/002637_2014-06-24_14-51-13_094959634447_rgbf000066-resize_4-target.png,1000,1.558,1.9955,0,1900,505,1004,499,1004,490,feet,,,,,1288314,1415513,49
376303,DepthScenes,duration_discrimination,discrim_jsons/d0.json,http://54.197.185.130/DepthDuration/depth_discrimination_MTurk/DepthDiscrim_HTML.html#4,4,1366,768,1366,768,6-9-2021,8-39-25,52,depth_discrimination_stimuli/000929_2014-06-09_16-33-19_260595134347_rgbf000139-resize_0/000929_2014-06-09_16-33-19_260595134347_rgbf000139-resize_0-target.png,depth_discrimination_stimuli/000830_2014-06-04_19-49-31_260595134347_rgbf000096-resize_2/000830_2014-06-04_19-49-31_260595134347_rgbf000096-resize_2-target.png,250,2.868,2.6353333333333,0,1308,503,249,513,248,502,feet,,,,,1288314,1415513,49
376303,DepthScenes,duration_discrimination,discrim_jsons/d0.json,http://54.197.185.130/DepthDuration/depth_discrimination_MTurk/DepthDiscrim_HTML.html#4,4,1366,768,1366,768,6-9-2021,8-39-25,53,depth_discrimination_stimuli/000549_2014-06-08_22-10-24_260595134347_rgbf000247-resize_3/000549_2014-06-08_22-10-24_260595134347_rgbf000247-resize_3-target.png,depth_discrimination_stimuli/002139_2014-06-25_21-19-37_260595134347_rgbf000124-resize_2/002139_2014-06-25_21-19-37_260595134347_rgbf000124-resize_2-target.png,250,1.841,2.107,1,1360,514,249,503,253,486,feet,,,,,1288314,1415513,49
376303,DepthScenes,duration_discrimination,discrim_jsons/d0.json,http://54.197.185.130/DepthDuration/depth_discrimination_MTurk/DepthDiscrim_HTML.html#4,4,1366,768,1366,768,6-9-2021,8-39-25,54,depth_discrimination_stimuli/001617_2014-06-20_11-35-32_260595134347_rgbf000066-resize_1/001617_2014-06-20_11-35-32_260595134347_rgbf000066-resize_1-target.png,depth_discrimination_stimuli/001133_2014-06-17_14-49-16_260595134347_rgbf000100-resize_0/001133_2014-06-17_14-49-16_260595134347_rgbf000100-resize_0-target.png,1000,3.791,4.2115,0,1898,510,1000,500,997,499,feet,,,,,1288314,1415513,49
376303,DepthScenes,duration_discrimination,discrim_jsons/d0.json,http://54.197.185.130/DepthDuration/depth_discrimination_MTurk/DepthDiscrim_HTML.html#4,4,1366,768,1366,768,6-9-2021,8-39-25,55,depth_discrimination_stimuli/003292_2014-05-14_21-53-49_094959634447_rgbf000100-resize_2/003292_2014-05-14_21-53-49_094959634447_rgbf000100-resize_2-target.png,depth_discrimination_stimuli/002805_2014-06-22_19-54-03_094959634447_rgbf000079-resize_1/002805_2014-06-22_19-54-03_094959634447_rgbf000079-resize_1-target.png,1000,3.4815,3.144,0,1884,504,998,512,999,504,feet,,,,,1288314,1415513,49
376303,DepthScenes,duration_discrimination,discrim_jsons/d0.json,http://54.197.185.130/DepthDuration/depth_discrimination_MTurk/DepthDiscrim_HTML.html#4,4,1366,768,1366,768,6-9-2021,8-39-25,56,depth_discrimination_stimuli/001417_2014-06-19_16-25-36_260595134347_rgbf000115-resize_5/001417_2014-06-19_16-25-36_260595134347_rgbf000115-resize_5-target.png,depth_discrimination_stimuli/003083_2014-06-15_15-21-03_094959634447_rgbf000063-resize_1/003083_2014-06-15_15-21-03_094959634447_rgbf000063-resize_1-target.png,250,4.6255,4.1405,0,1176,507,247,498,265,496,feet,,,,,1288314,1415513,49
376303,DepthScenes,duration_discrimination,discrim_jsons/d0.json,http://54.197.185.130/DepthDuration/depth_discrimination_MTurk/DepthDiscrim_HTML.html#4,4,1366,768,1366,768,6-9-2021,8-39-25,57,depth_discrimination_stimuli/003070_2014-06-15_14-58-27_094959634447_rgbf000150-resize_3/003070_2014-06-15_14-58-27_094959634447_rgbf000150-resize_3-target.png,depth_discrimination_stimuli/000758_2014-06-08_22-05-08_260595134347_rgbf000085-resize_0/000758_2014-06-08_22-05-08_260595134347_rgbf000085-resize_0-target.png,1000,2.9415,3.381,0,1825,506,1003,499,995,514,feet,,,,,1288314,1415513,49
376303,DepthScenes,duration_discrimination,discrim_jsons/d0.json,http://54.197.185.130/DepthDuration/depth_discrimination_MTurk/DepthDiscrim_HTML.html#4,4,1366,768,1366,768,6-9-2021,8-39-25,58,depth_discrimination_stimuli/001235_2014-06-17_16-37-36_260595134347_rgbf000084-resize_4/001235_2014-06-17_16-37-36_260595134347_rgbf000084-resize_4-target.png,depth_discrimination_stimuli/003423_2014-05-21_10-23-26_094959634447_rgbf002665-resize_2/003423_2014-05-21_10-23-26_094959634447_rgbf002665-resize_2-target.png,1000,3.6605,3.2575,0,2107,514,997,500,999,499,feet,,,,,1288314,1415513,49
376303,DepthScenes,duration_discrimination,discrim_jsons/d0.json,http://54.197.185.130/DepthDuration/depth_discrimination_MTurk/DepthDiscrim_HTML.html#4,4,1366,768,1366,768,6-9-2021,8-39-25,59,depth_discrimination_stimuli/002660_2014-06-13_15-44-18_094959634447_rgbf001878-resize_2/002660_2014-06-13_15-44-18_094959634447_rgbf001878-resize_2-target.png,depth_discrimination_stimuli/000009_2014-05-26_14-32-05_260595134347_rgbf000034-resize_3/000009_2014-05-26_14-32-05_260595134347_rgbf000034-resize_3-target.png,1000,3.576,3.8715,1,2095,511,994,500,998,512,feet,,,,,1288314,1415513,49
376303,DepthScenes,duration_discrimination,discrim_jsons/d0.json,http://54.197.185.130/DepthDuration/depth_discrimination_MTurk/DepthDiscrim_HTML.html#4,4,1366,768,1366,768,6-9-2021,8-39-25,60,depth_discrimination_stimuli/000642_2014-06-08_16-59-25_260595134347_rgbf000098-resize_2/000642_2014-06-08_16-59-25_260595134347_rgbf000098-resize_2-target.png,depth_discrimination_stimuli/001815_2014-06-26_20-52-55_260595134347_rgbf000020-resize_0/001815_2014-06-26_20-52-55_260595134347_rgbf000020-resize_0-target.png,1000,2.8815,3.3865,0,1837,515,996,498,996,501,feet,,,,,1288314,1415513,49
376303,DepthScenes,duration_discrimination,discrim_jsons/d0.json,http://54.197.185.130/DepthDuration/depth_discrimination_MTurk/DepthDiscrim_HTML.html#4,4,1366,768,1366,768,6-9-2021,8-39-25,61,depth_discrimination_stimuli/001289_2014-06-16_16-25-52_260595134347_rgbf000067-resize_1/001289_2014-06-16_16-25-52_260595134347_rgbf000067-resize_1-target.png,depth_discrimination_stimuli/002788_2014-06-22_19-36-03_094959634447_rgbf000088-resize_2/002788_2014-06-22_19-36-03_094959634447_rgbf000088-resize_2-target.png,1000,1.8835,1.6465,1,2509,513,997,498,995,514,feet,,,,,1288314,1415513,49
376303,DepthScenes,duration_discrimination,discrim_jsons/d0.json,http://54.197.185.130/DepthDuration/depth_discrimination_MTurk/DepthDiscrim_HTML.html#4,4,1366,768,1366,768,6-9-2021,8-39-25,62,depth_discrimination_stimuli/000953_2014-06-08_11-42-19_260595134347_rgbf000083-resize_0/000953_2014-06-08_11-42-19_260595134347_rgbf000083-resize_0-target.png,depth_discrimination_stimuli/000787_2014-06-08_22-33-53_260595134347_rgbf000175-resize_1/000787_2014-06-08_22-33-53_260595134347_rgbf000175-resize_1-target.png,1000,1.369,4.784,0,1942,513,993,500,996,500,feet,,,,,1288314,1415513,49
376303,DepthScenes,duration_discrimination,discrim_jsons/d0.json,http://54.197.185.130/DepthDuration/depth_discrimination_MTurk/DepthDiscrim_HTML.html#4,4,1366,768,1366,768,6-9-2021,8-39-25,63,depth_discrimination_stimuli/002199_2014-06-28_18-33-56_260595134347_rgbf000074-resize_0/002199_2014-06-28_18-33-56_260595134347_rgbf000074-resize_0-target.png,depth_discrimination_stimuli/000368_2014-06-09_15-53-01_260595134347_rgbf000155-resize_2/000368_2014-06-09_15-53-01_260595134347_rgbf000155-resize_2-target.png,250,1.996,2.486,0,1912,515,251,486,261,503,feet,,,,,1288314,1415513,49
376303,DepthScenes,duration_discrimination,discrim_jsons/d0.json,http://54.197.185.130/DepthDuration/depth_discrimination_MTurk/DepthDiscrim_HTML.html#4,4,1366,768,1366,768,6-9-2021,8-39-25,64,depth_discrimination_stimuli/001810_2014-06-26_20-51-35_260595134347_rgbf000040-resize_3/001810_2014-06-26_20-51-35_260595134347_rgbf000040-resize_3-target.png,depth_discrimination_stimuli/000927_2014-06-09_16-32-30_260595134347_rgbf000123-resize_3/000927_2014-06-09_16-32-30_260595134347_rgbf000123-resize_3-target.png,250,2.2525,2.6785,0,1668,513,249,500,250,497,feet,,,,,1288314,1415513,49
376303,DepthScenes,duration_discrimination,discrim_jsons/d0.json,http://54.197.185.130/DepthDuration/depth_discrimination_MTurk/DepthDiscrim_HTML.html#4,4,1366,768,1366,768,6-9-2021,8-39-25,65,depth_discrimination_stimuli/001199_2014-06-17_16-03-48_260595134347_rgbf000077-resize_0/001199_2014-06-17_16-03-48_260595134347_rgbf000077-resize_0-target.png,depth_discrimination_stimuli/001029_2014-06-08_13-17-57_260595134347_rgbf000065-resize_1/001029_2014-06-08_13-17-57_260595134347_rgbf000065-resize_1-target.png,250,3.4375,3.0835,0,1329,513,248,500,252,496,feet,,,,,1288314,1415513,49
376303,DepthScenes,duration_discrimination,discrim_jsons/d0.json,http://54.197.185.130/DepthDuration/depth_discrimination_MTurk/DepthDiscrim_HTML.html#4,4,1366,768,1366,768,6-9-2021,8-39-25,66,depth_discrimination_stimuli/002425_2014-06-28_20-27-29_260595134347_rgbf000031-resize_8/002425_2014-06-28_20-27-29_260595134347_rgbf000031-resize_8-target.png,depth_discrimination_stimuli/001181_2014-06-17_15-50-57_260595134347_rgbf000106-resize_4/001181_2014-06-17_15-50-57_260595134347_rgbf000106-resize_4-target.png,250,3.896,4.149,0,1120,513,238,509,257,492,feet,,,,,1288314,1415513,49
376303,DepthScenes,duration_discrimination,discrim_jsons/d0.json,http://54.197.185.130/DepthDuration/depth_discrimination_MTurk/DepthDiscrim_HTML.html#4,4,1366,768,1366,768,6-9-2021,8-39-25,67,depth_discrimination_stimuli/000521_2014-06-08_13-34-35_260595134347_rgbf000191-resize_2/000521_2014-06-08_13-34-35_260595134347_rgbf000191-resize_2-target.png,depth_discrimination_stimuli/000788_2014-06-08_22-34-36_260595134347_rgbf000131-resize_1/000788_2014-06-08_22-34-36_260595134347_rgbf000131-resize_1-target.png,250,3.0385,3.359,1,1109,513,248,499,248,502,feet,,,,,1288314,1415513,49
376303,DepthScenes,duration_discrimination,discrim_jsons/d0.json,http://54.197.185.130/DepthDuration/depth_discrimination_MTurk/DepthDiscrim_HTML.html#4,4,1366,768,1366,768,6-9-2021,8-39-25,68,depth_discrimination_stimuli/002568_2014-06-24_13-59-21_094959634447_rgbf000062-resize_4/002568_2014-06-24_13-59-21_094959634447_rgbf000062-resize_4-target.png,depth_discrimination_stimuli/000636_2014-06-08_16-39-02_260595134347_rgbf000108-resize_4/000636_2014-06-08_16-39-02_260595134347_rgbf000108-resize_4-target.png,250,3.015,2.682,1,1468,513,248,499,249,495,feet,,,,,1288314,1415513,49
376303,DepthScenes,duration_discrimination,discrim_jsons/d0.json,http://54.197.185.130/DepthDuration/depth_discrimination_MTurk/DepthDiscrim_HTML.html#4,4,1366,768,1366,768,6-9-2021,8-39-25,69,depth_discrimination_stimuli/001498_2014-06-19_17-45-14_260595134347_rgbf000129-resize_4/001498_2014-06-19_17-45-14_260595134347_rgbf000129-resize_4-target.png,depth_discrimination_stimuli/003125_2014-05-12_10-39-22_094959634447_rgbf000100-resize_0/003125_2014-05-12_10-39-22_094959634447_rgbf000100-resize_0-target.png,250,1.4075,4.8655,0,1317,508,249,502,249,496,feet,,,,,1288314,1415513,49
376303,DepthScenes,duration_discrimination,discrim_jsons/d0.json,http://54.197.185.130/DepthDuration/depth_discrimination_MTurk/DepthDiscrim_HTML.html#4,4,1366,768,1366,768,6-9-2021,8-39-25,70,depth_discrimination_stimuli/001167_2014-06-17_15-38-07_260595134347_rgbf000108-resize_0/001167_2014-06-17_15-38-07_260595134347_rgbf000108-resize_0-target.png,depth_discrimination_stimuli/003495_2014-05-21_16-01-51_094959634447_rgbf000100-resize_3/003495_2014-05-21_16-01-51_094959634447_rgbf000100-resize_3-target.png,250,1.8505,1.6255,0,1054,516,247,496,242,507,feet,,,,,1288314,1415513,49
376303,DepthScenes,duration_discrimination,discrim_jsons/d0.json,http://54.197.185.130/DepthDuration/depth_discrimination_MTurk/DepthDiscrim_HTML.html#4,4,1366,768,1366,768,6-9-2021,8-39-25,71,depth_discrimination_stimuli/000869_2014-06-09_20-50-18_260595134347_rgbf000060-resize_3/000869_2014-06-09_20-50-18_260595134347_rgbf000060-resize_3-target.png,depth_discrimination_stimuli/001136_2014-06-17_15-19-41_260595134347_rgbf000076-resize_3/001136_2014-06-17_15-19-41_260595134347_rgbf000076-resize_3-target.png,250,2.266,1.8655,0,1257,506,247,499,249,514,feet,,,,,1288314,1415513,49
376303,DepthScenes,duration_discrimination,discrim_jsons/d0.json,http://54.197.185.130/DepthDuration/depth_discrimination_MTurk/DepthDiscrim_HTML.html#4,4,1366,768,1366,768,6-9-2021,8-39-25,72,depth_discrimination_stimuli/000878_2014-06-08_22-52-45_260595134347_rgbf000045-resize_2/000878_2014-06-08_22-52-45_260595134347_rgbf000045-resize_2-target.png,depth_discrimination_stimuli/003338_2014-05-20_11-01-23_094959634447_rgbf000051-resize_6/003338_2014-05-20_11-01-23_094959634447_rgbf000051-resize_6-target.png,1000,2.092,1.693,1,1903,507,997,498,1015,498,feet,,,,,1288314,1415513,49
376303,DepthScenes,duration_discrimination,discrim_jsons/d0.json,http://54.197.185.130/DepthDuration/depth_discrimination_MTurk/DepthDiscrim_HTML.html#4,4,1366,768,1366,768,6-9-2021,8-39-25,73,depth_discrimination_stimuli/002750_2014-06-22_19-08-03_094959634447_rgbf000094-resize_4/002750_2014-06-22_19-08-03_094959634447_rgbf000094-resize_4-target.png,depth_discrimination_stimuli/001188_2014-06-17_15-54-10_260595134347_rgbf000090-resize_2/001188_2014-06-17_15-54-10_260595134347_rgbf000090-resize_2-target.png,250,2.354,2.744,1,957,516,238,507,243,500,feet,,,,,1288314,1415513,49
376303,DepthScenes,duration_discrimination,discrim_jsons/d0.json,http://54.197.185.130/DepthDuration/depth_discrimination_MTurk/DepthDiscrim_HTML.html#4,4,1366,768,1366,768,6-9-2021,8-39-25,74,depth_discrimination_stimuli/000740_2014-06-08_18-46-23_260595134347_rgbf000049-resize_6/000740_2014-06-08_18-46-23_260595134347_rgbf000049-resize_6-target.png,depth_discrimination_stimuli/002905_2014-06-03_18-04-43_094959634447_rgbf000151-resize_2/002905_2014-06-03_18-04-43_094959634447_rgbf000151-resize_2-target.png,1000,1.687,2.0295,0,1962,507,1002,504,989,513,feet,,,,,1288314,1415513,49
376303,DepthScenes,duration_discrimination,discrim_jsons/d0.json,http://54.197.185.130/DepthDuration/depth_discrimination_MTurk/DepthDiscrim_HTML.html#4,4,1366,768,1366,768,6-9-2021,8-39-25,75,depth_discrimination_stimuli/000483_2014-06-09_20-41-45_260595134347_rgbf000116-resize_4/000483_2014-06-09_20-41-45_260595134347_rgbf000116-resize_4-target.png,depth_discrimination_stimuli/002964_2014-06-08_17-46-11_094959634447_rgbf000091-resize_4/002964_2014-06-08_17-46-11_094959634447_rgbf000091-resize_4-target.png,250,1.337,1.691,0,1659,504,277,485,251,496,feet,,,,,1288314,1415513,49
376303,DepthScenes,duration_discrimination,discrim_jsons/d0.json,http://54.197.185.130/DepthDuration/depth_discrimination_MTurk/DepthDiscrim_HTML.html#4,4,1366,768,1366,768,6-9-2021,8-39-25,76,depth_discrimination_stimuli/000103_2014-05-14_22-01-17_260595134347_rgbf000152-resize_5/000103_2014-05-14_22-01-17_260595134347_rgbf000152-resize_5-target.png,depth_discrimination_stimuli/000810_2014-06-08_17-20-01_260595134347_rgbf000105-resize_0/000810_2014-06-08_17-20-01_260595134347_rgbf000105-resize_0-target.png,1000,1.993,1.4865,1,2068,502,1012,499,997,497,feet,,,,,1288314,1415513,49
376303,DepthScenes,duration_discrimination,discrim_jsons/d0.json,http://54.197.185.130/DepthDuration/depth_discrimination_MTurk/DepthDiscrim_HTML.html#4,4,1366,768,1366,768,6-9-2021,8-39-25,77,depth_discrimination_stimuli/001056_2014-06-08_18-46-44_260595134347_rgbf000068-resize_0/001056_2014-06-08_18-46-44_260595134347_rgbf000068-resize_0-target.png,depth_discrimination_stimuli/003079_2014-06-15_15-18-20_094959634447_rgbf000152-resize_8/003079_2014-06-15_15-18-20_094959634447_rgbf000152-resize_8-target.png,250,2.6625,2.8775,0,1748,506,250,496,250,508,feet,,,,,1288314,1415513,49
376303,DepthScenes,duration_discrimination,discrim_jsons/d0.json,http://54.197.185.130/DepthDuration/depth_discrimination_MTurk/DepthDiscrim_HTML.html#4,4,1366,768,1366,768,6-9-2021,8-39-25,78,depth_discrimination_stimuli/001110_2014-06-15_17-25-28_260595134347_rgbf000150-resize_1/001110_2014-06-15_17-25-28_260595134347_rgbf000150-resize_1-target.png,depth_discrimination_stimuli/000555_2014-06-09_22-42-23_260595134347_rgbf000037-resize_4/000555_2014-06-09_22-42-23_260595134347_rgbf000037-resize_4-target.png,250,1.7115,1.9765,0,1126,501,250,512,249,499,feet,,,,,1288314,1415513,49
376303,DepthScenes,duration_discrimination,discrim_jsons/d0.json,http://54.197.185.130/DepthDuration/depth_discrimination_MTurk/DepthDiscrim_HTML.html#4,4,1366,768,1366,768,6-9-2021,8-39-25,79,depth_discrimination_stimuli/000677_2014-06-08_23-10-32_260595134347_rgbf000158-resize_6/000677_2014-06-08_23-10-32_260595134347_rgbf000158-resize_6-target.png,depth_discrimination_stimuli/001150_2014-06-17_15-27-34_260595134347_rgbf000108-resize_2/001150_2014-06-17_15-27-34_260595134347_rgbf000108-resize_2-target.png,250,3.556,4.0325,0,974,505,251,499,249,498,feet,,,,,1288314,1415513,49
376303,DepthScenes,duration_discrimination,discrim_jsons/d0.json,http://54.197.185.130/DepthDuration/depth_discrimination_MTurk/DepthDiscrim_HTML.html#4,4,1366,768,1366,768,6-9-2021,8-39-25,80,depth_discrimination_stimuli/002414_2014-06-28_20-24-58_260595134347_rgbf000067-resize_4/002414_2014-06-28_20-24-58_260595134347_rgbf000067-resize_4-target.png,depth_discrimination_stimuli/001828_2014-06-26_21-40-03_260595134347_rgbf000024-resize_0/001828_2014-06-26_21-40-03_260595134347_rgbf000024-resize_0-target.png,1000,4.363,4.826,0,1894,505,1011,498,993,500,feet,,,,,1288314,1415513,49
376303,DepthScenes,duration_discrimination,discrim_jsons/d0.json,http://54.197.185.130/DepthDuration/depth_discrimination_MTurk/DepthDiscrim_HTML.html#4,4,1366,768,1366,768,6-9-2021,8-39-25,81,depth_discrimination_stimuli/001244_2014-06-17_16-47-45_260595134347_rgbf000030-resize_4/001244_2014-06-17_16-47-45_260595134347_rgbf000030-resize_4-target.png,depth_discrimination_stimuli/002763_2014-06-22_19-13-10_094959634447_rgbf000075-resize_4/002763_2014-06-22_19-13-10_094959634447_rgbf000075-resize_4-target.png,1000,2.0425,1.68375,1,1915,507,1002,497,999,512,feet,,,,,1288314,1415513,49
376303,DepthScenes,duration_discrimination,discrim_jsons/d0.json,http://54.197.185.130/DepthDuration/depth_discrimination_MTurk/DepthDiscrim_HTML.html#4,4,1366,768,1366,768,6-9-2021,8-39-25,82,depth_discrimination_stimuli/000505_2014-06-08_23-03-23_260595134347_rgbf000091-resize_0/000505_2014-06-08_23-03-23_260595134347_rgbf000091-resize_0-target.png,depth_discrimination_stimuli/002057_2014-06-24_21-00-13_260595134347_rgbf000120-resize_1/002057_2014-06-24_21-00-13_260595134347_rgbf000120-resize_1-target.png,1000,3.3105,2.967,1,1863,510,1000,504,1002,501,feet,,,,,1288314,1415513,49
376303,DepthScenes,duration_discrimination,discrim_jsons/d0.json,http://54.197.185.130/DepthDuration/depth_discrimination_MTurk/DepthDiscrim_HTML.html#4,4,1366,768,1366,768,6-9-2021,8-39-25,83,depth_discrimination_stimuli/001392_2014-06-19_16-07-59_260595134347_rgbf000046-resize_1/001392_2014-06-19_16-07-59_260595134347_rgbf000046-resize_1-target.png,depth_discrimination_stimuli/003490_2014-05-21_15-50-11_094959634447_rgbf000101-resize_3/003490_2014-05-21_15-50-11_094959634447_rgbf000101-resize_3-target.png,1000,4.135,3.6445,1,1822,511,1000,502,995,500,feet,,,,,1288314,1415513,49
376303,DepthScenes,duration_discrimination,discrim_jsons/d0.json,http://54.197.185.130/DepthDuration/depth_discrimination_MTurk/DepthDiscrim_HTML.html#4,4,1366,768,1366,768,6-9-2021,8-39-25,84,depth_discrimination_stimuli/000502_2014-06-08_23-02-32_260595134347_rgbf000063-resize_4/000502_2014-06-08_23-02-32_260595134347_rgbf000063-resize_4-target.png,depth_discrimination_stimuli/002987_2014-06-08_18-48-20_094959634447_rgbf000022-resize_0/002987_2014-06-08_18-48-20_094959634447_rgbf000022-resize_0-target.png,1000,2.431,2.6775,1,1911,513,990,498,1001,500,feet,,,,,1288314,1415513,49
376303,DepthScenes,duration_discrimination,discrim_jsons/d0.json,http://54.197.185.130/DepthDuration/depth_discrimination_MTurk/DepthDiscrim_HTML.html#4,4,1366,768,1366,768,6-9-2021,8-39-25,85,depth_discrimination_stimuli/002675_2014-06-13_16-08-49_094959634447_rgbf000151-resize_2/002675_2014-06-13_16-08-49_094959634447_rgbf000151-resize_2-target.png,depth_discrimination_stimuli/001222_2014-06-17_16-24-06_260595134347_rgbf000073-resize_0/001222_2014-06-17_16-24-06_260595134347_rgbf000073-resize_0-target.png,1000,4.5065,1.4385,1,3715,510,997,503,994,501,feet,,,,,1288314,1415513,49
376303,DepthScenes,duration_discrimination,discrim_jsons/d0.json,http://54.197.185.130/DepthDuration/depth_discrimination_MTurk/DepthDiscrim_HTML.html#4,4,1366,768,1366,768,6-9-2021,8-39-25,86,depth_discrimination_stimuli/001158_2014-06-17_15-32-16_260595134347_rgbf000138-resize_2/001158_2014-06-17_15-32-16_260595134347_rgbf000138-resize_2-target.png,depth_discrimination_stimuli/003492_2014-05-21_15-50-55_094959634447_rgbf000828-resize_1/003492_2014-05-21_15-50-55_094959634447_rgbf000828-resize_1-target.png,250,4.5315,4.06875,0,1389,507,244,506,245,500,feet,,,,,1288314,1415513,49
376303,DepthScenes,duration_discrimination,discrim_jsons/d0.json,http://54.197.185.130/DepthDuration/depth_discrimination_MTurk/DepthDiscrim_HTML.html#4,4,1366,768,1366,768,6-9-2021,8-39-25,87,depth_discrimination_stimuli/000773_2014-06-08_22-24-54_260595134347_rgbf000093-resize_1/000773_2014-06-08_22-24-54_260595134347_rgbf000093-resize_1-target.png,depth_discrimination_stimuli/000742_2014-06-08_18-48-09_260595134347_rgbf000164-resize_4/000742_2014-06-08_18-48-09_260595134347_rgbf000164-resize_4-target.png,250,4.973,4.632,0,1611,511,252,501,249,500,feet,,,,,1288314,1415513,49
376303,DepthScenes,duration_discrimination,discrim_jsons/d0.json,http://54.197.185.130/DepthDuration/depth_discrimination_MTurk/DepthDiscrim_HTML.html#4,4,1366,768,1366,768,6-9-2021,8-39-25,88,depth_discrimination_stimuli/000854_2014-06-09_19-43-13_260595134347_rgbf000066-resize_0/000854_2014-06-09_19-43-13_260595134347_rgbf000066-resize_0-target.png,depth_discrimination_stimuli/002758_2014-06-22_19-11-20_094959634447_rgbf000128-resize_1/002758_2014-06-22_19-11-20_094959634447_rgbf000128-resize_1-target.png,1000,3.068,2.555,0,1983,502,1013,498,997,502,feet,,,,,1288314,1415513,49
376303,DepthScenes,duration_discrimination,discrim_jsons/d0.json,http://54.197.185.130/DepthDuration/depth_discrimination_MTurk/DepthDiscrim_HTML.html#4,4,1366,768,1366,768,6-9-2021,8-39-25,89,depth_discrimination_stimuli/001055_2014-06-08_18-45-35_260595134347_rgbf000111-resize_4/001055_2014-06-08_18-45-35_260595134347_rgbf000111-resize_4-target.png,depth_discrimination_stimuli/002209_2014-06-28_18-36-10_260595134347_rgbf000051-resize_1/002209_2014-06-28_18-36-10_260595134347_rgbf000051-resize_1-target.png,250,2.429,2.057,1,1325,511,254,495,243,501,feet,,,,,1288314,1415513,49
376303,DepthScenes,duration_discrimination,discrim_jsons/d0.json,http://54.197.185.130/DepthDuration/depth_discrimination_MTurk/DepthDiscrim_HTML.html#4,4,1366,768,1366,768,6-9-2021,8-39-25,90,depth_discrimination_stimuli/000414_2014-06-04_19-49-13_260595134347_rgbf000044-resize_0/000414_2014-06-04_19-49-13_260595134347_rgbf000044-resize_0-target.png,depth_discrimination_stimuli/002663_2014-06-13_15-50-26_094959634447_rgbf000075-resize_1/002663_2014-06-13_15-50-26_094959634447_rgbf000075-resize_1-target.png,1000,4.329,4.7495,0,2045,509,998,500,997,511,feet,,,,,1288314,1415513,49
376303,DepthScenes,duration_discrimination,discrim_jsons/d0.json,http://54.197.185.130/DepthDuration/depth_discrimination_MTurk/DepthDiscrim_HTML.html#4,4,1366,768,1366,768,6-9-2021,8-39-25,91,depth_discrimination_stimuli/002725_2014-06-22_11-47-51_094959634447_rgbf000070-resize_1/002725_2014-06-22_11-47-51_094959634447_rgbf000070-resize_1-target.png,depth_discrimination_stimuli/002153_2014-06-25_21-27-18_260595134347_rgbf000038-resize_5/002153_2014-06-25_21-27-18_260595134347_rgbf000038-resize_5-target.png,1000,2.195,2.505,1,2006,505,996,514,1002,495,feet,,,,,1288314,1415513,49
376303,DepthScenes,duration_discrimination,discrim_jsons/d0.json,http://54.197.185.130/DepthDuration/depth_discrimination_MTurk/DepthDiscrim_HTML.html#4,4,1366,768,1366,768,6-9-2021,8-39-25,92,depth_discrimination_stimuli/002570_2014-06-24_13-59-54_094959634447_rgbf000059-resize_0/002570_2014-06-24_13-59-54_094959634447_rgbf000059-resize_0-target.png,depth_discrimination_stimuli/001584_2014-06-20_11-07-43_260595134347_rgbf000002-resize_1/001584_2014-06-20_11-07-43_260595134347_rgbf000002-resize_1-target.png,250,4.037,3.53,1,1592,505,247,501,249,500,feet,,,,,1288314,1415513,49
376303,DepthScenes,duration_discrimination,discrim_jsons/d0.json,http://54.197.185.130/DepthDuration/depth_discrimination_MTurk/DepthDiscrim_HTML.html#4,4,1366,768,1366,768,6-9-2021,8-39-25,93,depth_discrimination_stimuli/002072_2014-06-24_21-48-06_260595134347_rgbf000115-resize_0/002072_2014-06-24_21-48-06_260595134347_rgbf000115-resize_0-target.png,depth_discrimination_stimuli/001012_2014-06-08_23-19-38_260595134347_rgbf000057-resize_0/001012_2014-06-08_23-19-38_260595134347_rgbf000057-resize_0-target.png,250,4.702,1.38325,1,1357,509,242,506,246,501,feet,,,,,1288314,1415513,49
376303,DepthScenes,duration_discrimination,discrim_jsons/d0.json,http://54.197.185.130/DepthDuration/depth_discrimination_MTurk/DepthDiscrim_HTML.html#4,4,1366,768,1366,768,6-9-2021,8-39-25,94,depth_discrimination_stimuli/000470_2014-06-09_19-42-40_260595134347_rgbf000094-resize_1/000470_2014-06-09_19-42-40_260595134347_rgbf000094-resize_1-target.png,depth_discrimination_stimuli/000109_2014-05-14_23-41-52_260595134347_rgbf000035-resize_9/000109_2014-05-14_23-41-52_260595134347_rgbf000035-resize_9-target.png,1000,1.831,1.3545,1,1862,507,996,499,1014,486,feet,,,,,1288314,1415513,49
376303,DepthScenes,duration_discrimination,discrim_jsons/d0.json,http://54.197.185.130/DepthDuration/depth_discrimination_MTurk/DepthDiscrim_HTML.html#4,4,1366,768,1366,768,6-9-2021,8-39-25,95,depth_discrimination_stimuli/001011_2014-06-08_23-18-54_260595134347_rgbf000044-resize_4/001011_2014-06-08_23-18-54_260595134347_rgbf000044-resize_4-target.png,depth_discrimination_stimuli/002678_2014-06-13_16-15-32_094959634447_rgbf000151-resize_6/002678_2014-06-13_16-15-32_094959634447_rgbf000151-resize_6-target.png,1000,2.473,2.183,1,2236,507,999,498,1000,498,feet,,,,,1288314,1415513,49
376303,DepthScenes,duration_discrimination,discrim_jsons/d0.json,http://54.197.185.130/DepthDuration/depth_discrimination_MTurk/DepthDiscrim_HTML.html#4,4,1366,768,1366,768,6-9-2021,8-39-25,96,depth_discrimination_stimuli/001032_2014-06-08_13-23-17_260595134347_rgbf000021-resize_3/001032_2014-06-08_13-23-17_260595134347_rgbf000021-resize_3-target.png,depth_discrimination_stimuli/002790_2014-06-22_19-36-35_094959634447_rgbf000074-resize_4/002790_2014-06-22_19-36-35_094959634447_rgbf000074-resize_4-target.png,1000,3.2725,3.512,0,1964,516,993,505,999,496,feet,,,,,1288314,1415513,49
376303,DepthScenes,duration_discrimination,discrim_jsons/d0.json,http://54.197.185.130/DepthDuration/depth_discrimination_MTurk/DepthDiscrim_HTML.html#4,4,1366,768,1366,768,6-9-2021,8-39-25,96,,,,,,,1964,516,993,505,999,496,feet,,,,,1288314,1415513,49
376303,DepthScenes,duration_discrimination,discrim_jsons/d0.json,http://54.197.185.130/DepthDuration/depth_discrimination_MTurk/DepthDiscrim_HTML.html#4,4,1499,853,1366,768,6-9-2021,8-39-25,98,,,,,,,1964,516,993,505,999,496,feet,3,5,depth_discrimination_stimuli/001815_2014-06-26_20-52-55_260595134347_rgbf000020-resize_0/001815_2014-06-26_20-52-55_260595134347_rgbf000020-resize-original.jpg,14052,1288314,1415513,49
376303,DepthScenes,duration_discrimination,discrim_jsons/d0.json,http://54.197.185.130/DepthDuration/depth_discrimination_MTurk/DepthDiscrim_HTML.html#4,4,1499,853,1366,768,6-9-2021,8-39-25,99,,,,,,,1964,516,993,505,999,496,feet,2,3,depth_discrimination_stimuli/001289_2014-06-16_16-25-52_260595134347_rgbf000067-resize_1/001289_2014-06-16_16-25-52_260595134347_rgbf000067-resize-original.jpg,12413,1288314,1415513,49
376303,DepthScenes,duration_discrimination,discrim_jsons/d0.json,http://54.197.185.130/DepthDuration/depth_discrimination_MTurk/DepthDiscrim_HTML.html#4,4,1499,853,1366,768,6-9-2021,8-39-25,100,,,,,,,1964,516,993,505,999,496,feet,3,5,depth_discrimination_stimuli/000555_2014-06-09_22-42-23_260595134347_rgbf000037-resize_4/000555_2014-06-09_22-42-23_260595134347_rgbf000037-resize-original.jpg,4263,1288314,1415513,49
376303,DepthScenes,duration_discrimination,discrim_jsons/d0.json,http://54.197.185.130/DepthDuration/depth_discrimination_MTurk/DepthDiscrim_HTML.html#4,4,1499,853,1366,768,6-9-2021,8-39-25,101,,,,,,,1964,516,993,505,999,496,feet,1,3,depth_discrimination_stimuli/002340_2014-06-28_20-05-46_260595134347_rgbf000113-resize_0/002340_2014-06-28_20-05-46_260595134347_rgbf000113-resize-original.jpg,6997,1288314,1415513,49
376303,DepthScenes,duration_discrimination,discrim_jsons/d0.json,http://54.197.185.130/DepthDuration/depth_discrimination_MTurk/DepthDiscrim_HTML.html#4,4,1499,853,1366,768,6-9-2021,8-39-25,102,,,,,,,1964,516,993,505,999,496,feet,3,2,depth_discrimination_stimuli/000758_2014-06-08_22-05-08_260595134347_rgbf000085-resize_0/000758_2014-06-08_22-05-08_260595134347_rgbf000085-resize-original.jpg,6105,1288314,1415513,49
376303,DepthScenes,duration_discrimination,discrim_jsons/d0.json,http://54.197.185.130/DepthDuration/depth_discrimination_MTurk/DepthDiscrim_HTML.html#4,4,1499,853,1366,768,6-9-2021,8-39-25,103,,,,,,,1964,516,993,505,999,496,feet,2,2,depth_discrimination_stimuli/001650_2014-06-20_12-09-00_260595134347_rgbf000087-resize_3/001650_2014-06-20_12-09-00_260595134347_rgbf000087-resize-original.jpg,8542,1288314,1415513,49
376303,DepthScenes,duration_discrimination,discrim_jsons/d0.json,http://54.197.185.130/DepthDuration/depth_discrimination_MTurk/DepthDiscrim_HTML.html#4,4,1499,853,1366,768,6-9-2021,8-39-25,104,,,,,,,1964,516,993,505,999,496,feet,3,1,depth_discrimination_stimuli/001570_2014-06-20_17-21-09_260595134347_rgbf000135-resize_4/001570_2014-06-20_17-21-09_260595134347_rgbf000135-resize-original.jpg,5083,1288314,1415513,49
376303,DepthScenes,duration_discrimination,discrim_jsons/d0.json,http://54.197.185.130/DepthDuration/depth_discrimination_MTurk/DepthDiscrim_HTML.html#4,4,1499,853,1366,768,6-9-2021,8-39-25,105,,,,,,,1964,516,993,505,999,496,feet,3,1,depth_discrimination_stimuli/000409_2014-06-04_19-23-33_260595134347_rgbf000067-resize_0/000409_2014-06-04_19-23-33_260595134347_rgbf000067-resize-original.jpg,8485,1288314,1415513,49
376303,DepthScenes,duration_discrimination,discrim_jsons/d0.json,http://54.197.185.130/DepthDuration/depth_discrimination_MTurk/DepthDiscrim_HTML.html#4,4,1499,853,1366,768,6-9-2021,8-39-25,106,,,,,,,1964,516,993,505,999,496,feet,2,1,depth_discrimination_stimuli/001199_2014-06-17_16-03-48_260595134347_rgbf000077-resize_0/001199_2014-06-17_16-03-48_260595134347_rgbf000077-resize-original.jpg,5773,1288314,1415513,49
376303,DepthScenes,duration_discrimination,discrim_jsons/d0.json,http://54.197.185.130/DepthDuration/depth_discrimination_MTurk/DepthDiscrim_HTML.html#4,4,1499,853,1366,768,6-9-2021,8-39-25,107,,,,,,,1964,516,993,505,999,496,feet,2,1,depth_discrimination_stimuli/001555_2014-06-20_17-12-10_260595134347_rgbf000065-resize_4/001555_2014-06-20_17-12-10_260595134347_rgbf000065-resize-original.jpg,4017,1288314,1415513,49
376303,DepthScenes,duration_discrimination,discrim_jsons/d0.json,http://54.197.185.130/DepthDuration/depth_discrimination_MTurk/DepthDiscrim_HTML.html#4,4,1499,853,1366,768,6-9-2021,8-39-25,108,,,,,,,1964,516,993,505,999,496,feet,4,2,depth_discrimination_stimuli/000368_2014-06-09_15-53-01_260595134347_rgbf000155-resize_2/000368_2014-06-09_15-53-01_260595134347_rgbf000155-resize-original.jpg,8098,1288314,1415513,49
376303,DepthScenes,duration_discrimination,discrim_jsons/d0.json,http://54.197.185.130/DepthDuration/depth_discrimination_MTurk/DepthDiscrim_HTML.html#4,4,1499,853,1366,768,6-9-2021,8-39-25,109,,,,,,,1964,516,993,505,999,496,feet,4,1,depth_discrimination_stimuli/002805_2014-06-22_19-54-03_094959634447_rgbf000079-resize_1/002805_2014-06-22_19-54-03_094959634447_rgbf000079-resize-original.jpg,3704,1288314,1415513,49
376303,DepthScenes,duration_discrimination,discrim_jsons/d0.json,http://54.197.185.130/DepthDuration/depth_discrimination_MTurk/DepthDiscrim_HTML.html#4,4,1499,853,1366,768,6-9-2021,8-39-25,110,,,,,,,1964,516,993,505,999,496,feet,2,1,depth_discrimination_stimuli/000878_2014-06-08_22-52-45_260595134347_rgbf000045-resize_2/000878_2014-06-08_22-52-45_260595134347_rgbf000045-resize-original.jpg,3922,1288314,1415513,49
376303,DepthScenes,duration_discrimination,discrim_jsons/d0.json,http://54.197.185.130/DepthDuration/depth_discrimination_MTurk/DepthDiscrim_HTML.html#4,4,1499,853,1366,768,6-9-2021,8-39-25,111,,,,,,,1964,516,993,505,999,496,feet,2,1,scene_property_catch_stimuli/000675_2014-06-08_22-59-18_260595134347_rgbf000096-resize.jpg,3295,1288314,1415513,49
376303,DepthScenes,duration_discrimination,discrim_jsons/d0.json,http://54.197.185.130/DepthDuration/depth_discrimination_MTurk/DepthDiscrim_HTML.html#4,4,1499,853,1366,768,6-9-2021,8-39-25,112,,,,,,,1964,516,993,505,999,496,feet,3,1,depth_discrimination_stimuli/002445_2014-06-28_20-32-16_260595134347_rgbf000029-resize_4/002445_2014-06-28_20-32-16_260595134347_rgbf000029-resize-original.jpg,3368,1288314,1415513,49
376303,DepthScenes,duration_discrimination,discrim_jsons/d0.json,http://54.197.185.130/DepthDuration/depth_discrimination_MTurk/DepthDiscrim_HTML.html#4,4,1499,853,1366,768,6-9-2021,8-39-25,113,,,,,,,1964,516,993,505,999,496,feet,2,1,depth_discrimination_stimuli/000191_2014-05-12_17-07-38_260595134347_rgbf000199-resize_0/000191_2014-05-12_17-07-38_260595134347_rgbf000199-resize-original.jpg,5107,1288314,1415513,49
376303,DepthScenes,duration_discrimination,discrim_jsons/d0.json,http://54.197.185.130/DepthDuration/depth_discrimination_MTurk/DepthDiscrim_HTML.html#4,4,1499,853,1366,768,6-9-2021,8-39-25,114,,,,,,,1964,516,993,505,999,496,feet,2,2,depth_discrimination_stimuli/002131_2014-06-25_21-12-01_260595134347_rgbf000083-resize_0/002131_2014-06-25_21-12-01_260595134347_rgbf000083-resize-original.jpg,6433,1288314,1415513,49
376303,DepthScenes,duration_discrimination,discrim_jsons/d0.json,http://54.197.185.130/DepthDuration/depth_discrimination_MTurk/DepthDiscrim_HTML.html#4,4,1499,853,1366,768,6-9-2021,8-39-25,115,,,,,,,1964,516,993,505,999,496,feet,2,1,depth_discrimination_stimuli/003079_2014-06-15_15-18-20_094959634447_rgbf000152-resize_8/003079_2014-06-15_15-18-20_094959634447_rgbf000152-resize-original.jpg,2743,1288314,1415513,49
376303,DepthScenes,duration_discrimination,discrim_jsons/d0.json,http://54.197.185.130/DepthDuration/depth_discrimination_MTurk/DepthDiscrim_HTML.html#4,4,1499,853,1366,768,6-9-2021,8-39-25,116,,,,,,,1964,516,993,505,999,496,feet,3,1,depth_discrimination_stimuli/002678_2014-06-13_16-15-32_094959634447_rgbf000151-resize_6/002678_2014-06-13_16-15-32_094959634447_rgbf000151-resize-original.jpg,3037,1288314,1415513,49
376303,DepthScenes,duration_discrimination,discrim_jsons/d0.json,http://54.197.185.130/DepthDuration/depth_discrimination_MTurk/DepthDiscrim_HTML.html#4,4,1499,853,1366,768,6-9-2021,8-39-25,117,,,,,,,1964,516,993,505,999,496,feet,2,1,depth_discrimination_stimuli/000927_2014-06-09_16-32-30_260595134347_rgbf000123-resize_3/000927_2014-06-09_16-32-30_260595134347_rgbf000123-resize-original.jpg,2767,1288314,1415513,49
376303,DepthScenes,duration_discrimination,discrim_jsons/d0.json,http://54.197.185.130/DepthDuration/depth_discrimination_MTurk/DepthDiscrim_HTML.html#4,4,1499,853,1366,768,6-9-2021,8-39-25,118,,,,,,,1964,516,993,505,999,496,feet,2,1,depth_discrimination_stimuli/001244_2014-06-17_16-47-45_260595134347_rgbf000030-resize_4/001244_2014-06-17_16-47-45_260595134347_rgbf000030-resize-original.jpg,2888,1288314,1415513,49
376303,DepthScenes,duration_discrimination,discrim_jsons/d0.json,http://54.197.185.130/DepthDuration/depth_discrimination_MTurk/DepthDiscrim_HTML.html#4,4,1499,853,1366,768,6-9-2021,8-39-25,119,,,,,,,1964,516,993,505,999,496,feet,2,2,depth_discrimination_stimuli/001828_2014-06-26_21-40-03_260595134347_rgbf000024-resize_0/001828_2014-06-26_21-40-03_260595134347_rgbf000024-resize-original.jpg,4428,1288314,1415513,49
376303,DepthScenes,duration_discrimination,discrim_jsons/d0.json,http://54.197.185.130/DepthDuration/depth_discrimination_MTurk/DepthDiscrim_HTML.html#4,4,1499,853,1366,768,6-9-2021,8-39-25,120,,,,,,,1964,516,993,505,999,496,feet,3,1,depth_discrimination_stimuli/001181_2014-06-17_15-50-57_260595134347_rgbf000106-resize_4/001181_2014-06-17_15-50-57_260595134347_rgbf000106-resize-original.jpg,2641,1288314,1415513,49
376303,DepthScenes,duration_discrimination,discrim_jsons/d0.json,http://54.197.185.130/DepthDuration/depth_discrimination_MTurk/DepthDiscrim_HTML.html#4,4,1499,853,1366,768,6-9-2021,8-39-25,121,,,,,,,1964,516,993,505,999,496,feet,1,3,depth_discrimination_stimuli/000436_2014-06-09_22-25-11_260595134347_rgbf000137-resize_1/000436_2014-06-09_22-25-11_260595134347_rgbf000137-resize-original.jpg,5579,1288314,1415513,49
376303,DepthScenes,duration_discrimination,discrim_jsons/d0.json,http://54.197.185.130/DepthDuration/depth_discrimination_MTurk/DepthDiscrim_HTML.html#4,4,1499,853,1366,768,6-9-2021,8-39-25,122,,,,,,,1964,516,993,505,999,496,feet,2,2,depth_discrimination_stimuli/000739_2014-06-08_18-45-58_260595134347_rgbf000068-resize_1/000739_2014-06-08_18-45-58_260595134347_rgbf000068-resize-original.jpg,4242,1288314,1415513,49
376303,DepthScenes,duration_discrimination,discrim_jsons/d0.json,http://54.197.185.130/DepthDuration/depth_discrimination_MTurk/DepthDiscrim_HTML.html#4,4,1499,853,1366,768,6-9-2021,8-39-25,123,,,,,,,1964,516,993,505,999,496,feet,2,2,depth_discrimination_stimuli/000740_2014-06-08_18-46-23_260595134347_rgbf000049-resize_6/000740_2014-06-08_18-46-23_260595134347_rgbf000049-resize-original.jpg,3730,1288314,1415513,49
376303,DepthScenes,duration_discrimination,discrim_jsons/d0.json,http://54.197.185.130/DepthDuration/depth_discrimination_MTurk/DepthDiscrim_HTML.html#4,4,1499,853,1366,768,6-9-2021,8-39-25,124,,,,,,,1964,516,993,505,999,496,feet,3,2,depth_discrimination_stimuli/003490_2014-05-21_15-50-11_094959634447_rgbf000101-resize_3/003490_2014-05-21_15-50-11_094959634447_rgbf000101-resize-original.jpg,4289,1288314,1415513,49
376303,DepthScenes,duration_discrimination,discrim_jsons/d0.json,http://54.197.185.130/DepthDuration/depth_discrimination_MTurk/DepthDiscrim_HTML.html#4,4,1499,853,1366,768,6-9-2021,8-39-25,125,,,,,,,1964,516,993,505,999,496,feet,3,2,depth_discrimination_stimuli/001235_2014-06-17_16-37-36_260595134347_rgbf000084-resize_4/001235_2014-06-17_16-37-36_260595134347_rgbf000084-resize-original.jpg,4428,1288314,1415513,49
376303,DepthScenes,duration_discrimination,discrim_jsons/d0.json,http://54.197.185.130/DepthDuration/depth_discrimination_MTurk/DepthDiscrim_HTML.html#4,4,1499,853,1366,768,6-9-2021,8-39-25,126,,,,,,,1964,516,993,505,999,496,feet,2,2,depth_discrimination_stimuli/002199_2014-06-28_18-33-56_260595134347_rgbf000074-resize_0/002199_2014-06-28_18-33-56_260595134347_rgbf000074-resize-original.jpg,4796,1288314,1415513,49
376303,DepthScenes,duration_discrimination,discrim_jsons/d0.json,http://54.197.185.130/DepthDuration/depth_discrimination_MTurk/DepthDiscrim_HTML.html#4,4,1499,853,1366,768,6-9-2021,8-39-25,127,,,,,,,1964,516,993,505,999,496,feet,2,1,depth_discrimination_stimuli/002460_2014-06-28_20-35-43_260595134347_rgbf000028-resize_4/002460_2014-06-28_20-35-43_260595134347_rgbf000028-resize-original.jpg,3265,1288314,1415513,49
376303,DepthScenes,duration_discrimination,discrim_jsons/d0.json,http://54.197.185.130/DepthDuration/depth_discrimination_MTurk/DepthDiscrim_HTML.html#4,4,1499,853,1366,768,6-9-2021,8-39-25,128,,,,,,,1964,516,993,505,999,496,feet,2,1,depth_discrimination_stimuli/001808_2014-06-26_20-50-58_260595134347_rgbf000029-resize_1/001808_2014-06-26_20-50-58_260595134347_rgbf000029-resize-original.jpg,4052,1288314,1415513,49
376303,DepthScenes,duration_discrimination,discrim_jsons/d0.json,http://54.197.185.130/DepthDuration/depth_discrimination_MTurk/DepthDiscrim_HTML.html#4,4,1499,853,1366,768,6-9-2021,8-39-25,129,,,,,,,1964,516,993,505,999,496,feet,2,2,depth_discrimination_stimuli/002657_2014-06-13_15-29-54_094959634447_rgbf000150-resize_1/002657_2014-06-13_15-29-54_094959634447_rgbf000150-resize-original.jpg,4658,1288314,1415513,49
376303,DepthScenes,duration_discrimination,discrim_jsons/d0.json,http://54.197.185.130/DepthDuration/depth_discrimination_MTurk/DepthDiscrim_HTML.html#4,4,1499,853,1366,768,6-9-2021,8-39-25,130,,,,,,,1964,516,993,505,999,496,feet,2,1,depth_discrimination_stimuli/002788_2014-06-22_19-36-03_094959634447_rgbf000088-resize_2/002788_2014-06-22_19-36-03_094959634447_rgbf000088-resize-original.jpg,5628,1288314,1415513,49
376303,DepthScenes,duration_discrimination,discrim_jsons/d0.json,http://54.197.185.130/DepthDuration/depth_discrimination_MTurk/DepthDiscrim_HTML.html#4,4,1499,853,1366,768,6-9-2021,8-39-25,131,,,,,,,1964,516,993,505,999,496,feet,3,1,depth_discrimination_stimuli/001016_2014-06-09_16-16-10_260595134347_rgbf000112-resize_5/001016_2014-06-09_16-16-10_260595134347_rgbf000112-resize-original.jpg,3302,1288314,1415513,49
376303,DepthScenes,duration_discrimination,discrim_jsons/d0.json,http://54.197.185.130/DepthDuration/depth_discrimination_MTurk/DepthDiscrim_HTML.html#4,4,1499,853,1366,768,6-9-2021,8-39-25,132,,,,,,,1964,516,993,505,999,496,feet,3,2,depth_discrimination_stimuli/002660_2014-06-13_15-44-18_094959634447_rgbf001878-resize_2/002660_2014-06-13_15-44-18_094959634447_rgbf001878-resize-original.jpg,6709,1288314,1415513,49
376303,DepthScenes,duration_discrimination,discrim_jsons/d0.json,http://54.197.185.130/DepthDuration/depth_discrimination_MTurk/DepthDiscrim_HTML.html#4,4,1499,853,1366,768,6-9-2021,8-39-25,133,,,,,,,1964,516,993,505,999,496,feet,2,2,depth_discrimination_stimuli/000749_2014-06-08_21-55-06_260595134347_rgbf000070-resize_2/000749_2014-06-08_21-55-06_260595134347_rgbf000070-resize-original.jpg,4090,1288314,1415513,49
376303,DepthScenes,duration_discrimination,discrim_jsons/d0.json,http://54.197.185.130/DepthDuration/depth_discrimination_MTurk/DepthDiscrim_HTML.html#4,4,1499,853,1366,768,6-9-2021,8-39-25,134,,,,,,,1964,516,993,505,999,496,feet,3,2,depth_discrimination_stimuli/003423_2014-05-21_10-23-26_094959634447_rgbf002665-resize_2/003423_2014-05-21_10-23-26_094959634447_rgbf002665-resize-original.jpg,3160,1288314,1415513,49
376303,DepthScenes,duration_discrimination,discrim_jsons/d0.json,http://54.197.185.130/DepthDuration/depth_discrimination_MTurk/DepthDiscrim_HTML.html#4,4,1499,853,1366,768,6-9-2021,8-39-25,135,,,,,,,1964,516,993,505,999,496,feet,3,1,depth_discrimination_stimuli/001197_2014-06-17_16-01-50_260595134347_rgbf000103-resize_4/001197_2014-06-17_16-01-50_260595134347_rgbf000103-resize-original.jpg,4280,1288314,1415513,49
376303,DepthScenes,duration_discrimination,discrim_jsons/d0.json,http://54.197.185.130/DepthDuration/depth_discrimination_MTurk/DepthDiscrim_HTML.html#4,4,1499,853,1366,768,6-9-2021,8-39-25,136,,,,,,,1964,516,993,505,999,496,feet,3,2,depth_discrimination_stimuli/000917_2014-06-09_22-45-29_260595134347_rgbf000149-resize_3/000917_2014-06-09_22-45-29_260595134347_rgbf000149-resize-original.jpg,5107,1288314,1415513,49
376303,DepthScenes,duration_discrimination,discrim_jsons/d0.json,http://54.197.185.130/DepthDuration/depth_discrimination_MTurk/DepthDiscrim_HTML.html#4,4,1499,853,1366,768,6-9-2021,8-39-25,137,,,,,,,1964,516,993,505,999,496,feet,3,1,depth_discrimination_stimuli/001059_2014-06-08_21-53-27_260595134347_rgbf000061-resize_4/001059_2014-06-08_21-53-27_260595134347_rgbf000061-resize-original.jpg,6517,1288314,1415513,49
376303,DepthScenes,duration_discrimination,discrim_jsons/d0.json,http://54.197.185.130/DepthDuration/depth_discrimination_MTurk/DepthDiscrim_HTML.html#4,4,1499,853,1366,768,6-9-2021,8-39-25,138,,,,,,,1964,516,993,505,999,496,feet,3,1,depth_discrimination_stimuli/000691_2014-06-08_13-08-50_260595134347_rgbf000132-resize_3/000691_2014-06-08_13-08-50_260595134347_rgbf000132-resize-original.jpg,4404,1288314,1415513,49
376303,DepthScenes,duration_discrimination,discrim_jsons/d0.json,http://54.197.185.130/DepthDuration/depth_discrimination_MTurk/DepthDiscrim_HTML.html#4,4,1499,853,1366,768,6-9-2021,8-39-25,139,,,,,,,1964,516,993,505,999,496,feet,2,1,depth_discrimination_stimuli/002987_2014-06-08_18-48-20_094959634447_rgbf000022-resize_0/002987_2014-06-08_18-48-20_094959634447_rgbf000022-resize-original.jpg,4372,1288314,1415513,49
376303,DepthScenes,duration_discrimination,discrim_jsons/d0.json,http://54.197.185.130/DepthDuration/depth_discrimination_MTurk/DepthDiscrim_HTML.html#4,4,1499,853,1366,768,6-9-2021,8-39-25,140,,,,,,,1964,516,993,505,999,496,feet,3,4,depth_discrimination_stimuli/003338_2014-05-20_11-01-23_094959634447_rgbf000051-resize_6/003338_2014-05-20_11-01-23_094959634447_rgbf000051-resize-original.jpg,10876,1288314,1415513,49
376303,DepthScenes,duration_discrimination,discrim_jsons/d0.json,http://54.197.185.130/DepthDuration/depth_discrimination_MTurk/DepthDiscrim_HTML.html#4,4,1499,853,1366,768,6-9-2021,8-39-25,141,,,,,,,1964,516,993,505,999,496,feet,2,1,depth_discrimination_stimuli/000009_2014-05-26_14-32-05_260595134347_rgbf000034-resize_3/000009_2014-05-26_14-32-05_260595134347_rgbf000034-resize-original.jpg,3755,1288314,1415513,49
376303,DepthScenes,duration_discrimination,discrim_jsons/d0.json,http://54.197.185.130/DepthDuration/depth_discrimination_MTurk/DepthDiscrim_HTML.html#4,4,1499,853,1366,768,6-9-2021,8-39-25,142,,,,,,,1964,516,993,505,999,496,feet,5,1,scene_property_catch_stimuli/sun_aoquhiddlfqapdlz.jpg,6343,1288314,1415513,49
376303,DepthScenes,duration_discrimination,discrim_jsons/d0.json,http://54.197.185.130/DepthDuration/depth_discrimination_MTurk/DepthDiscrim_HTML.html#4,4,1499,853,1366,768,6-9-2021,8-39-25,143,,,,,,,1964,516,993,505,999,496,feet,2,1,depth_discrimination_stimuli/003534_2014-05-22_15-06-10_094959634447_rgbf000102-resize_4/003534_2014-05-22_15-06-10_094959634447_rgbf000102-resize-original.jpg,3355,1288314,1415513,49
376303,DepthScenes,duration_discrimination,discrim_jsons/d0.json,http://54.197.185.130/DepthDuration/depth_discrimination_MTurk/DepthDiscrim_HTML.html#4,4,1499,853,1366,768,6-9-2021,8-39-25,144,,,,,,,1964,516,993,505,999,496,feet,2,1,depth_discrimination_stimuli/001167_2014-06-17_15-38-07_260595134347_rgbf000108-resize_0/001167_2014-06-17_15-38-07_260595134347_rgbf000108-resize-original.jpg,3175,1288314,1415513,49
376303,DepthScenes,duration_discrimination,discrim_jsons/d0.json,http://54.197.185.130/DepthDuration/depth_discrimination_MTurk/DepthDiscrim_HTML.html#4,4,1499,853,1366,768,6-9-2021,8-39-25,145,,,,,,,1964,516,993,505,999,496,feet,2,1,depth_discrimination_stimuli/000506_2014-06-08_23-21-00_260595134347_rgbf000070-resize_7/000506_2014-06-08_23-21-00_260595134347_rgbf000070-resize-original.jpg,3678,1288314,1415513,49
376303,DepthScenes,duration_discrimination,discrim_jsons/d0.json,http://54.197.185.130/DepthDuration/depth_discrimination_MTurk/DepthDiscrim_HTML.html#4,4,1499,853,1366,768,6-9-2021,8-39-25,146,,,,,,,1964,516,993,505,999,496,feet,2,2,depth_discrimination_stimuli/000773_2014-06-08_22-24-54_260595134347_rgbf000093-resize_1/000773_2014-06-08_22-24-54_260595134347_rgbf000093-resize-original.jpg,5867,1288314,1415513,49
376303,DepthScenes,duration_discrimination,discrim_jsons/d0.json,http://54.197.185.130/DepthDuration/depth_discrimination_MTurk/DepthDiscrim_HTML.html#4,4,1499,853,1366,768,6-9-2021,8-39-25,147,,,,,,,1964,516,993,505,999,496,feet,2,2,depth_discrimination_stimuli/003292_2014-05-14_21-53-49_094959634447_rgbf000100-resize_2/003292_2014-05-14_21-53-49_094959634447_rgbf000100-resize-original.jpg,3790,1288314,1415513,49
376303,DepthScenes,duration_discrimination,discrim_jsons/d0.json,http://54.197.185.130/DepthDuration/depth_discrimination_MTurk/DepthDiscrim_HTML.html#4,4,1499,853,1366,768,6-9-2021,8-39-25,148,,,,,,,1964,516,993,505,999,496,feet,2,1,depth_discrimination_stimuli/002750_2014-06-22_19-08-03_094959634447_rgbf000094-resize_4/002750_2014-06-22_19-08-03_094959634447_rgbf000094-resize-original.jpg,3392,1288314,1415513,49
376303,DepthScenes,duration_discrimination,discrim_jsons/d0.json,http://54.197.185.130/DepthDuration/depth_discrimination_MTurk/DepthDiscrim_HTML.html#4,4,1499,853,1366,768,6-9-2021,8-39-25,149,,,,,,,1964,516,993,505,999,496,feet,2,3,scene_property_catch_stimuli/sun_bpzzatthlcapxzol.jpg,3712,1288314,1415513,49
376303,DepthScenes,duration_discrimination,discrim_jsons/d0.json,http://54.197.185.130/DepthDuration/depth_discrimination_MTurk/DepthDiscrim_HTML.html#4,4,1499,853,1366,768,6-9-2021,8-39-25,150,,,,,,,1964,516,993,505,999,496,feet,2,1,depth_discrimination_stimuli/002425_2014-06-28_20-27-29_260595134347_rgbf000031-resize_8/002425_2014-06-28_20-27-29_260595134347_rgbf000031-resize-original.jpg,3662,1288314,1415513,49
376303,DepthScenes,duration_discrimination,discrim_jsons/d0.json,http://54.197.185.130/DepthDuration/depth_discrimination_MTurk/DepthDiscrim_HTML.html#4,4,1499,853,1366,768,6-9-2021,8-39-25,151,,,,,,,1964,516,993,505,999,496,feet,2,3,depth_discrimination_stimuli/002579_2014-06-24_14-08-03_094959634447_rgbf000061-resize_2/002579_2014-06-24_14-08-03_094959634447_rgbf000061-resize-original.jpg,4080,1288314,1415513,49
376303,DepthScenes,duration_discrimination,discrim_jsons/d0.json,http://54.197.185.130/DepthDuration/depth_discrimination_MTurk/DepthDiscrim_HTML.html#4,4,1499,853,1366,768,6-9-2021,8-39-25,152,,,,,,,1964,516,993,505,999,496,feet,2,3,depth_discrimination_stimuli/000522_2014-06-08_13-35-06_260595134347_rgbf000244-resize_1/000522_2014-06-08_13-35-06_260595134347_rgbf000244-resize-original.jpg,2819,1288314,1415513,49
376303,DepthScenes,duration_discrimination,discrim_jsons/d0.json,http://54.197.185.130/DepthDuration/depth_discrimination_MTurk/DepthDiscrim_HTML.html#4,4,1499,853,1366,768,6-9-2021,8-39-25,153,,,,,,,1964,516,993,505,999,496,feet,2,3,depth_discrimination_stimuli/000735_2014-06-08_18-23-50_260595134347_rgbf000163-resize_2/000735_2014-06-08_18-23-50_260595134347_rgbf000163-resize-original.jpg,2939,1288314,1415513,49
376303,DepthScenes,duration_discrimination,discrim_jsons/d0.json,http://54.197.185.130/DepthDuration/depth_discrimination_MTurk/DepthDiscrim_HTML.html#4,4,1499,853,1366,768,6-9-2021,8-39-25,154,,,,,,,1964,516,993,505,999,496,feet,2,2,depth_discrimination_stimuli/001148_2014-06-17_15-26-42_260595134347_rgbf000129-resize_0/001148_2014-06-17_15-26-42_260595134347_rgbf000129-resize-original.jpg,2976,1288314,1415513,49
376303,DepthScenes,duration_discrimination,discrim_jsons/d0.json,http://54.197.185.130/DepthDuration/depth_discrimination_MTurk/DepthDiscrim_HTML.html#4,4,1499,853,1366,768,6-9-2021,8-39-25,155,,,,,,,1964,516,993,505,999,496,feet,2,3,depth_discrimination_stimuli/000642_2014-06-08_16-59-25_260595134347_rgbf000098-resize_2/000642_2014-06-08_16-59-25_260595134347_rgbf000098-resize-original.jpg,3436,1288314,1415513,49
376303,DepthScenes,duration_discrimination,discrim_jsons/d0.json,http://54.197.185.130/DepthDuration/depth_discrimination_MTurk/DepthDiscrim_HTML.html#4,4,1499,853,1366,768,6-9-2021,8-39-25,156,,,,,,,1964,516,993,505,999,496,feet,2,1,depth_discrimination_stimuli/001100_2014-06-15_17-46-26_260595134347_rgbf000225-resize_2/001100_2014-06-15_17-46-26_260595134347_rgbf000225-resize-original.jpg,2782,1288314,1415513,49
376303,DepthScenes,duration_discrimination,discrim_jsons/d0.json,http://54.197.185.130/DepthDuration/depth_discrimination_MTurk/DepthDiscrim_HTML.html#4,4,1499,853,1366,768,6-9-2021,8-39-25,157,,,,,,,1964,516,993,505,999,496,feet,2,3,depth_discrimination_stimuli/000736_2014-06-08_18-24-15_260595134347_rgbf000206-resize_3/000736_2014-06-08_18-24-15_260595134347_rgbf000206-resize-original.jpg,2366,1288314,1415513,49
376303,DepthScenes,duration_discrimination,discrim_jsons/d0.json,http://54.197.185.130/DepthDuration/depth_discrimination_MTurk/DepthDiscrim_HTML.html#4,4,1499,853,1366,768,6-9-2021,8-39-25,158,,,,,,,1964,516,993,505,999,496,feet,2,3,depth_discrimination_stimuli/003069_2014-06-15_14-57-50_094959634447_rgbf000150-resize_4/003069_2014-06-15_14-57-50_094959634447_rgbf000150-resize-original.jpg,2746,1288314,1415513,49
376303,DepthScenes,duration_discrimination,discrim_jsons/d0.json,http://54.197.185.130/DepthDuration/depth_discrimination_MTurk/DepthDiscrim_HTML.html#4,4,1499,853,1366,768,6-9-2021,8-39-25,159,,,,,,,1964,516,993,505,999,496,feet,2,3,depth_discrimination_stimuli/002995_2014-06-15_12-31-26_094959634447_rgbf000150-resize_1/002995_2014-06-15_12-31-26_094959634447_rgbf000150-resize-original.jpg,3616,1288314,1415513,49
376303,DepthScenes,duration_discrimination,discrim_jsons/d0.json,http://54.197.185.130/DepthDuration/depth_discrimination_MTurk/DepthDiscrim_HTML.html#4,4,1499,853,1366,768,6-9-2021,8-39-25,160,,,,,,,1964,516,993,505,999,496,feet,2,1,depth_discrimination_stimuli/001571_2014-06-20_17-21-32_260595134347_rgbf000089-resize_1/001571_2014-06-20_17-21-32_260595134347_rgbf000089-resize-original.jpg,2405,1288314,1415513,49
376303,DepthScenes,duration_discrimination,discrim_jsons/d0.json,http://54.197.185.130/DepthDuration/depth_discrimination_MTurk/DepthDiscrim_HTML.html#4,4,1499,853,1366,768,6-9-2021,8-39-25,161,,,,,,,1964,516,993,505,999,496,feet,2,2,depth_discrimination_stimuli/000635_2014-06-08_16-38-42_260595134347_rgbf000106-resize_1/000635_2014-06-08_16-38-42_260595134347_rgbf000106-resize-original.jpg,3247,1288314,1415513,49
376303,DepthScenes,duration_discrimination,discrim_jsons/d0.json,http://54.197.185.130/DepthDuration/depth_discrimination_MTurk/DepthDiscrim_HTML.html#4,4,1499,853,1366,768,6-9-2021,8-39-25,162,,,,,,,1964,516,993,505,999,496,feet,2,1,depth_discrimination_stimuli/000502_2014-06-08_23-02-32_260595134347_rgbf000063-resize_4/000502_2014-06-08_23-02-32_260595134347_rgbf000063-resize-original.jpg,2483,1288314,1415513,49
376303,DepthScenes,duration_discrimination,discrim_jsons/d0.json,http://54.197.185.130/DepthDuration/depth_discrimination_MTurk/DepthDiscrim_HTML.html#4,4,1499,853,1366,768,6-9-2021,8-39-25,163,,,,,,,1964,516,993,505,999,496,feet,2,3,depth_discrimination_stimuli/002700_2014-06-22_11-27-02_094959634447_rgbf000124-resize_3/002700_2014-06-22_11-27-02_094959634447_rgbf000124-resize-original.jpg,3292,1288314,1415513,49
376303,DepthScenes,duration_discrimination,discrim_jsons/d0.json,http://54.197.185.130/DepthDuration/depth_discrimination_MTurk/DepthDiscrim_HTML.html#4,4,1499,853,1366,768,6-9-2021,8-39-25,164,,,,,,,1964,516,993,505,999,496,feet,2,3,depth_discrimination_stimuli/003492_2014-05-21_15-50-55_094959634447_rgbf000828-resize_1/003492_2014-05-21_15-50-55_094959634447_rgbf000828-resize-original.jpg,1873,1288314,1415513,49
376303,DepthScenes,duration_discrimination,discrim_jsons/d0.json,http://54.197.185.130/DepthDuration/depth_discrimination_MTurk/DepthDiscrim_HTML.html#4,4,1499,853,1366,768,6-9-2021,8-39-25,165,,,,,,,1964,516,993,505,999,496,feet,2,1,depth_discrimination_stimuli/002279_2014-06-28_18-55-32_260595134347_rgbf000040-resize_5/002279_2014-06-28_18-55-32_260595134347_rgbf000040-resize-original.jpg,4687,1288314,1415513,49
376303,DepthScenes,duration_discrimination,discrim_jsons/d0.json,http://54.197.185.130/DepthDuration/depth_discrimination_MTurk/DepthDiscrim_HTML.html#4,4,1499,853,1366,768,6-9-2021,8-39-25,166,,,,,,,1964,516,993,505,999,496,feet,3,1,depth_discrimination_stimuli/002600_2014-06-24_14-27-04_094959634447_rgbf000074-resize_2/002600_2014-06-24_14-27-04_094959634447_rgbf000074-resize-original.jpg,3837,1288314,1415513,49
376303,DepthScenes,duration_discrimination,discrim_jsons/d0.json,http://54.197.185.130/DepthDuration/depth_discrimination_MTurk/DepthDiscrim_HTML.html#4,4,1499,853,1366,768,6-9-2021,8-39-25,167,,,,,,,1964,516,993,505,999,496,feet,3,1,depth_discrimination_stimuli/002103_2014-06-25_20-00-40_260595134347_rgbf000049-resize_0/002103_2014-06-25_20-00-40_260595134347_rgbf000049-resize-original.jpg,3300,1288314,1415513,49
376303,DepthScenes,duration_discrimination,discrim_jsons/d0.json,http://54.197.185.130/DepthDuration/depth_discrimination_MTurk/DepthDiscrim_HTML.html#4,4,1499,853,1366,768,6-9-2021,8-39-25,168,,,,,,,1964,516,993,505,999,496,feet,2,1,depth_discrimination_stimuli/001188_2014-06-17_15-54-10_260595134347_rgbf000090-resize_2/001188_2014-06-17_15-54-10_260595134347_rgbf000090-resize-original.jpg,2936,1288314,1415513,49
376303,DepthScenes,duration_discrimination,discrim_jsons/d0.json,http://54.197.185.130/DepthDuration/depth_discrimination_MTurk/DepthDiscrim_HTML.html#4,4,1499,853,1366,768,6-9-2021,8-39-25,169,,,,,,,1964,516,993,505,999,496,feet,2,2,depth_discrimination_stimuli/001052_2014-06-08_18-24-54_260595134347_rgbf000130-resize_1/001052_2014-06-08_18-24-54_260595134347_rgbf000130-resize-original.jpg,4249,1288314,1415513,49
376303,DepthScenes,duration_discrimination,discrim_jsons/d0.json,http://54.197.185.130/DepthDuration/depth_discrimination_MTurk/DepthDiscrim_HTML.html#4,4,1499,853,1366,768,6-9-2021,8-39-25,170,,,,,,,1964,516,993,505,999,496,feet,2,1,depth_discrimination_stimuli/002988_2014-06-15_12-24-20_094959634447_rgbf000150-resize_1/002988_2014-06-15_12-24-20_094959634447_rgbf000150-resize-original.jpg,4058,1288314,1415513,49
376303,DepthScenes,duration_discrimination,discrim_jsons/d0.json,http://54.197.185.130/DepthDuration/depth_discrimination_MTurk/DepthDiscrim_HTML.html#4,4,1499,853,1366,768,6-9-2021,8-39-25,171,,,,,,,1964,516,993,505,999,496,feet,2,4,depth_discrimination_stimuli/002630_2014-06-24_14-47-50_094959634447_rgbf000055-resize_1/002630_2014-06-24_14-47-50_094959634447_rgbf000055-resize-original.jpg,6030,1288314,1415513,49
376303,DepthScenes,duration_discrimination,discrim_jsons/d0.json,http://54.197.185.130/DepthDuration/depth_discrimination_MTurk/DepthDiscrim_HTML.html#4,4,1499,853,1366,768,6-9-2021,8-39-25,172,,,,,,,1964,516,993,505,999,496,feet,2,2,depth_discrimination_stimuli/003092_2014-06-24_21-01-49_094959634447_rgbf000049-resize_2/003092_2014-06-24_21-01-49_094959634447_rgbf000049-resize-original.jpg,4312,1288314,1415513,49
376303,DepthScenes,duration_discrimination,discrim_jsons/d0.json,http://54.197.185.130/DepthDuration/depth_discrimination_MTurk/DepthDiscrim_HTML.html#4,4,1499,853,1366,768,6-9-2021,8-39-25,173,,,,,,,1964,516,993,505,999,496,feet,2,1,depth_discrimination_stimuli/002344_2014-06-28_20-06-29_260595134347_rgbf000030-resize_1/002344_2014-06-28_20-06-29_260595134347_rgbf000030-resize-original.jpg,3415,1288314,1415513,49
376303,DepthScenes,duration_discrimination,discrim_jsons/d0.json,http://54.197.185.130/DepthDuration/depth_discrimination_MTurk/DepthDiscrim_HTML.html#4,4,1499,853,1366,768,6-9-2021,8-39-25,174,,,,,,,1964,516,993,505,999,496,feet,2,2,depth_discrimination_stimuli/001450_2014-06-19_17-02-03_260595134347_rgbf000203-resize_4/001450_2014-06-19_17-02-03_260595134347_rgbf000203-resize-original.jpg,3145,1288314,1415513,49
376303,DepthScenes,duration_discrimination,discrim_jsons/d0.json,http://54.197.185.130/DepthDuration/depth_discrimination_MTurk/DepthDiscrim_HTML.html#4,4,1499,853,1366,768,6-9-2021,8-39-25,175,,,,,,,1964,516,993,505,999,496,feet,2,3,depth_discrimination_stimuli/001724_2014-06-26_19-28-50_260595134347_rgbf000037-resize_7/001724_2014-06-26_19-28-50_260595134347_rgbf000037-resize-original.jpg,6968,1288314,1415513,49
376303,DepthScenes,duration_discrimination,discrim_jsons/d0.json,http://54.197.185.130/DepthDuration/depth_discrimination_MTurk/DepthDiscrim_HTML.html#4,4,1499,853,1366,768,6-9-2021,8-39-25,176,,,,,,,1964,516,993,505,999,496,feet,1,1,depth_discrimination_stimuli/000906_2014-06-08_13-35-43_260595134347_rgbf000155-resize_1/000906_2014-06-08_13-35-43_260595134347_rgbf000155-resize-original.jpg,5665,1288314,1415513,49
376303,DepthScenes,duration_discrimination,discrim_jsons/d0.json,http://54.197.185.130/DepthDuration/depth_discrimination_MTurk/DepthDiscrim_HTML.html#4,4,1499,853,1366,768,6-9-2021,8-39-25,177,,,,,,,1964,516,993,505,999,496,feet,2,2,depth_discrimination_stimuli/000830_2014-06-04_19-49-31_260595134347_rgbf000096-resize_2/000830_2014-06-04_19-49-31_260595134347_rgbf000096-resize-original.jpg,8633,1288314,1415513,49
376303,DepthScenes,duration_discrimination,discrim_jsons/d0.json,http://54.197.185.130/DepthDuration/depth_discrimination_MTurk/DepthDiscrim_HTML.html#4,4,1499,853,1366,768,6-9-2021,8-39-25,178,,,,,,,1964,516,993,505,999,496,feet,2,1,depth_discrimination_stimuli/001806_2014-06-26_20-50-20_260595134347_rgbf000091-resize_1/001806_2014-06-26_20-50-20_260595134347_rgbf000091-resize-original.jpg,2987,1288314,1415513,49
376303,DepthScenes,duration_discrimination,discrim_jsons/d0.json,http://54.197.185.130/DepthDuration/depth_discrimination_MTurk/DepthDiscrim_HTML.html#4,4,1499,853,1366,768,6-9-2021,8-39-25,179,,,,,,,1964,516,993,505,999,496,feet,2,2,depth_discrimination_stimuli/000720_2014-06-08_18-37-27_260595134347_rgbf000203-resize_4/000720_2014-06-08_18-37-27_260595134347_rgbf000203-resize-original.jpg,5180,1288314,1415513,49
376303,DepthScenes,duration_discrimination,discrim_jsons/d0.json,http://54.197.185.130/DepthDuration/depth_discrimination_MTurk/DepthDiscrim_HTML.html#4,4,1499,853,1366,768,6-9-2021,8-39-25,180,,,,,,,1964,516,993,505,999,496,feet,2,3,depth_discrimination_stimuli/000929_2014-06-09_16-33-19_260595134347_rgbf000139-resize_0/000929_2014-06-09_16-33-19_260595134347_rgbf000139-resize-original.jpg,7532,1288314,1415513,49
376303,DepthScenes,duration_discrimination,discrim_jsons/d0.json,http://54.197.185.130/DepthDuration/depth_discrimination_MTurk/DepthDiscrim_HTML.html#4,4,1499,853,1366,768,6-9-2021,8-39-25,181,,,,,,,1964,516,993,505,999,496,feet,2,1,depth_discrimination_stimuli/002725_2014-06-22_11-47-51_094959634447_rgbf000070-resize_1/002725_2014-06-22_11-47-51_094959634447_rgbf000070-resize-original.jpg,3821,1288314,1415513,49
376303,DepthScenes,duration_discrimination,discrim_jsons/d0.json,http://54.197.185.130/DepthDuration/depth_discrimination_MTurk/DepthDiscrim_HTML.html#4,4,1499,853,1366,768,6-9-2021,8-39-25,182,,,,,,,1964,516,993,505,999,496,feet,3,2,depth_discrimination_stimuli/001092_2014-06-15_17-34-58_260595134347_rgbf000171-resize_3/001092_2014-06-15_17-34-58_260595134347_rgbf000171-resize-original.jpg,3973,1288314,1415513,49
376303,DepthScenes,duration_discrimination,discrim_jsons/d0.json,http://54.197.185.130/DepthDuration/depth_discrimination_MTurk/DepthDiscrim_HTML.html#4,4,1499,853,1366,768,6-9-2021,8-39-25,183,,,,,,,1964,516,993,505,999,496,feet,3,3,depth_discrimination_stimuli/000486_2014-06-09_20-47-20_260595134347_rgbf000143-resize_2/000486_2014-06-09_20-47-20_260595134347_rgbf000143-resize-original.jpg,4359,1288314,1415513,49
376303,DepthScenes,duration_discrimination,discrim_jsons/d0.json,http://54.197.185.130/DepthDuration/depth_discrimination_MTurk/DepthDiscrim_HTML.html#4,4,1499,853,1366,768,6-9-2021,8-39-25,184,,,,,,,1964,516,993,505,999,496,feet,3,1,depth_discrimination_stimuli/000788_2014-06-08_22-34-36_260595134347_rgbf000131-resize_1/000788_2014-06-08_22-34-36_260595134347_rgbf000131-resize-original.jpg,3466,1288314,1415513,49
376303,DepthScenes,duration_discrimination,discrim_jsons/d0.json,http://54.197.185.130/DepthDuration/depth_discrimination_MTurk/DepthDiscrim_HTML.html#4,4,1499,853,1366,768,6-9-2021,8-39-25,185,,,,,,,1964,516,993,505,999,496,feet,2,4,depth_discrimination_stimuli/002949_2014-06-26_15-57-42_094959634447_rgbf000079-resize_1/002949_2014-06-26_15-57-42_094959634447_rgbf000079-resize-original.jpg,4531,1288314,1415513,49
376303,DepthScenes,duration_discrimination,discrim_jsons/d0.json,http://54.197.185.130/DepthDuration/depth_discrimination_MTurk/DepthDiscrim_HTML.html#4,4,1499,853,1366,768,6-9-2021,8-39-25,186,,,,,,,1964,516,993,505,999,496,feet,2,1,depth_discrimination_stimuli/002139_2014-06-25_21-19-37_260595134347_rgbf000124-resize_2/002139_2014-06-25_21-19-37_260595134347_rgbf000124-resize-original.jpg,2838,1288314,1415513,49
376303,DepthScenes,duration_discrimination,discrim_jsons/d0.json,http://54.197.185.130/DepthDuration/depth_discrimination_MTurk/DepthDiscrim_HTML.html#4,4,1499,853,1366,768,6-9-2021,8-39-25,187,,,,,,,1964,516,993,505,999,496,feet,2,2,depth_discrimination_stimuli/002464_2014-06-28_20-36-57_260595134347_rgbf000029-resize_0/002464_2014-06-28_20-36-57_260595134347_rgbf000029-resize-original.jpg,4402,1288314,1415513,49
376303,DepthScenes,duration_discrimination,discrim_jsons/d0.json,http://54.197.185.130/DepthDuration/depth_discrimination_MTurk/DepthDiscrim_HTML.html#4,4,1499,853,1366,768,6-9-2021,8-39-25,188,,,,,,,1964,516,993,505,999,496,feet,3,2,depth_discrimination_stimuli/003288_2014-05-14_21-50-30_094959634447_rgbf000028-resize_3/003288_2014-05-14_21-50-30_094959634447_rgbf000028-resize-original.jpg,3713,1288314,1415513,49
376303,DepthScenes,duration_discrimination,discrim_jsons/d0.json,http://54.197.185.130/DepthDuration/depth_discrimination_MTurk/DepthDiscrim_HTML.html#4,4,1499,853,1366,768,6-9-2021,8-39-25,189,,,,,,,1964,516,993,505,999,496,feet,1,2,depth_discrimination_stimuli/002875_2014-06-01_15-19-00_094959634447_rgbf000151-resize_1/002875_2014-06-01_15-19-00_094959634447_rgbf000151-resize-original.jpg,4121,1288314,1415513,49
376303,DepthScenes,duration_discrimination,discrim_jsons/d0.json,http://54.197.185.130/DepthDuration/depth_discrimination_MTurk/DepthDiscrim_HTML.html#4,4,1499,853,1366,768,6-9-2021,8-39-25,190,,,,,,,1964,516,993,505,999,496,feet,2,2,depth_discrimination_stimuli/003081_2014-06-15_15-19-16_094959634447_rgbf000150-resize_1/003081_2014-06-15_15-19-16_094959634447_rgbf000150-resize-original.jpg,5001,1288314,1415513,49
376303,DepthScenes,duration_discrimination,discrim_jsons/d0.json,http://54.197.185.130/DepthDuration/depth_discrimination_MTurk/DepthDiscrim_HTML.html#4,4,1499,853,1366,768,6-9-2021,8-39-25,191,,,,,,,1964,516,993,505,999,496,feet,3,1,depth_discrimination_stimuli/002305_2014-06-28_19-56-50_260595134347_rgbf000102-resize_7/002305_2014-06-28_19-56-50_260595134347_rgbf000102-resize-original.jpg,6165,1288314,1415513,49
376303,DepthScenes,duration_discrimination,discrim_jsons/d0.json,http://54.197.185.130/DepthDuration/depth_discrimination_MTurk/DepthDiscrim_HTML.html#4,4,1499,853,1366,768,6-9-2021,8-39-25,192,,,,,,,1964,516,993,505,999,496,feet,2,1,depth_discrimination_stimuli/001029_2014-06-08_13-17-57_260595134347_rgbf000065-resize_1/001029_2014-06-08_13-17-57_260595134347_rgbf000065-resize-original.jpg,3410,1288314,1415513,49
376303,DepthScenes,duration_discrimination,discrim_jsons/d0.json,http://54.197.185.130/DepthDuration/depth_discrimination_MTurk/DepthDiscrim_HTML.html#4,4,1499,853,1366,768,6-9-2021,8-39-25,193,,,,,,,1964,516,993,505,999,496,feet,2,1,depth_discrimination_stimuli/002549_2014-06-24_13-41-39_094959634447_rgbf000022-resize_3/002549_2014-06-24_13-41-39_094959634447_rgbf000022-resize-original.jpg,2630,1288314,1415513,49
376303,DepthScenes,duration_discrimination,discrim_jsons/d0.json,http://54.197.185.130/DepthDuration/depth_discrimination_MTurk/DepthDiscrim_HTML.html#4,4,1499,853,1366,768,6-9-2021,8-39-25,194,,,,,,,1964,516,993,505,999,496,feet,2,3,depth_discrimination_stimuli/000854_2014-06-09_19-43-13_260595134347_rgbf000066-resize_0/000854_2014-06-09_19-43-13_260595134347_rgbf000066-resize-original.jpg,6999,1288314,1415513,49
376303,DepthScenes,duration_discrimination,discrim_jsons/d0.json,http://54.197.185.130/DepthDuration/depth_discrimination_MTurk/DepthDiscrim_HTML.html#4,4,1499,853,1366,768,6-9-2021,8-39-25,195,,,,,,,1964,516,993,505,999,496,feet,2,2,depth_discrimination_stimuli/001214_2014-06-17_16-13-55_260595134347_rgbf000111-resize_0/001214_2014-06-17_16-13-55_260595134347_rgbf000111-resize-original.jpg,3845,1288314,1415513,49
376303,DepthScenes,duration_discrimination,discrim_jsons/d0.json,http://54.197.185.130/DepthDuration/depth_discrimination_MTurk/DepthDiscrim_HTML.html#4,4,1499,853,1366,768,6-9-2021,8-39-25,196,,,,,,,1964,516,993,505,999,496,feet,2,3,depth_discrimination_stimuli/002272_2014-06-28_18-53-56_260595134347_rgbf000067-resize_2/002272_2014-06-28_18-53-56_260595134347_rgbf000067-resize-original.jpg,3545,1288314,1415513,49
376303,DepthScenes,duration_discrimination,discrim_jsons/d0.json,http://54.197.185.130/DepthDuration/depth_discrimination_MTurk/DepthDiscrim_HTML.html#4,4,1499,853,1366,768,6-9-2021,8-39-25,197,,,,,,,1964,516,993,505,999,496,feet,2,3,depth_discrimination_stimuli/001417_2014-06-19_16-25-36_260595134347_rgbf000115-resize_5/001417_2014-06-19_16-25-36_260595134347_rgbf000115-resize-original.jpg,6823,1288314,1415513,49
376303,DepthScenes,duration_discrimination,discrim_jsons/d0.json,http://54.197.185.130/DepthDuration/depth_discrimination_MTurk/DepthDiscrim_HTML.html#4,4,1499,853,1366,768,6-9-2021,8-39-25,198,,,,,,,1964,516,993,505,999,496,feet,2,3,depth_discrimination_stimuli/002639_2014-06-24_14-51-37_094959634447_rgbf000074-resize_4/002639_2014-06-24_14-51-37_094959634447_rgbf000074-resize-original.jpg,3330,1288314,1415513,49
376303,DepthScenes,duration_discrimination,discrim_jsons/d0.json,http://54.197.185.130/DepthDuration/depth_discrimination_MTurk/DepthDiscrim_HTML.html#4,4,1499,853,1366,768,6-9-2021,8-39-25,199,,,,,,,1964,516,993,505,999,496,feet,2,2,depth_discrimination_stimuli/000943_2014-06-09_19-31-07_260595134347_rgbf000128-resize_1/000943_2014-06-09_19-31-07_260595134347_rgbf000128-resize-original.jpg,2561,1288314,1415513,49
376303,DepthScenes,duration_discrimination,discrim_jsons/d0.json,http://54.197.185.130/DepthDuration/depth_discrimination_MTurk/DepthDiscrim_HTML.html#4,4,1499,853,1366,768,6-9-2021,8-39-25,200,,,,,,,1964,516,993,505,999,496,feet,3,2,depth_discrimination_stimuli/003070_2014-06-15_14-58-27_094959634447_rgbf000150-resize_3/003070_2014-06-15_14-58-27_094959634447_rgbf000150-resize-original.jpg,8154,1288314,1415513,49
