subjID,experimentName,versionName,sequenceName,url,selected_row,windowWidth,windowHeight,screenWidth,screenHeight,startDate,startTime,trial,stimulus_0,stimulus_1,duration,actual_depth_0,actual_depth_1,discrim_choice,trial_RT,log_fixation,log_sceneDuration1,log_mask1,log_sceneDuration2,log_mask2,unitSelection,meanDepth_rating,navigability_rating,rated_stimulus,rating_RT,experimentTime,totalTime,age
361608,DepthScenes,duration_discrimination,discrim_jsons/d0_rotated_dr.json,http://54.197.185.130/DepthDuration/depth_discrimination_MTurk/DepthDiscrim_HTML.html#2,2,1366,768,1366,768,6-9-2021,9-6-38,1,depth_discrimination_stimuli/002103_2014-06-25_20-00-40_260595134347_rgbf000049-resize_0/002103_2014-06-25_20-00-40_260595134347_rgbf000049-resize_0-target.png,depth_discrimination_stimuli/000692_2014-06-08_13-09-42_260595134347_rgbf000199-resize_2/000692_2014-06-08_13-09-42_260595134347_rgbf000199-resize_2-target.png,1000,4.105,3.661,0,1791,507,1003,500,993,504,feet,,,,,1353107,1698388,49
361608,DepthScenes,duration_discrimination,discrim_jsons/d0_rotated_dr.json,http://54.197.185.130/DepthDuration/depth_discrimination_MTurk/DepthDiscrim_HTML.html#2,2,1366,768,1366,768,6-9-2021,9-6-38,2,depth_discrimination_stimuli/002468_2014-06-28_20-38-39_260595134347_rgbf000045-resize_1/002468_2014-06-28_20-38-39_260595134347_rgbf000045-resize_1-target.png,depth_discrimination_stimuli/002579_2014-06-24_14-08-03_094959634447_rgbf000061-resize_2/002579_2014-06-24_14-08-03_094959634447_rgbf000061-resize_2-target.png,1000,1.956,2.223125,1,1801,505,1003,503,1006,487,feet,,,,,1353107,1698388,49
361608,DepthScenes,duration_discrimination,discrim_jsons/d0_rotated_dr.json,http://54.197.185.130/DepthDuration/depth_discrimination_MTurk/DepthDiscrim_HTML.html#2,2,1366,768,1366,768,6-9-2021,9-6-38,3,depth_discrimination_stimuli/002039_2014-06-24_20-22-38_260595134347_rgbf000084-resize_1/002039_2014-06-24_20-22-38_260595134347_rgbf000084-resize_1-target.png,depth_discrimination_stimuli/001450_2014-06-19_17-02-03_260595134347_rgbf000203-resize_4/001450_2014-06-19_17-02-03_260595134347_rgbf000203-resize_4-target.png,1000,4.408,4.0106666666667,1,1795,509,1006,486,1009,498,feet,,,,,1353107,1698388,49
361608,DepthScenes,duration_discrimination,discrim_jsons/d0_rotated_dr.json,http://54.197.185.130/DepthDuration/depth_discrimination_MTurk/DepthDiscrim_HTML.html#2,2,1366,768,1366,768,6-9-2021,9-6-38,4,depth_discrimination_stimuli/000943_2014-06-09_19-31-07_260595134347_rgbf000128-resize_1/000943_2014-06-09_19-31-07_260595134347_rgbf000128-resize_1-target.png,depth_discrimination_stimuli/001555_2014-06-20_17-12-10_260595134347_rgbf000065-resize_4/001555_2014-06-20_17-12-10_260595134347_rgbf000065-resize_4-target.png,250,1.9765,1.633,0,1757,510,242,500,264,486,feet,,,,,1353107,1698388,49
361608,DepthScenes,duration_discrimination,discrim_jsons/d0_rotated_dr.json,http://54.197.185.130/DepthDuration/depth_discrimination_MTurk/DepthDiscrim_HTML.html#2,2,1366,768,1366,768,6-9-2021,9-6-38,5,depth_discrimination_stimuli/000709_2014-06-08_13-51-55_260595134347_rgbf000068-resize_3/000709_2014-06-08_13-51-55_260595134347_rgbf000068-resize_3-target.png,depth_discrimination_stimuli/003587_2014-05-23_16-48-02_094959634447_rgbf002384-resize_2/003587_2014-05-23_16-48-02_094959634447_rgbf002384-resize_2-target.png,1000,1.803,1.357,1,1816,502,1002,500,1004,499,feet,,,,,1353107,1698388,49
361608,DepthScenes,duration_discrimination,discrim_jsons/d0_rotated_dr.json,http://54.197.185.130/DepthDuration/depth_discrimination_MTurk/DepthDiscrim_HTML.html#2,2,1366,768,1366,768,6-9-2021,9-6-38,6,depth_discrimination_stimuli/002136_2014-06-25_21-18-03_260595134347_rgbf000109-resize_3/002136_2014-06-25_21-18-03_260595134347_rgbf000109-resize_3-target.png,depth_discrimination_stimuli/000469_2014-06-09_19-42-10_260595134347_rgbf000081-resize_1/000469_2014-06-09_19-42-10_260595134347_rgbf000081-resize_1-target.png,1000,1.957,1.652,0,1966,514,989,512,991,496,feet,,,,,1353107,1698388,49
361608,DepthScenes,duration_discrimination,discrim_jsons/d0_rotated_dr.json,http://54.197.185.130/DepthDuration/depth_discrimination_MTurk/DepthDiscrim_HTML.html#2,2,1366,768,1366,768,6-9-2021,9-6-38,7,depth_discrimination_stimuli/002344_2014-06-28_20-06-29_260595134347_rgbf000030-resize_1/002344_2014-06-28_20-06-29_260595134347_rgbf000030-resize_1-target.png,depth_discrimination_stimuli/002509_2014-06-24_13-19-22_094959634447_rgbf000077-resize_0/002509_2014-06-24_13-19-22_094959634447_rgbf000077-resize_0-target.png,1000,1.5795,1.3065,0,1502,506,1006,501,988,506,feet,,,,,1353107,1698388,49
361608,DepthScenes,duration_discrimination,discrim_jsons/d0_rotated_dr.json,http://54.197.185.130/DepthDuration/depth_discrimination_MTurk/DepthDiscrim_HTML.html#2,2,1366,768,1366,768,6-9-2021,9-6-38,8,depth_discrimination_stimuli/002464_2014-06-28_20-36-57_260595134347_rgbf000029-resize_0/002464_2014-06-28_20-36-57_260595134347_rgbf000029-resize_0-target.png,depth_discrimination_stimuli/000409_2014-06-04_19-23-33_260595134347_rgbf000067-resize_0/000409_2014-06-04_19-23-33_260595134347_rgbf000067-resize_0-target.png,250,3.9525,3.7335,1,2326,510,264,491,235,506,feet,,,,,1353107,1698388,49
361608,DepthScenes,duration_discrimination,discrim_jsons/d0_rotated_dr.json,http://54.197.185.130/DepthDuration/depth_discrimination_MTurk/DepthDiscrim_HTML.html#2,2,1366,768,1366,768,6-9-2021,9-6-38,9,depth_discrimination_stimuli/003048_2014-06-15_13-49-43_094959634447_rgbf000150-resize_1/003048_2014-06-15_13-49-43_094959634447_rgbf000150-resize_1-target.png,depth_discrimination_stimuli/002444_2014-06-28_20-32-08_260595134347_rgbf000027-resize_0/002444_2014-06-28_20-32-08_260595134347_rgbf000027-resize_0-target.png,250,4.0035,4.389,0,1566,509,253,499,254,489,feet,,,,,1353107,1698388,49
361608,DepthScenes,duration_discrimination,discrim_jsons/d0_rotated_dr.json,http://54.197.185.130/DepthDuration/depth_discrimination_MTurk/DepthDiscrim_HTML.html#2,2,1366,768,1366,768,6-9-2021,9-6-38,10,depth_discrimination_stimuli/002630_2014-06-24_14-47-50_094959634447_rgbf000055-resize_1/002630_2014-06-24_14-47-50_094959634447_rgbf000055-resize_1-target.png,depth_discrimination_stimuli/001449_2014-06-19_17-01-27_260595134347_rgbf000116-resize_2/001449_2014-06-19_17-01-27_260595134347_rgbf000116-resize_2-target.png,1000,3.0095,3.452,0,1956,513,1001,491,1005,500,feet,,,,,1353107,1698388,49
361608,DepthScenes,duration_discrimination,discrim_jsons/d0_rotated_dr.json,http://54.197.185.130/DepthDuration/depth_discrimination_MTurk/DepthDiscrim_HTML.html#2,2,1366,768,1366,768,6-9-2021,9-6-38,11,depth_discrimination_stimuli/002131_2014-06-25_21-12-01_260595134347_rgbf000083-resize_0/002131_2014-06-25_21-12-01_260595134347_rgbf000083-resize_0-target.png,depth_discrimination_stimuli/001100_2014-06-15_17-46-26_260595134347_rgbf000225-resize_2/001100_2014-06-15_17-46-26_260595134347_rgbf000225-resize_2-target.png,250,1.7685,2.24,1,1222,513,252,490,250,496,feet,,,,,1353107,1698388,49
361608,DepthScenes,duration_discrimination,discrim_jsons/d0_rotated_dr.json,http://54.197.185.130/DepthDuration/depth_discrimination_MTurk/DepthDiscrim_HTML.html#2,2,1366,768,1366,768,6-9-2021,9-6-38,12,depth_discrimination_stimuli/002949_2014-06-26_15-57-42_094959634447_rgbf000079-resize_1/002949_2014-06-26_15-57-42_094959634447_rgbf000079-resize_1-target.png,depth_discrimination_stimuli/002279_2014-06-28_18-55-32_260595134347_rgbf000040-resize_5/002279_2014-06-28_18-55-32_260595134347_rgbf000040-resize_5-target.png,250,1.8915,1.5043333333333,1,1375,511,241,515,237,505,feet,,,,,1353107,1698388,49
361608,DepthScenes,duration_discrimination,discrim_jsons/d0_rotated_dr.json,http://54.197.185.130/DepthDuration/depth_discrimination_MTurk/DepthDiscrim_HTML.html#2,2,1366,768,1366,768,6-9-2021,9-6-38,13,depth_discrimination_stimuli/001516_2014-06-20_16-25-09_260595134347_rgbf000076-resize_2/001516_2014-06-20_16-25-09_260595134347_rgbf000076-resize_2-target.png,depth_discrimination_stimuli/000635_2014-06-08_16-38-42_260595134347_rgbf000106-resize_1/000635_2014-06-08_16-38-42_260595134347_rgbf000106-resize_1-target.png,250,1.7445,2.074,0,2066,514,237,500,252,503,feet,,,,,1353107,1698388,49
361608,DepthScenes,duration_discrimination,discrim_jsons/d0_rotated_dr.json,http://54.197.185.130/DepthDuration/depth_discrimination_MTurk/DepthDiscrim_HTML.html#2,2,1366,768,1366,768,6-9-2021,9-6-38,14,depth_discrimination_stimuli/001148_2014-06-17_15-26-42_260595134347_rgbf000129-resize_0/001148_2014-06-17_15-26-42_260595134347_rgbf000129-resize_0-target.png,depth_discrimination_stimuli/000734_2014-06-08_17-39-11_260595134347_rgbf000128-resize_2/000734_2014-06-08_17-39-11_260595134347_rgbf000128-resize_2-target.png,1000,4.368,4.098,0,1820,514,1003,485,1010,489,feet,,,,,1353107,1698388,49
361608,DepthScenes,duration_discrimination,discrim_jsons/d0_rotated_dr.json,http://54.197.185.130/DepthDuration/depth_discrimination_MTurk/DepthDiscrim_HTML.html#2,2,1366,768,1366,768,6-9-2021,9-6-38,15,depth_discrimination_stimuli/002043_2014-06-24_20-29-38_260595134347_rgbf000039-resize_4/002043_2014-06-24_20-29-38_260595134347_rgbf000039-resize_4-target.png,depth_discrimination_stimuli/002445_2014-06-28_20-32-16_260595134347_rgbf000029-resize_4/002445_2014-06-28_20-32-16_260595134347_rgbf000029-resize_4-target.png,1000,2.8435,2.5315,1,1849,511,993,497,1009,503,feet,,,,,1353107,1698388,49
361608,DepthScenes,duration_discrimination,discrim_jsons/d0_rotated_dr.json,http://54.197.185.130/DepthDuration/depth_discrimination_MTurk/DepthDiscrim_HTML.html#2,2,1366,768,1366,768,6-9-2021,9-6-38,16,depth_discrimination_stimuli/000454_2014-06-08_16-37-28_260595134347_rgbf000048-resize_2/000454_2014-06-08_16-37-28_260595134347_rgbf000048-resize_2-target.png,depth_discrimination_stimuli/000375_2014-06-08_11-17-29_260595134347_rgbf000133-resize_2/000375_2014-06-08_11-17-29_260595134347_rgbf000133-resize_2-target.png,1000,1.213,4.718,0,2414,510,1000,492,1014,489,feet,,,,,1353107,1698388,49
361608,DepthScenes,duration_discrimination,discrim_jsons/d0_rotated_dr.json,http://54.197.185.130/DepthDuration/depth_discrimination_MTurk/DepthDiscrim_HTML.html#2,2,1366,768,1366,768,6-9-2021,9-6-38,17,depth_discrimination_stimuli/003395_2014-05-20_15-39-18_094959634447_rgbf000101-resize_0/003395_2014-05-20_15-39-18_094959634447_rgbf000101-resize_0-target.png,depth_discrimination_stimuli/001540_2014-06-20_17-01-05_260595134347_rgbf000086-resize_2/001540_2014-06-20_17-01-05_260595134347_rgbf000086-resize_2-target.png,250,4.835,1.459,1,1213,505,252,507,237,507,feet,,,,,1353107,1698388,49
361608,DepthScenes,duration_discrimination,discrim_jsons/d0_rotated_dr.json,http://54.197.185.130/DepthDuration/depth_discrimination_MTurk/DepthDiscrim_HTML.html#2,2,1366,768,1366,768,6-9-2021,9-6-38,18,depth_discrimination_stimuli/003621_2014-05-23_18-06-08_094959634447_rgbf000101-resize_1/003621_2014-05-23_18-06-08_094959634447_rgbf000101-resize_1-target.png,depth_discrimination_stimuli/001808_2014-06-26_20-50-58_260595134347_rgbf000029-resize_1/001808_2014-06-26_20-50-58_260595134347_rgbf000029-resize_1-target.png,1000,3.9835,4.249,0,1873,502,1006,501,1005,495,feet,,,,,1353107,1698388,49
361608,DepthScenes,duration_discrimination,discrim_jsons/d0_rotated_dr.json,http://54.197.185.130/DepthDuration/depth_discrimination_MTurk/DepthDiscrim_HTML.html#2,2,1366,768,1366,768,6-9-2021,9-6-38,19,depth_discrimination_stimuli/001806_2014-06-26_20-50-20_260595134347_rgbf000091-resize_1/001806_2014-06-26_20-50-20_260595134347_rgbf000091-resize_1-target.png,depth_discrimination_stimuli/002460_2014-06-28_20-35-43_260595134347_rgbf000028-resize_4/002460_2014-06-28_20-35-43_260595134347_rgbf000028-resize_4-target.png,250,2.7305,2.269,0,1407,504,251,496,250,502,feet,,,,,1353107,1698388,49
361608,DepthScenes,duration_discrimination,discrim_jsons/d0_rotated_dr.json,http://54.197.185.130/DepthDuration/depth_discrimination_MTurk/DepthDiscrim_HTML.html#2,2,1366,768,1366,768,6-9-2021,9-6-38,20,depth_discrimination_stimuli/001132_2014-06-17_14-48-54_260595134347_rgbf000100-resize_2/001132_2014-06-17_14-48-54_260595134347_rgbf000100-resize_2-target.png,depth_discrimination_stimuli/002639_2014-06-24_14-51-37_094959634447_rgbf000074-resize_4/002639_2014-06-24_14-51-37_094959634447_rgbf000074-resize_4-target.png,250,3.753,4.0375,1,1732,501,253,505,241,500,feet,,,,,1353107,1698388,49
361608,DepthScenes,duration_discrimination,discrim_jsons/d0_rotated_dr.json,http://54.197.185.130/DepthDuration/depth_discrimination_MTurk/DepthDiscrim_HTML.html#2,2,1366,768,1366,768,6-9-2021,9-6-38,21,depth_discrimination_stimuli/001532_2014-06-20_16-50-41_260595134347_rgbf000081-resize_4/001532_2014-06-20_16-50-41_260595134347_rgbf000081-resize_4-target.png,depth_discrimination_stimuli/002784_2014-06-22_19-26-30_094959634447_rgbf000083-resize_3/002784_2014-06-22_19-26-30_094959634447_rgbf000083-resize_3-target.png,250,1.5758333333333,1.8046666666667,0,1562,501,250,505,257,487,feet,,,,,1353107,1698388,49
361608,DepthScenes,duration_discrimination,discrim_jsons/d0_rotated_dr.json,http://54.197.185.130/DepthDuration/depth_discrimination_MTurk/DepthDiscrim_HTML.html#2,2,1366,768,1366,768,6-9-2021,9-6-38,22,depth_discrimination_stimuli/002545_2014-06-24_13-38-53_094959634447_rgbf000080-resize_4/002545_2014-06-24_13-38-53_094959634447_rgbf000080-resize_4-target.png,depth_discrimination_stimuli/002549_2014-06-24_13-41-39_094959634447_rgbf000022-resize_3/002549_2014-06-24_13-41-39_094959634447_rgbf000022-resize_3-target.png,1000,1.9205,1.476,1,1507,513,1007,487,1008,492,feet,,,,,1353107,1698388,49
361608,DepthScenes,duration_discrimination,discrim_jsons/d0_rotated_dr.json,http://54.197.185.130/DepthDuration/depth_discrimination_MTurk/DepthDiscrim_HTML.html#2,2,1366,768,1366,768,6-9-2021,9-6-38,23,depth_discrimination_stimuli/001175_2014-06-17_15-45-55_260595134347_rgbf000129-resize_4/001175_2014-06-17_15-45-55_260595134347_rgbf000129-resize_4-target.png,depth_discrimination_stimuli/002467_2014-06-28_20-38-07_260595134347_rgbf000026-resize_2/002467_2014-06-28_20-38-07_260595134347_rgbf000026-resize_2-target.png,250,4.255,4.742,0,1537,510,255,488,258,502,feet,,,,,1353107,1698388,49
361608,DepthScenes,duration_discrimination,discrim_jsons/d0_rotated_dr.json,http://54.197.185.130/DepthDuration/depth_discrimination_MTurk/DepthDiscrim_HTML.html#2,2,1366,768,1366,768,6-9-2021,9-6-38,24,depth_discrimination_stimuli/000137_2014-05-20_17-04-49_260595134347_rgbf000120-resize_1/000137_2014-05-20_17-04-49_260595134347_rgbf000120-resize_1-target.png,depth_discrimination_stimuli/000691_2014-06-08_13-08-50_260595134347_rgbf000132-resize_3/000691_2014-06-08_13-08-50_260595134347_rgbf000132-resize_3-target.png,1000,3.786,4.153,0,1869,502,1013,489,1002,502,feet,,,,,1353107,1698388,49
361608,DepthScenes,duration_discrimination,discrim_jsons/d0_rotated_dr.json,http://54.197.185.130/DepthDuration/depth_discrimination_MTurk/DepthDiscrim_HTML.html#2,2,1366,768,1366,768,6-9-2021,9-6-38,25,depth_discrimination_stimuli/000542_2014-06-08_18-27-08_260595134347_rgbf000118-resize_1/000542_2014-06-08_18-27-08_260595134347_rgbf000118-resize_1-target.png,depth_discrimination_stimuli/002118_2014-06-25_20-32-08_260595134347_rgbf000078-resize_1/002118_2014-06-25_20-32-08_260595134347_rgbf000078-resize_1-target.png,250,3,2.646,1,1247,503,254,509,237,507,feet,,,,,1353107,1698388,49
361608,DepthScenes,duration_discrimination,discrim_jsons/d0_rotated_dr.json,http://54.197.185.130/DepthDuration/depth_discrimination_MTurk/DepthDiscrim_HTML.html#2,2,1366,768,1366,768,6-9-2021,9-6-38,26,depth_discrimination_stimuli/001170_2014-06-17_15-43-44_260595134347_rgbf000096-resize_6/001170_2014-06-17_15-43-44_260595134347_rgbf000096-resize_6-target.png,depth_discrimination_stimuli/002364_2014-06-28_20-11-05_260595134347_rgbf000042-resize_0/002364_2014-06-28_20-11-05_260595134347_rgbf000042-resize_0-target.png,1000,1.191,4.682,0,1883,502,1004,505,991,503,feet,,,,,1353107,1698388,49
361608,DepthScenes,duration_discrimination,discrim_jsons/d0_rotated_dr.json,http://54.197.185.130/DepthDuration/depth_discrimination_MTurk/DepthDiscrim_HTML.html#2,2,1366,768,1366,768,6-9-2021,9-6-38,27,depth_discrimination_stimuli/000736_2014-06-08_18-24-15_260595134347_rgbf000206-resize_3/000736_2014-06-08_18-24-15_260595134347_rgbf000206-resize_3-target.png,depth_discrimination_stimuli/002323_2014-06-28_20-01-54_260595134347_rgbf000051-resize_4/002323_2014-06-28_20-01-54_260595134347_rgbf000051-resize_4-target.png,1000,3.515,3.731,0,1858,506,1006,490,1011,489,feet,,,,,1353107,1698388,49
361608,DepthScenes,duration_discrimination,discrim_jsons/d0_rotated_dr.json,http://54.197.185.130/DepthDuration/depth_discrimination_MTurk/DepthDiscrim_HTML.html#2,2,1366,768,1366,768,6-9-2021,9-6-38,28,depth_discrimination_stimuli/002365_2014-06-28_20-11-21_260595134347_rgbf000102-resize_1/002365_2014-06-28_20-11-21_260595134347_rgbf000102-resize_1-target.png,depth_discrimination_stimuli/000457_2014-06-08_16-52-43_260595134347_rgbf000199-resize_1/000457_2014-06-08_16-52-43_260595134347_rgbf000199-resize_1-target.png,250,4.013,3.649,1,1346,511,252,493,254,507,feet,,,,,1353107,1698388,49
361608,DepthScenes,duration_discrimination,discrim_jsons/d0_rotated_dr.json,http://54.197.185.130/DepthDuration/depth_discrimination_MTurk/DepthDiscrim_HTML.html#2,2,1366,768,1366,768,6-9-2021,9-6-38,29,depth_discrimination_stimuli/002995_2014-06-15_12-31-26_094959634447_rgbf000150-resize_1/002995_2014-06-15_12-31-26_094959634447_rgbf000150-resize_1-target.png,depth_discrimination_stimuli/000739_2014-06-08_18-45-58_260595134347_rgbf000068-resize_1/000739_2014-06-08_18-45-58_260595134347_rgbf000068-resize_1-target.png,250,3.836,3.534,1,1132,502,249,509,242,499,feet,,,,,1353107,1698388,49
361608,DepthScenes,duration_discrimination,discrim_jsons/d0_rotated_dr.json,http://54.197.185.130/DepthDuration/depth_discrimination_MTurk/DepthDiscrim_HTML.html#2,2,1366,768,1366,768,6-9-2021,9-6-38,30,depth_discrimination_stimuli/003010_2014-06-15_12-54-35_094959634447_rgbf000112-resize_0/003010_2014-06-15_12-54-35_094959634447_rgbf000112-resize_0-target.png,depth_discrimination_stimuli/003546_2014-05-22_15-48-53_094959634447_rgbf004816-resize_3/003546_2014-05-22_15-48-53_094959634447_rgbf004816-resize_3-target.png,250,3.1185,2.62625,1,1169,504,250,507,254,492,feet,,,,,1353107,1698388,49
361608,DepthScenes,duration_discrimination,discrim_jsons/d0_rotated_dr.json,http://54.197.185.130/DepthDuration/depth_discrimination_MTurk/DepthDiscrim_HTML.html#2,2,1366,768,1366,768,6-9-2021,9-6-38,31,depth_discrimination_stimuli/002340_2014-06-28_20-05-46_260595134347_rgbf000113-resize_0/002340_2014-06-28_20-05-46_260595134347_rgbf000113-resize_0-target.png,depth_discrimination_stimuli/001264_2014-06-16_16-10-23_260595134347_rgbf000109-resize_1/001264_2014-06-16_16-10-23_260595134347_rgbf000109-resize_1-target.png,250,2.4735,2.9665,0,1121,509,254,500,251,489,feet,,,,,1353107,1698388,49
361608,DepthScenes,duration_discrimination,discrim_jsons/d0_rotated_dr.json,http://54.197.185.130/DepthDuration/depth_discrimination_MTurk/DepthDiscrim_HTML.html#2,2,1366,768,1366,768,6-9-2021,9-6-38,32,depth_discrimination_stimuli/001570_2014-06-20_17-21-09_260595134347_rgbf000135-resize_4/001570_2014-06-20_17-21-09_260595134347_rgbf000135-resize_4-target.png,depth_discrimination_stimuli/002375_2014-06-28_20-13-44_260595134347_rgbf000032-resize_1/002375_2014-06-28_20-13-44_260595134347_rgbf000032-resize_1-target.png,1000,4.467,4.0175,1,1850,502,1011,489,999,506,feet,,,,,1353107,1698388,49
361608,DepthScenes,duration_discrimination,discrim_jsons/d0_rotated_dr.json,http://54.197.185.130/DepthDuration/depth_discrimination_MTurk/DepthDiscrim_HTML.html#2,2,1366,768,1366,768,6-9-2021,9-6-38,33,depth_discrimination_stimuli/001214_2014-06-17_16-13-55_260595134347_rgbf000111-resize_0/001214_2014-06-17_16-13-55_260595134347_rgbf000111-resize_0-target.png,depth_discrimination_stimuli/000665_2014-06-09_20-42-35_260595134347_rgbf000110-resize_1/000665_2014-06-09_20-42-35_260595134347_rgbf000110-resize_1-target.png,1000,2.6505,3.057,0,1873,500,1013,491,1009,501,feet,,,,,1353107,1698388,49
361608,DepthScenes,duration_discrimination,discrim_jsons/d0_rotated_dr.json,http://54.197.185.130/DepthDuration/depth_discrimination_MTurk/DepthDiscrim_HTML.html#2,2,1366,768,1366,768,6-9-2021,9-6-38,34,depth_discrimination_stimuli/001724_2014-06-26_19-28-50_260595134347_rgbf000037-resize_7/001724_2014-06-26_19-28-50_260595134347_rgbf000037-resize_7-target.png,depth_discrimination_stimuli/002989_2014-06-15_12-25-03_094959634447_rgbf000150-resize_3/002989_2014-06-15_12-25-03_094959634447_rgbf000150-resize_3-target.png,250,3.827,4.1975,0,1309,503,247,511,250,490,feet,,,,,1353107,1698388,49
361608,DepthScenes,duration_discrimination,discrim_jsons/d0_rotated_dr.json,http://54.197.185.130/DepthDuration/depth_discrimination_MTurk/DepthDiscrim_HTML.html#2,2,1366,768,1366,768,6-9-2021,9-6-38,35,depth_discrimination_stimuli/001618_2014-06-20_11-37-31_260595134347_rgbf000027-resize_3/001618_2014-06-20_11-37-31_260595134347_rgbf000027-resize_3-target.png,depth_discrimination_stimuli/001016_2014-06-09_16-16-10_260595134347_rgbf000112-resize_5/001016_2014-06-09_16-16-10_260595134347_rgbf000112-resize_5-target.png,1000,1.8725,1.6565,0,2043,504,1012,489,1009,488,feet,,,,,1353107,1698388,49
361608,DepthScenes,duration_discrimination,discrim_jsons/d0_rotated_dr.json,http://54.197.185.130/DepthDuration/depth_discrimination_MTurk/DepthDiscrim_HTML.html#2,2,1366,768,1366,768,6-9-2021,9-6-38,36,depth_discrimination_stimuli/001571_2014-06-20_17-21-32_260595134347_rgbf000089-resize_1/001571_2014-06-20_17-21-32_260595134347_rgbf000089-resize_1-target.png,depth_discrimination_stimuli/002953_2014-06-08_17-32-18_094959634447_rgbf000059-resize_5/002953_2014-06-08_17-32-18_094959634447_rgbf000059-resize_5-target.png,250,1.86,1.551,1,1419,511,255,488,248,509,feet,,,,,1353107,1698388,49
361608,DepthScenes,duration_discrimination,discrim_jsons/d0_rotated_dr.json,http://54.197.185.130/DepthDuration/depth_discrimination_MTurk/DepthDiscrim_HTML.html#2,2,1366,768,1366,768,6-9-2021,9-6-38,37,depth_discrimination_stimuli/000917_2014-06-09_22-45-29_260595134347_rgbf000149-resize_3/000917_2014-06-09_22-45-29_260595134347_rgbf000149-resize_3-target.png,depth_discrimination_stimuli/003081_2014-06-15_15-19-16_094959634447_rgbf000150-resize_1/003081_2014-06-15_15-19-16_094959634447_rgbf000150-resize_1-target.png,1000,4.1865,3.9125,0,2075,509,1005,490,1006,503,feet,,,,,1353107,1698388,49
361608,DepthScenes,duration_discrimination,discrim_jsons/d0_rotated_dr.json,http://54.197.185.130/DepthDuration/depth_discrimination_MTurk/DepthDiscrim_HTML.html#2,2,1366,768,1366,768,6-9-2021,9-6-38,38,depth_discrimination_stimuli/003228_2014-05-14_13-42-35_094959634447_rgbf000101-resize_1/003228_2014-05-14_13-42-35_094959634447_rgbf000101-resize_1-target.png,depth_discrimination_stimuli/001164_2014-06-17_15-35-46_260595134347_rgbf000085-resize_3/001164_2014-06-17_15-35-46_260595134347_rgbf000085-resize_3-target.png,1000,1.968,2.354,0,2093,505,1010,490,1008,489,feet,,,,,1353107,1698388,49
361608,DepthScenes,duration_discrimination,discrim_jsons/d0_rotated_dr.json,http://54.197.185.130/DepthDuration/depth_discrimination_MTurk/DepthDiscrim_HTML.html#2,2,1366,768,1366,768,6-9-2021,9-6-38,39,depth_discrimination_stimuli/000906_2014-06-08_13-35-43_260595134347_rgbf000155-resize_1/000906_2014-06-08_13-35-43_260595134347_rgbf000155-resize_1-target.png,depth_discrimination_stimuli/001059_2014-06-08_21-53-27_260595134347_rgbf000061-resize_4/001059_2014-06-08_21-53-27_260595134347_rgbf000061-resize_4-target.png,1000,2.849,2.4185,1,1859,505,1012,484,1015,487,feet,,,,,1353107,1698388,49
361608,DepthScenes,duration_discrimination,discrim_jsons/d0_rotated_dr.json,http://54.197.185.130/DepthDuration/depth_discrimination_MTurk/DepthDiscrim_HTML.html#2,2,1366,768,1366,768,6-9-2021,9-6-38,40,depth_discrimination_stimuli/002748_2014-06-22_19-07-22_094959634447_rgbf000078-resize_1/002748_2014-06-22_19-07-22_094959634447_rgbf000078-resize_1-target.png,depth_discrimination_stimuli/002657_2014-06-13_15-29-54_094959634447_rgbf000150-resize_1/002657_2014-06-13_15-29-54_094959634447_rgbf000150-resize_1-target.png,1000,4.6705,4.919,1,1851,504,1006,500,1005,489,feet,,,,,1353107,1698388,49
361608,DepthScenes,duration_discrimination,discrim_jsons/d0_rotated_dr.json,http://54.197.185.130/DepthDuration/depth_discrimination_MTurk/DepthDiscrim_HTML.html#2,2,1366,768,1366,768,6-9-2021,9-6-38,41,depth_discrimination_stimuli/000800_2014-06-08_22-42-09_260595134347_rgbf000095-resize_3/000800_2014-06-08_22-42-09_260595134347_rgbf000095-resize_3-target.png,depth_discrimination_stimuli/002700_2014-06-22_11-27-02_094959634447_rgbf000124-resize_3/002700_2014-06-22_11-27-02_094959634447_rgbf000124-resize_3-target.png,250,2.8,3.301,1,2430,504,248,513,251,486,feet,,,,,1353107,1698388,49
361608,DepthScenes,duration_discrimination,discrim_jsons/d0_rotated_dr.json,http://54.197.185.130/DepthDuration/depth_discrimination_MTurk/DepthDiscrim_HTML.html#2,2,1366,768,1366,768,6-9-2021,9-6-38,42,depth_discrimination_stimuli/002875_2014-06-01_15-19-00_094959634447_rgbf000151-resize_1/002875_2014-06-01_15-19-00_094959634447_rgbf000151-resize_1-target.png,depth_discrimination_stimuli/000749_2014-06-08_21-55-06_260595134347_rgbf000070-resize_2/000749_2014-06-08_21-55-06_260595134347_rgbf000070-resize_2-target.png,1000,1.9675,2.331,0,1935,517,990,501,998,496,feet,,,,,1353107,1698388,49
361608,DepthScenes,duration_discrimination,discrim_jsons/d0_rotated_dr.json,http://54.197.185.130/DepthDuration/depth_discrimination_MTurk/DepthDiscrim_HTML.html#2,2,1366,768,1366,768,6-9-2021,9-6-38,43,depth_discrimination_stimuli/003288_2014-05-14_21-50-30_094959634447_rgbf000028-resize_3/003288_2014-05-14_21-50-30_094959634447_rgbf000028-resize_3-target.png,depth_discrimination_stimuli/000735_2014-06-08_18-23-50_260595134347_rgbf000163-resize_2/000735_2014-06-08_18-23-50_260595134347_rgbf000163-resize_2-target.png,1000,3.877,4.1695,0,2106,508,1006,507,988,506,feet,,,,,1353107,1698388,49
361608,DepthScenes,duration_discrimination,discrim_jsons/d0_rotated_dr.json,http://54.197.185.130/DepthDuration/depth_discrimination_MTurk/DepthDiscrim_HTML.html#2,2,1366,768,1366,768,6-9-2021,9-6-38,44,depth_discrimination_stimuli/000447_2014-06-08_16-15-46_260595134347_rgbf000130-resize_1/000447_2014-06-08_16-15-46_260595134347_rgbf000130-resize_1-target.png,depth_discrimination_stimuli/002988_2014-06-15_12-24-20_094959634447_rgbf000150-resize_1/002988_2014-06-15_12-24-20_094959634447_rgbf000150-resize_1-target.png,250,4.479,4.767,0,1890,508,246,507,251,504,feet,,,,,1353107,1698388,49
361608,DepthScenes,duration_discrimination,discrim_jsons/d0_rotated_dr.json,http://54.197.185.130/DepthDuration/depth_discrimination_MTurk/DepthDiscrim_HTML.html#2,2,1366,768,1366,768,6-9-2021,9-6-38,45,depth_discrimination_stimuli/002272_2014-06-28_18-53-56_260595134347_rgbf000067-resize_2/002272_2014-06-28_18-53-56_260595134347_rgbf000067-resize_2-target.png,depth_discrimination_stimuli/003534_2014-05-22_15-06-10_094959634447_rgbf000102-resize_4/003534_2014-05-22_15-06-10_094959634447_rgbf000102-resize_4-target.png,250,1.138,1.426,1,1541,507,257,498,239,505,feet,,,,,1353107,1698388,49
361608,DepthScenes,duration_discrimination,discrim_jsons/d0_rotated_dr.json,http://54.197.185.130/DepthDuration/depth_discrimination_MTurk/DepthDiscrim_HTML.html#2,2,1366,768,1366,768,6-9-2021,9-6-38,46,depth_discrimination_stimuli/000522_2014-06-08_13-35-06_260595134347_rgbf000244-resize_1/000522_2014-06-08_13-35-06_260595134347_rgbf000244-resize_1-target.png,depth_discrimination_stimuli/001092_2014-06-15_17-34-58_260595134347_rgbf000171-resize_3/001092_2014-06-15_17-34-58_260595134347_rgbf000171-resize_3-target.png,1000,2.3715,2.6935,0,1904,501,1012,507,996,490,feet,,,,,1353107,1698388,49
361608,DepthScenes,duration_discrimination,discrim_jsons/d0_rotated_dr.json,http://54.197.185.130/DepthDuration/depth_discrimination_MTurk/DepthDiscrim_HTML.html#2,2,1366,768,1366,768,6-9-2021,9-6-38,47,depth_discrimination_stimuli/000866_2014-06-09_20-45-42_260595134347_rgbf000139-resize_1/000866_2014-06-09_20-45-42_260595134347_rgbf000139-resize_1-target.png,depth_discrimination_stimuli/000682_2014-06-08_23-14-58_260595134347_rgbf000041-resize_5/000682_2014-06-08_23-14-58_260595134347_rgbf000041-resize_5-target.png,1000,3.2155,2.724,0,2003,505,1006,493,1012,489,feet,,,,,1353107,1698388,49
361608,DepthScenes,duration_discrimination,discrim_jsons/d0_rotated_dr.json,http://54.197.185.130/DepthDuration/depth_discrimination_MTurk/DepthDiscrim_HTML.html#2,2,1366,768,1366,768,6-9-2021,9-6-38,48,depth_discrimination_stimuli/000569_2014-06-09_22-51-47_260595134347_rgbf000141-resize_3/000569_2014-06-09_22-51-47_260595134347_rgbf000141-resize_3-target.png,depth_discrimination_stimuli/000868_2014-06-09_20-49-52_260595134347_rgbf000064-resize_4/000868_2014-06-09_20-49-52_260595134347_rgbf000064-resize_4-target.png,250,4.512,1.2815,1,1184,501,253,500,251,500,feet,,,,,1353107,1698388,49
361608,DepthScenes,duration_discrimination,discrim_jsons/d0_rotated_dr.json,http://54.197.185.130/DepthDuration/depth_discrimination_MTurk/DepthDiscrim_HTML.html#2,2,1366,768,1366,768,6-9-2021,9-6-38,49,depth_discrimination_stimuli/000636_2014-06-08_16-39-02_260595134347_rgbf000108-resize_4/000636_2014-06-08_16-39-02_260595134347_rgbf000108-resize_4-target.png,depth_discrimination_stimuli/002568_2014-06-24_13-59-21_094959634447_rgbf000062-resize_4/002568_2014-06-24_13-59-21_094959634447_rgbf000062-resize_4-target.png,1000,2.682,3.015,0,1929,510,1001,501,1002,489,feet,,,,,1353107,1698388,49
361608,DepthScenes,duration_discrimination,discrim_jsons/d0_rotated_dr.json,http://54.197.185.130/DepthDuration/depth_discrimination_MTurk/DepthDiscrim_HTML.html#2,2,1366,768,1366,768,6-9-2021,9-6-38,50,depth_discrimination_stimuli/001181_2014-06-17_15-50-57_260595134347_rgbf000106-resize_4/001181_2014-06-17_15-50-57_260595134347_rgbf000106-resize_4-target.png,depth_discrimination_stimuli/002425_2014-06-28_20-27-29_260595134347_rgbf000031-resize_8/002425_2014-06-28_20-27-29_260595134347_rgbf000031-resize_8-target.png,1000,4.149,3.896,1,1909,515,998,493,1009,486,feet,,,,,1353107,1698388,49
361608,DepthScenes,duration_discrimination,discrim_jsons/d0_rotated_dr.json,http://54.197.185.130/DepthDuration/depth_discrimination_MTurk/DepthDiscrim_HTML.html#2,2,1366,768,1366,768,6-9-2021,9-6-38,51,depth_discrimination_stimuli/001498_2014-06-19_17-45-14_260595134347_rgbf000129-resize_4/001498_2014-06-19_17-45-14_260595134347_rgbf000129-resize_4-target.png,depth_discrimination_stimuli/003125_2014-05-12_10-39-22_094959634447_rgbf000100-resize_0/003125_2014-05-12_10-39-22_094959634447_rgbf000100-resize_0-target.png,250,1.4075,4.8655,0,1599,514,238,503,246,511,feet,,,,,1353107,1698388,49
361608,DepthScenes,duration_discrimination,discrim_jsons/d0_rotated_dr.json,http://54.197.185.130/DepthDuration/depth_discrimination_MTurk/DepthDiscrim_HTML.html#2,2,1366,768,1366,768,6-9-2021,9-6-38,52,depth_discrimination_stimuli/002637_2014-06-24_14-51-13_094959634447_rgbf000066-resize_4/002637_2014-06-24_14-51-13_094959634447_rgbf000066-resize_4-target.png,depth_discrimination_stimuli/000720_2014-06-08_18-37-27_260595134347_rgbf000203-resize_4/000720_2014-06-08_18-37-27_260595134347_rgbf000203-resize_4-target.png,250,1.9955,1.558,1,1244,512,239,501,252,504,feet,,,,,1353107,1698388,49
361608,DepthScenes,duration_discrimination,discrim_jsons/d0_rotated_dr.json,http://54.197.185.130/DepthDuration/depth_discrimination_MTurk/DepthDiscrim_HTML.html#2,2,1366,768,1366,768,6-9-2021,9-6-38,53,depth_discrimination_stimuli/000368_2014-06-09_15-53-01_260595134347_rgbf000155-resize_2/000368_2014-06-09_15-53-01_260595134347_rgbf000155-resize_2-target.png,depth_discrimination_stimuli/002199_2014-06-28_18-33-56_260595134347_rgbf000074-resize_0/002199_2014-06-28_18-33-56_260595134347_rgbf000074-resize_0-target.png,1000,2.486,1.996,1,1824,514,996,502,994,505,feet,,,,,1353107,1698388,49
361608,DepthScenes,duration_discrimination,discrim_jsons/d0_rotated_dr.json,http://54.197.185.130/DepthDuration/depth_discrimination_MTurk/DepthDiscrim_HTML.html#2,2,1366,768,1366,768,6-9-2021,9-6-38,54,depth_discrimination_stimuli/002788_2014-06-22_19-36-03_094959634447_rgbf000088-resize_2/002788_2014-06-22_19-36-03_094959634447_rgbf000088-resize_2-target.png,depth_discrimination_stimuli/001289_2014-06-16_16-25-52_260595134347_rgbf000067-resize_1/001289_2014-06-16_16-25-52_260595134347_rgbf000067-resize_1-target.png,250,1.6465,1.8835,1,1154,519,241,501,251,493,feet,,,,,1353107,1698388,49
361608,DepthScenes,duration_discrimination,discrim_jsons/d0_rotated_dr.json,http://54.197.185.130/DepthDuration/depth_discrimination_MTurk/DepthDiscrim_HTML.html#2,2,1366,768,1366,768,6-9-2021,9-6-38,55,depth_discrimination_stimuli/003083_2014-06-15_15-21-03_094959634447_rgbf000063-resize_1/003083_2014-06-15_15-21-03_094959634447_rgbf000063-resize_1-target.png,depth_discrimination_stimuli/001417_2014-06-19_16-25-36_260595134347_rgbf000115-resize_5/001417_2014-06-19_16-25-36_260595134347_rgbf000115-resize_5-target.png,1000,4.1405,4.6255,1,1866,505,1010,487,1013,487,feet,,,,,1353107,1698388,49
361608,DepthScenes,duration_discrimination,discrim_jsons/d0_rotated_dr.json,http://54.197.185.130/DepthDuration/depth_discrimination_MTurk/DepthDiscrim_HTML.html#2,2,1366,768,1366,768,6-9-2021,9-6-38,56,depth_discrimination_stimuli/001133_2014-06-17_14-49-16_260595134347_rgbf000100-resize_0/001133_2014-06-17_14-49-16_260595134347_rgbf000100-resize_0-target.png,depth_discrimination_stimuli/001617_2014-06-20_11-35-32_260595134347_rgbf000066-resize_1/001617_2014-06-20_11-35-32_260595134347_rgbf000066-resize_1-target.png,250,4.2115,3.791,1,2571,505,250,496,254,501,feet,,,,,1353107,1698388,49
361608,DepthScenes,duration_discrimination,discrim_jsons/d0_rotated_dr.json,http://54.197.185.130/DepthDuration/depth_discrimination_MTurk/DepthDiscrim_HTML.html#2,2,1366,768,1366,768,6-9-2021,9-6-38,57,depth_discrimination_stimuli/000009_2014-05-26_14-32-05_260595134347_rgbf000034-resize_3/000009_2014-05-26_14-32-05_260595134347_rgbf000034-resize_3-target.png,depth_discrimination_stimuli/002660_2014-06-13_15-44-18_094959634447_rgbf001878-resize_2/002660_2014-06-13_15-44-18_094959634447_rgbf001878-resize_2-target.png,250,3.8715,3.576,1,1949,504,247,509,254,487,feet,,,,,1353107,1698388,49
361608,DepthScenes,duration_discrimination,discrim_jsons/d0_rotated_dr.json,http://54.197.185.130/DepthDuration/depth_discrimination_MTurk/DepthDiscrim_HTML.html#2,2,1366,768,1366,768,6-9-2021,9-6-38,58,depth_discrimination_stimuli/003495_2014-05-21_16-01-51_094959634447_rgbf000100-resize_3/003495_2014-05-21_16-01-51_094959634447_rgbf000100-resize_3-target.png,depth_discrimination_stimuli/001167_2014-06-17_15-38-07_260595134347_rgbf000108-resize_0/001167_2014-06-17_15-38-07_260595134347_rgbf000108-resize_0-target.png,1000,1.6255,1.8505,0,1872,514,994,504,991,501,feet,,,,,1353107,1698388,49
361608,DepthScenes,duration_discrimination,discrim_jsons/d0_rotated_dr.json,http://54.197.185.130/DepthDuration/depth_discrimination_MTurk/DepthDiscrim_HTML.html#2,2,1366,768,1366,768,6-9-2021,9-6-38,59,depth_discrimination_stimuli/000830_2014-06-04_19-49-31_260595134347_rgbf000096-resize_2/000830_2014-06-04_19-49-31_260595134347_rgbf000096-resize_2-target.png,depth_discrimination_stimuli/000929_2014-06-09_16-33-19_260595134347_rgbf000139-resize_0/000929_2014-06-09_16-33-19_260595134347_rgbf000139-resize_0-target.png,1000,2.6353333333333,2.868,0,1877,501,1010,501,994,503,feet,,,,,1353107,1698388,49
361608,DepthScenes,duration_discrimination,discrim_jsons/d0_rotated_dr.json,http://54.197.185.130/DepthDuration/depth_discrimination_MTurk/DepthDiscrim_HTML.html#2,2,1366,768,1366,768,6-9-2021,9-6-38,60,depth_discrimination_stimuli/001136_2014-06-17_15-19-41_260595134347_rgbf000076-resize_3/001136_2014-06-17_15-19-41_260595134347_rgbf000076-resize_3-target.png,depth_discrimination_stimuli/000869_2014-06-09_20-50-18_260595134347_rgbf000060-resize_3/000869_2014-06-09_20-50-18_260595134347_rgbf000060-resize_3-target.png,1000,1.8655,2.266,1,2167,505,1007,489,1002,503,feet,,,,,1353107,1698388,49
361608,DepthScenes,duration_discrimination,discrim_jsons/d0_rotated_dr.json,http://54.197.185.130/DepthDuration/depth_discrimination_MTurk/DepthDiscrim_HTML.html#2,2,1366,768,1366,768,6-9-2021,9-6-38,61,depth_discrimination_stimuli/001029_2014-06-08_13-17-57_260595134347_rgbf000065-resize_1/001029_2014-06-08_13-17-57_260595134347_rgbf000065-resize_1-target.png,depth_discrimination_stimuli/001199_2014-06-17_16-03-48_260595134347_rgbf000077-resize_0/001199_2014-06-17_16-03-48_260595134347_rgbf000077-resize_0-target.png,1000,3.0835,3.4375,0,1867,503,1008,493,1011,489,feet,,,,,1353107,1698388,49
361608,DepthScenes,duration_discrimination,discrim_jsons/d0_rotated_dr.json,http://54.197.185.130/DepthDuration/depth_discrimination_MTurk/DepthDiscrim_HTML.html#2,2,1366,768,1366,768,6-9-2021,9-6-38,62,depth_discrimination_stimuli/003092_2014-06-24_21-01-49_094959634447_rgbf000049-resize_2/003092_2014-06-24_21-01-49_094959634447_rgbf000049-resize_2-target.png,depth_discrimination_stimuli/000753_2014-06-08_21-57-44_260595134347_rgbf000123-resize_3/000753_2014-06-08_21-57-44_260595134347_rgbf000123-resize_3-target.png,250,1.666,1.916,0,1416,513,250,487,255,495,feet,,,,,1353107,1698388,49
361608,DepthScenes,duration_discrimination,discrim_jsons/d0_rotated_dr.json,http://54.197.185.130/DepthDuration/depth_discrimination_MTurk/DepthDiscrim_HTML.html#2,2,1366,768,1366,768,6-9-2021,9-6-38,63,depth_discrimination_stimuli/000758_2014-06-08_22-05-08_260595134347_rgbf000085-resize_0/000758_2014-06-08_22-05-08_260595134347_rgbf000085-resize_0-target.png,depth_discrimination_stimuli/003070_2014-06-15_14-58-27_094959634447_rgbf000150-resize_3/003070_2014-06-15_14-58-27_094959634447_rgbf000150-resize_3-target.png,250,3.381,2.9415,1,1972,512,252,492,245,509,feet,,,,,1353107,1698388,49
361608,DepthScenes,duration_discrimination,discrim_jsons/d0_rotated_dr.json,http://54.197.185.130/DepthDuration/depth_discrimination_MTurk/DepthDiscrim_HTML.html#2,2,1366,768,1366,768,6-9-2021,9-6-38,64,depth_discrimination_stimuli/000191_2014-05-12_17-07-38_260595134347_rgbf000199-resize_0/000191_2014-05-12_17-07-38_260595134347_rgbf000199-resize_0-target.png,depth_discrimination_stimuli/000780_2014-06-08_22-28-29_260595134347_rgbf000126-resize_1/000780_2014-06-08_22-28-29_260595134347_rgbf000126-resize_1-target.png,250,3.7995,3.3825,1,1241,504,256,495,256,496,feet,,,,,1353107,1698388,49
361608,DepthScenes,duration_discrimination,discrim_jsons/d0_rotated_dr.json,http://54.197.185.130/DepthDuration/depth_discrimination_MTurk/DepthDiscrim_HTML.html#2,2,1366,768,1366,768,6-9-2021,9-6-38,65,depth_discrimination_stimuli/000953_2014-06-08_11-42-19_260595134347_rgbf000083-resize_0/000953_2014-06-08_11-42-19_260595134347_rgbf000083-resize_0-target.png,depth_discrimination_stimuli/000787_2014-06-08_22-33-53_260595134347_rgbf000175-resize_1/000787_2014-06-08_22-33-53_260595134347_rgbf000175-resize_1-target.png,1000,1.369,4.784,0,1991,515,1009,492,991,505,feet,,,,,1353107,1698388,49
361608,DepthScenes,duration_discrimination,discrim_jsons/d0_rotated_dr.json,http://54.197.185.130/DepthDuration/depth_discrimination_MTurk/DepthDiscrim_HTML.html#2,2,1366,768,1366,768,6-9-2021,9-6-38,66,depth_discrimination_stimuli/003423_2014-05-21_10-23-26_094959634447_rgbf002665-resize_2/003423_2014-05-21_10-23-26_094959634447_rgbf002665-resize_2-target.png,depth_discrimination_stimuli/001235_2014-06-17_16-37-36_260595134347_rgbf000084-resize_4/001235_2014-06-17_16-37-36_260595134347_rgbf000084-resize_4-target.png,250,3.2575,3.6605,1,1533,507,250,504,240,502,feet,,,,,1353107,1698388,49
361608,DepthScenes,duration_discrimination,discrim_jsons/d0_rotated_dr.json,http://54.197.185.130/DepthDuration/depth_discrimination_MTurk/DepthDiscrim_HTML.html#2,2,1366,768,1366,768,6-9-2021,9-6-38,67,depth_discrimination_stimuli/000927_2014-06-09_16-32-30_260595134347_rgbf000123-resize_3/000927_2014-06-09_16-32-30_260595134347_rgbf000123-resize_3-target.png,depth_discrimination_stimuli/001810_2014-06-26_20-51-35_260595134347_rgbf000040-resize_3/001810_2014-06-26_20-51-35_260595134347_rgbf000040-resize_3-target.png,1000,2.6785,2.2525,1,1578,514,995,492,1009,491,feet,,,,,1353107,1698388,49
361608,DepthScenes,duration_discrimination,discrim_jsons/d0_rotated_dr.json,http://54.197.185.130/DepthDuration/depth_discrimination_MTurk/DepthDiscrim_HTML.html#2,2,1366,768,1366,768,6-9-2021,9-6-38,68,depth_discrimination_stimuli/000788_2014-06-08_22-34-36_260595134347_rgbf000131-resize_1/000788_2014-06-08_22-34-36_260595134347_rgbf000131-resize_1-target.png,depth_discrimination_stimuli/000521_2014-06-08_13-34-35_260595134347_rgbf000191-resize_2/000521_2014-06-08_13-34-35_260595134347_rgbf000191-resize_2-target.png,1000,3.359,3.0385,1,1856,502,1011,502,991,502,feet,,,,,1353107,1698388,49
361608,DepthScenes,duration_discrimination,discrim_jsons/d0_rotated_dr.json,http://54.197.185.130/DepthDuration/depth_discrimination_MTurk/DepthDiscrim_HTML.html#2,2,1366,768,1366,768,6-9-2021,9-6-38,69,depth_discrimination_stimuli/002805_2014-06-22_19-54-03_094959634447_rgbf000079-resize_1/002805_2014-06-22_19-54-03_094959634447_rgbf000079-resize_1-target.png,depth_discrimination_stimuli/003292_2014-05-14_21-53-49_094959634447_rgbf000100-resize_2/003292_2014-05-14_21-53-49_094959634447_rgbf000100-resize_2-target.png,250,3.144,3.4815,0,3153,501,255,501,252,502,feet,,,,,1353107,1698388,49
361608,DepthScenes,duration_discrimination,discrim_jsons/d0_rotated_dr.json,http://54.197.185.130/DepthDuration/depth_discrimination_MTurk/DepthDiscrim_HTML.html#2,2,1366,768,1366,768,6-9-2021,9-6-38,70,depth_discrimination_stimuli/001815_2014-06-26_20-52-55_260595134347_rgbf000020-resize_0/001815_2014-06-26_20-52-55_260595134347_rgbf000020-resize_0-target.png,depth_discrimination_stimuli/000642_2014-06-08_16-59-25_260595134347_rgbf000098-resize_2/000642_2014-06-08_16-59-25_260595134347_rgbf000098-resize_2-target.png,250,3.3865,2.8815,1,1175,511,253,501,250,486,feet,,,,,1353107,1698388,49
361608,DepthScenes,duration_discrimination,discrim_jsons/d0_rotated_dr.json,http://54.197.185.130/DepthDuration/depth_discrimination_MTurk/DepthDiscrim_HTML.html#2,2,1366,768,1366,768,6-9-2021,9-6-38,71,depth_discrimination_stimuli/003338_2014-05-20_11-01-23_094959634447_rgbf000051-resize_6/003338_2014-05-20_11-01-23_094959634447_rgbf000051-resize_6-target.png,depth_discrimination_stimuli/000878_2014-06-08_22-52-45_260595134347_rgbf000045-resize_2/000878_2014-06-08_22-52-45_260595134347_rgbf000045-resize_2-target.png,250,1.693,2.092,0,1538,506,248,504,242,510,feet,,,,,1353107,1698388,49
361608,DepthScenes,duration_discrimination,discrim_jsons/d0_rotated_dr.json,http://54.197.185.130/DepthDuration/depth_discrimination_MTurk/DepthDiscrim_HTML.html#2,2,1366,768,1366,768,6-9-2021,9-6-38,72,depth_discrimination_stimuli/002139_2014-06-25_21-19-37_260595134347_rgbf000124-resize_2/002139_2014-06-25_21-19-37_260595134347_rgbf000124-resize_2-target.png,depth_discrimination_stimuli/000549_2014-06-08_22-10-24_260595134347_rgbf000247-resize_3/000549_2014-06-08_22-10-24_260595134347_rgbf000247-resize_3-target.png,1000,2.107,1.841,1,1652,505,1008,502,995,505,feet,,,,,1353107,1698388,49
361608,DepthScenes,duration_discrimination,discrim_jsons/d0_rotated_dr.json,http://54.197.185.130/DepthDuration/depth_discrimination_MTurk/DepthDiscrim_HTML.html#2,2,1366,768,1366,768,6-9-2021,9-6-38,73,depth_discrimination_stimuli/000555_2014-06-09_22-42-23_260595134347_rgbf000037-resize_4/000555_2014-06-09_22-42-23_260595134347_rgbf000037-resize_4-target.png,depth_discrimination_stimuli/001110_2014-06-15_17-25-28_260595134347_rgbf000150-resize_1/001110_2014-06-15_17-25-28_260595134347_rgbf000150-resize_1-target.png,1000,1.9765,1.7115,1,2065,512,1004,484,1013,504,feet,,,,,1353107,1698388,49
361608,DepthScenes,duration_discrimination,discrim_jsons/d0_rotated_dr.json,http://54.197.185.130/DepthDuration/depth_discrimination_MTurk/DepthDiscrim_HTML.html#2,2,1366,768,1366,768,6-9-2021,9-6-38,74,depth_discrimination_stimuli/003490_2014-05-21_15-50-11_094959634447_rgbf000101-resize_3/003490_2014-05-21_15-50-11_094959634447_rgbf000101-resize_3-target.png,depth_discrimination_stimuli/001392_2014-06-19_16-07-59_260595134347_rgbf000046-resize_1/001392_2014-06-19_16-07-59_260595134347_rgbf000046-resize_1-target.png,250,3.6445,4.135,0,2386,503,252,506,254,488,feet,,,,,1353107,1698388,49
361608,DepthScenes,duration_discrimination,discrim_jsons/d0_rotated_dr.json,http://54.197.185.130/DepthDuration/depth_discrimination_MTurk/DepthDiscrim_HTML.html#2,2,1366,768,1366,768,6-9-2021,9-6-38,75,depth_discrimination_stimuli/002663_2014-06-13_15-50-26_094959634447_rgbf000075-resize_1/002663_2014-06-13_15-50-26_094959634447_rgbf000075-resize_1-target.png,depth_discrimination_stimuli/000414_2014-06-04_19-49-13_260595134347_rgbf000044-resize_0/000414_2014-06-04_19-49-13_260595134347_rgbf000044-resize_0-target.png,250,4.7495,4.329,1,1473,511,240,513,237,504,feet,,,,,1353107,1698388,49
361608,DepthScenes,duration_discrimination,discrim_jsons/d0_rotated_dr.json,http://54.197.185.130/DepthDuration/depth_discrimination_MTurk/DepthDiscrim_HTML.html#2,2,1366,768,1366,768,6-9-2021,9-6-38,76,depth_discrimination_stimuli/001188_2014-06-17_15-54-10_260595134347_rgbf000090-resize_2/001188_2014-06-17_15-54-10_260595134347_rgbf000090-resize_2-target.png,depth_discrimination_stimuli/002750_2014-06-22_19-08-03_094959634447_rgbf000094-resize_4/002750_2014-06-22_19-08-03_094959634447_rgbf000094-resize_4-target.png,1000,2.744,2.354,0,2130,512,995,494,1005,503,feet,,,,,1353107,1698388,49
361608,DepthScenes,duration_discrimination,discrim_jsons/d0_rotated_dr.json,http://54.197.185.130/DepthDuration/depth_discrimination_MTurk/DepthDiscrim_HTML.html#2,2,1366,768,1366,768,6-9-2021,9-6-38,77,depth_discrimination_stimuli/002678_2014-06-13_16-15-32_094959634447_rgbf000151-resize_6/002678_2014-06-13_16-15-32_094959634447_rgbf000151-resize_6-target.png,depth_discrimination_stimuli/001011_2014-06-08_23-18-54_260595134347_rgbf000044-resize_4/001011_2014-06-08_23-18-54_260595134347_rgbf000044-resize_4-target.png,250,2.183,2.473,1,1182,505,254,500,252,502,feet,,,,,1353107,1698388,49
361608,DepthScenes,duration_discrimination,discrim_jsons/d0_rotated_dr.json,http://54.197.185.130/DepthDuration/depth_discrimination_MTurk/DepthDiscrim_HTML.html#2,2,1366,768,1366,768,6-9-2021,9-6-38,78,depth_discrimination_stimuli/002790_2014-06-22_19-36-35_094959634447_rgbf000074-resize_4/002790_2014-06-22_19-36-35_094959634447_rgbf000074-resize_4-target.png,depth_discrimination_stimuli/001032_2014-06-08_13-23-17_260595134347_rgbf000021-resize_3/001032_2014-06-08_13-23-17_260595134347_rgbf000021-resize_3-target.png,250,3.512,3.2725,1,1257,502,249,502,249,507,feet,,,,,1353107,1698388,49
361608,DepthScenes,duration_discrimination,discrim_jsons/d0_rotated_dr.json,http://54.197.185.130/DepthDuration/depth_discrimination_MTurk/DepthDiscrim_HTML.html#2,2,1366,768,1366,768,6-9-2021,9-6-38,79,depth_discrimination_stimuli/003492_2014-05-21_15-50-55_094959634447_rgbf000828-resize_1/003492_2014-05-21_15-50-55_094959634447_rgbf000828-resize_1-target.png,depth_discrimination_stimuli/001158_2014-06-17_15-32-16_260595134347_rgbf000138-resize_2/001158_2014-06-17_15-32-16_260595134347_rgbf000138-resize_2-target.png,1000,4.06875,4.5315,0,1842,505,1004,507,991,500,feet,,,,,1353107,1698388,49
361608,DepthScenes,duration_discrimination,discrim_jsons/d0_rotated_dr.json,http://54.197.185.130/DepthDuration/depth_discrimination_MTurk/DepthDiscrim_HTML.html#2,2,1366,768,1366,768,6-9-2021,9-6-38,80,depth_discrimination_stimuli/002763_2014-06-22_19-13-10_094959634447_rgbf000075-resize_4/002763_2014-06-22_19-13-10_094959634447_rgbf000075-resize_4-target.png,depth_discrimination_stimuli/001244_2014-06-17_16-47-45_260595134347_rgbf000030-resize_4/001244_2014-06-17_16-47-45_260595134347_rgbf000030-resize_4-target.png,250,1.68375,2.0425,0,1282,511,251,488,261,503,feet,,,,,1353107,1698388,49
361608,DepthScenes,duration_discrimination,discrim_jsons/d0_rotated_dr.json,http://54.197.185.130/DepthDuration/depth_discrimination_MTurk/DepthDiscrim_HTML.html#2,2,1366,768,1366,768,6-9-2021,9-6-38,81,depth_discrimination_stimuli/002057_2014-06-24_21-00-13_260595134347_rgbf000120-resize_1/002057_2014-06-24_21-00-13_260595134347_rgbf000120-resize_1-target.png,depth_discrimination_stimuli/000505_2014-06-08_23-03-23_260595134347_rgbf000091-resize_0/000505_2014-06-08_23-03-23_260595134347_rgbf000091-resize_0-target.png,250,2.967,3.3105,1,1169,514,238,510,251,497,feet,,,,,1353107,1698388,49
361608,DepthScenes,duration_discrimination,discrim_jsons/d0_rotated_dr.json,http://54.197.185.130/DepthDuration/depth_discrimination_MTurk/DepthDiscrim_HTML.html#2,2,1366,768,1366,768,6-9-2021,9-6-38,82,depth_discrimination_stimuli/002072_2014-06-24_21-48-06_260595134347_rgbf000115-resize_0/002072_2014-06-24_21-48-06_260595134347_rgbf000115-resize_0-target.png,depth_discrimination_stimuli/001012_2014-06-08_23-19-38_260595134347_rgbf000057-resize_0/001012_2014-06-08_23-19-38_260595134347_rgbf000057-resize_0-target.png,250,4.702,1.38325,0,1903,502,250,504,246,510,feet,,,,,1353107,1698388,49
361608,DepthScenes,duration_discrimination,discrim_jsons/d0_rotated_dr.json,http://54.197.185.130/DepthDuration/depth_discrimination_MTurk/DepthDiscrim_HTML.html#2,2,1366,768,1366,768,6-9-2021,9-6-38,83,depth_discrimination_stimuli/000810_2014-06-08_17-20-01_260595134347_rgbf000105-resize_0/000810_2014-06-08_17-20-01_260595134347_rgbf000105-resize_0-target.png,depth_discrimination_stimuli/000103_2014-05-14_22-01-17_260595134347_rgbf000152-resize_5/000103_2014-05-14_22-01-17_260595134347_rgbf000152-resize_5-target.png,250,1.4865,1.993,0,1205,501,253,509,251,487,feet,,,,,1353107,1698388,49
361608,DepthScenes,duration_discrimination,discrim_jsons/d0_rotated_dr.json,http://54.197.185.130/DepthDuration/depth_discrimination_MTurk/DepthDiscrim_HTML.html#2,2,1366,768,1366,768,6-9-2021,9-6-38,84,depth_discrimination_stimuli/000109_2014-05-14_23-41-52_260595134347_rgbf000035-resize_9/000109_2014-05-14_23-41-52_260595134347_rgbf000035-resize_9-target.png,depth_discrimination_stimuli/000470_2014-06-09_19-42-40_260595134347_rgbf000094-resize_1/000470_2014-06-09_19-42-40_260595134347_rgbf000094-resize_1-target.png,250,1.3545,1.831,0,1400,506,246,504,245,508,feet,,,,,1353107,1698388,49
361608,DepthScenes,duration_discrimination,discrim_jsons/d0_rotated_dr.json,http://54.197.185.130/DepthDuration/depth_discrimination_MTurk/DepthDiscrim_HTML.html#2,2,1366,768,1366,768,6-9-2021,9-6-38,85,depth_discrimination_stimuli/002675_2014-06-13_16-08-49_094959634447_rgbf000151-resize_2/002675_2014-06-13_16-08-49_094959634447_rgbf000151-resize_2-target.png,depth_discrimination_stimuli/001222_2014-06-17_16-24-06_260595134347_rgbf000073-resize_0/001222_2014-06-17_16-24-06_260595134347_rgbf000073-resize_0-target.png,1000,4.5065,1.4385,1,1747,501,1005,495,1002,504,feet,,,,,1353107,1698388,49
361608,DepthScenes,duration_discrimination,discrim_jsons/d0_rotated_dr.json,http://54.197.185.130/DepthDuration/depth_discrimination_MTurk/DepthDiscrim_HTML.html#2,2,1366,768,1366,768,6-9-2021,9-6-38,86,depth_discrimination_stimuli/002987_2014-06-08_18-48-20_094959634447_rgbf000022-resize_0/002987_2014-06-08_18-48-20_094959634447_rgbf000022-resize_0-target.png,depth_discrimination_stimuli/000502_2014-06-08_23-02-32_260595134347_rgbf000063-resize_4/000502_2014-06-08_23-02-32_260595134347_rgbf000063-resize_4-target.png,250,2.6775,2.431,1,1955,517,237,498,250,518,feet,,,,,1353107,1698388,49
361608,DepthScenes,duration_discrimination,discrim_jsons/d0_rotated_dr.json,http://54.197.185.130/DepthDuration/depth_discrimination_MTurk/DepthDiscrim_HTML.html#2,2,1366,768,1366,768,6-9-2021,9-6-38,87,depth_discrimination_stimuli/003079_2014-06-15_15-18-20_094959634447_rgbf000152-resize_8/003079_2014-06-15_15-18-20_094959634447_rgbf000152-resize_8-target.png,depth_discrimination_stimuli/001056_2014-06-08_18-46-44_260595134347_rgbf000068-resize_0/001056_2014-06-08_18-46-44_260595134347_rgbf000068-resize_0-target.png,1000,2.8775,2.6625,1,1833,502,1004,494,1002,502,feet,,,,,1353107,1698388,49
361608,DepthScenes,duration_discrimination,discrim_jsons/d0_rotated_dr.json,http://54.197.185.130/DepthDuration/depth_discrimination_MTurk/DepthDiscrim_HTML.html#2,2,1366,768,1366,768,6-9-2021,9-6-38,88,depth_discrimination_stimuli/001584_2014-06-20_11-07-43_260595134347_rgbf000002-resize_1/001584_2014-06-20_11-07-43_260595134347_rgbf000002-resize_1-target.png,depth_discrimination_stimuli/002570_2014-06-24_13-59-54_094959634447_rgbf000059-resize_0/002570_2014-06-24_13-59-54_094959634447_rgbf000059-resize_0-target.png,1000,3.53,4.037,0,2276,506,1006,489,1007,508,feet,,,,,1353107,1698388,49
361608,DepthScenes,duration_discrimination,discrim_jsons/d0_rotated_dr.json,http://54.197.185.130/DepthDuration/depth_discrimination_MTurk/DepthDiscrim_HTML.html#2,2,1366,768,1366,768,6-9-2021,9-6-38,89,depth_discrimination_stimuli/000742_2014-06-08_18-48-09_260595134347_rgbf000164-resize_4/000742_2014-06-08_18-48-09_260595134347_rgbf000164-resize_4-target.png,depth_discrimination_stimuli/000773_2014-06-08_22-24-54_260595134347_rgbf000093-resize_1/000773_2014-06-08_22-24-54_260595134347_rgbf000093-resize_1-target.png,1000,4.632,4.973,1,1993,515,1001,485,1006,499,feet,,,,,1353107,1698388,49
361608,DepthScenes,duration_discrimination,discrim_jsons/d0_rotated_dr.json,http://54.197.185.130/DepthDuration/depth_discrimination_MTurk/DepthDiscrim_HTML.html#2,2,1366,768,1366,768,6-9-2021,9-6-38,90,depth_discrimination_stimuli/002964_2014-06-08_17-46-11_094959634447_rgbf000091-resize_4/002964_2014-06-08_17-46-11_094959634447_rgbf000091-resize_4-target.png,depth_discrimination_stimuli/000483_2014-06-09_20-41-45_260595134347_rgbf000116-resize_4/000483_2014-06-09_20-41-45_260595134347_rgbf000116-resize_4-target.png,1000,1.691,1.337,1,1927,501,1014,490,1007,499,feet,,,,,1353107,1698388,49
361608,DepthScenes,duration_discrimination,discrim_jsons/d0_rotated_dr.json,http://54.197.185.130/DepthDuration/depth_discrimination_MTurk/DepthDiscrim_HTML.html#2,2,1366,768,1366,768,6-9-2021,9-6-38,91,depth_discrimination_stimuli/002758_2014-06-22_19-11-20_094959634447_rgbf000128-resize_1/002758_2014-06-22_19-11-20_094959634447_rgbf000128-resize_1-target.png,depth_discrimination_stimuli/000854_2014-06-09_19-43-13_260595134347_rgbf000066-resize_0/000854_2014-06-09_19-43-13_260595134347_rgbf000066-resize_0-target.png,250,2.555,3.068,1,1637,509,251,505,250,487,feet,,,,,1353107,1698388,49
361608,DepthScenes,duration_discrimination,discrim_jsons/d0_rotated_dr.json,http://54.197.185.130/DepthDuration/depth_discrimination_MTurk/DepthDiscrim_HTML.html#2,2,1366,768,1366,768,6-9-2021,9-6-38,92,depth_discrimination_stimuli/002209_2014-06-28_18-36-10_260595134347_rgbf000051-resize_1/002209_2014-06-28_18-36-10_260595134347_rgbf000051-resize_1-target.png,depth_discrimination_stimuli/001055_2014-06-08_18-45-35_260595134347_rgbf000111-resize_4/001055_2014-06-08_18-45-35_260595134347_rgbf000111-resize_4-target.png,1000,2.057,2.429,0,2252,515,1001,491,1006,502,feet,,,,,1353107,1698388,49
361608,DepthScenes,duration_discrimination,discrim_jsons/d0_rotated_dr.json,http://54.197.185.130/DepthDuration/depth_discrimination_MTurk/DepthDiscrim_HTML.html#2,2,1366,768,1366,768,6-9-2021,9-6-38,93,depth_discrimination_stimuli/001150_2014-06-17_15-27-34_260595134347_rgbf000108-resize_2/001150_2014-06-17_15-27-34_260595134347_rgbf000108-resize_2-target.png,depth_discrimination_stimuli/000677_2014-06-08_23-10-32_260595134347_rgbf000158-resize_6/000677_2014-06-08_23-10-32_260595134347_rgbf000158-resize_6-target.png,1000,4.0325,3.556,0,2092,513,999,489,1004,502,feet,,,,,1353107,1698388,49
361608,DepthScenes,duration_discrimination,discrim_jsons/d0_rotated_dr.json,http://54.197.185.130/DepthDuration/depth_discrimination_MTurk/DepthDiscrim_HTML.html#2,2,1366,768,1366,768,6-9-2021,9-6-38,94,depth_discrimination_stimuli/001828_2014-06-26_21-40-03_260595134347_rgbf000024-resize_0/001828_2014-06-26_21-40-03_260595134347_rgbf000024-resize_0-target.png,depth_discrimination_stimuli/002414_2014-06-28_20-24-58_260595134347_rgbf000067-resize_4/002414_2014-06-28_20-24-58_260595134347_rgbf000067-resize_4-target.png,250,4.826,4.363,1,1722,511,239,516,250,492,feet,,,,,1353107,1698388,49
361608,DepthScenes,duration_discrimination,discrim_jsons/d0_rotated_dr.json,http://54.197.185.130/DepthDuration/depth_discrimination_MTurk/DepthDiscrim_HTML.html#2,2,1366,768,1366,768,6-9-2021,9-6-38,95,depth_discrimination_stimuli/002905_2014-06-03_18-04-43_094959634447_rgbf000151-resize_2/002905_2014-06-03_18-04-43_094959634447_rgbf000151-resize_2-target.png,depth_discrimination_stimuli/000740_2014-06-08_18-46-23_260595134347_rgbf000049-resize_6/000740_2014-06-08_18-46-23_260595134347_rgbf000049-resize_6-target.png,250,2.0295,1.687,1,1403,509,254,491,247,500,feet,,,,,1353107,1698388,49
361608,DepthScenes,duration_discrimination,discrim_jsons/d0_rotated_dr.json,http://54.197.185.130/DepthDuration/depth_discrimination_MTurk/DepthDiscrim_HTML.html#2,2,1366,768,1366,768,6-9-2021,9-6-38,96,depth_discrimination_stimuli/002153_2014-06-25_21-27-18_260595134347_rgbf000038-resize_5/002153_2014-06-25_21-27-18_260595134347_rgbf000038-resize_5-target.png,depth_discrimination_stimuli/002725_2014-06-22_11-47-51_094959634447_rgbf000070-resize_1/002725_2014-06-22_11-47-51_094959634447_rgbf000070-resize_1-target.png,250,2.505,2.195,0,2298,512,253,500,235,515,feet,,,,,1353107,1698388,49
361608,DepthScenes,duration_discrimination,discrim_jsons/d0_rotated_dr.json,http://54.197.185.130/DepthDuration/depth_discrimination_MTurk/DepthDiscrim_HTML.html#2,2,1366,768,1366,768,6-9-2021,9-6-38,96,,,,,,,2298,512,253,500,235,515,feet,,,,,1353107,1698388,49
361608,DepthScenes,duration_discrimination,discrim_jsons/d0_rotated_dr.json,http://54.197.185.130/DepthDuration/depth_discrimination_MTurk/DepthDiscrim_HTML.html#2,2,1349,768,1366,768,6-9-2021,9-6-38,98,,,,,,,2298,512,253,500,235,515,feet,3,5,depth_discrimination_stimuli/002568_2014-06-24_13-59-21_094959634447_rgbf000062-resize_4/002568_2014-06-24_13-59-21_094959634447_rgbf000062-resize-original.jpg,8021,1353107,1698388,49
361608,DepthScenes,duration_discrimination,discrim_jsons/d0_rotated_dr.json,http://54.197.185.130/DepthDuration/depth_discrimination_MTurk/DepthDiscrim_HTML.html#2,2,1349,768,1366,768,6-9-2021,9-6-38,99,,,,,,,2298,512,253,500,235,515,feet,3,1,depth_discrimination_stimuli/000522_2014-06-08_13-35-06_260595134347_rgbf000244-resize_1/000522_2014-06-08_13-35-06_260595134347_rgbf000244-resize-original.jpg,8412,1353107,1698388,49
361608,DepthScenes,duration_discrimination,discrim_jsons/d0_rotated_dr.json,http://54.197.185.130/DepthDuration/depth_discrimination_MTurk/DepthDiscrim_HTML.html#2,2,1349,768,1366,768,6-9-2021,9-6-38,100,,,,,,,2298,512,253,500,235,515,feet,2,2,depth_discrimination_stimuli/001828_2014-06-26_21-40-03_260595134347_rgbf000024-resize_0/001828_2014-06-26_21-40-03_260595134347_rgbf000024-resize-original.jpg,5037,1353107,1698388,49
361608,DepthScenes,duration_discrimination,discrim_jsons/d0_rotated_dr.json,http://54.197.185.130/DepthDuration/depth_discrimination_MTurk/DepthDiscrim_HTML.html#2,2,1349,768,1366,768,6-9-2021,9-6-38,101,,,,,,,2298,512,253,500,235,515,feet,2,2,depth_discrimination_stimuli/003228_2014-05-14_13-42-35_094959634447_rgbf000101-resize_1/003228_2014-05-14_13-42-35_094959634447_rgbf000101-resize-original.jpg,11457,1353107,1698388,49
361608,DepthScenes,duration_discrimination,discrim_jsons/d0_rotated_dr.json,http://54.197.185.130/DepthDuration/depth_discrimination_MTurk/DepthDiscrim_HTML.html#2,2,1349,768,1366,768,6-9-2021,9-6-38,102,,,,,,,2298,512,253,500,235,515,feet,1,2,depth_discrimination_stimuli/002875_2014-06-01_15-19-00_094959634447_rgbf000151-resize_1/002875_2014-06-01_15-19-00_094959634447_rgbf000151-resize-original.jpg,9855,1353107,1698388,49
361608,DepthScenes,duration_discrimination,discrim_jsons/d0_rotated_dr.json,http://54.197.185.130/DepthDuration/depth_discrimination_MTurk/DepthDiscrim_HTML.html#2,2,1349,768,1366,768,6-9-2021,9-6-38,103,,,,,,,2298,512,253,500,235,515,feet,2,2,depth_discrimination_stimuli/002748_2014-06-22_19-07-22_094959634447_rgbf000078-resize_1/002748_2014-06-22_19-07-22_094959634447_rgbf000078-resize-original.jpg,8073,1353107,1698388,49
361608,DepthScenes,duration_discrimination,discrim_jsons/d0_rotated_dr.json,http://54.197.185.130/DepthDuration/depth_discrimination_MTurk/DepthDiscrim_HTML.html#2,2,1349,768,1366,768,6-9-2021,9-6-38,104,,,,,,,2298,512,253,500,235,515,feet,2,3,depth_discrimination_stimuli/001617_2014-06-20_11-35-32_260595134347_rgbf000066-resize_1/001617_2014-06-20_11-35-32_260595134347_rgbf000066-resize-original.jpg,4750,1353107,1698388,49
361608,DepthScenes,duration_discrimination,discrim_jsons/d0_rotated_dr.json,http://54.197.185.130/DepthDuration/depth_discrimination_MTurk/DepthDiscrim_HTML.html#2,2,1349,768,1366,768,6-9-2021,9-6-38,105,,,,,,,2298,512,253,500,235,515,feet,3,3,depth_discrimination_stimuli/000555_2014-06-09_22-42-23_260595134347_rgbf000037-resize_4/000555_2014-06-09_22-42-23_260595134347_rgbf000037-resize-original.jpg,9979,1353107,1698388,49
361608,DepthScenes,duration_discrimination,discrim_jsons/d0_rotated_dr.json,http://54.197.185.130/DepthDuration/depth_discrimination_MTurk/DepthDiscrim_HTML.html#2,2,1349,768,1366,768,6-9-2021,9-6-38,106,,,,,,,2298,512,253,500,235,515,feet,5,5,scene_property_catch_stimuli/sun_aoquhiddlfqapdlz.jpg,8883,1353107,1698388,49
361608,DepthScenes,duration_discrimination,discrim_jsons/d0_rotated_dr.json,http://54.197.185.130/DepthDuration/depth_discrimination_MTurk/DepthDiscrim_HTML.html#2,2,1349,768,1366,768,6-9-2021,9-6-38,107,,,,,,,2298,512,253,500,235,515,feet,3,2,depth_discrimination_stimuli/002444_2014-06-28_20-32-08_260595134347_rgbf000027-resize_0/002444_2014-06-28_20-32-08_260595134347_rgbf000027-resize-original.jpg,3748,1353107,1698388,49
361608,DepthScenes,duration_discrimination,discrim_jsons/d0_rotated_dr.json,http://54.197.185.130/DepthDuration/depth_discrimination_MTurk/DepthDiscrim_HTML.html#2,2,1349,768,1366,768,6-9-2021,9-6-38,108,,,,,,,2298,512,253,500,235,515,feet,2,3,depth_discrimination_stimuli/001235_2014-06-17_16-37-36_260595134347_rgbf000084-resize_4/001235_2014-06-17_16-37-36_260595134347_rgbf000084-resize-original.jpg,7099,1353107,1698388,49
361608,DepthScenes,duration_discrimination,discrim_jsons/d0_rotated_dr.json,http://54.197.185.130/DepthDuration/depth_discrimination_MTurk/DepthDiscrim_HTML.html#2,2,1349,768,1366,768,6-9-2021,9-6-38,109,,,,,,,2298,512,253,500,235,515,feet,2,2,depth_discrimination_stimuli/000677_2014-06-08_23-10-32_260595134347_rgbf000158-resize_6/000677_2014-06-08_23-10-32_260595134347_rgbf000158-resize-original.jpg,6121,1353107,1698388,49
361608,DepthScenes,duration_discrimination,discrim_jsons/d0_rotated_dr.json,http://54.197.185.130/DepthDuration/depth_discrimination_MTurk/DepthDiscrim_HTML.html#2,2,1349,768,1366,768,6-9-2021,9-6-38,110,,,,,,,2298,512,253,500,235,515,feet,3,5,depth_discrimination_stimuli/002103_2014-06-25_20-00-40_260595134347_rgbf000049-resize_0/002103_2014-06-25_20-00-40_260595134347_rgbf000049-resize-original.jpg,4595,1353107,1698388,49
361608,DepthScenes,duration_discrimination,discrim_jsons/d0_rotated_dr.json,http://54.197.185.130/DepthDuration/depth_discrimination_MTurk/DepthDiscrim_HTML.html#2,2,1349,768,1366,768,6-9-2021,9-6-38,111,,,,,,,2298,512,253,500,235,515,feet,2,2,depth_discrimination_stimuli/000742_2014-06-08_18-48-09_260595134347_rgbf000164-resize_4/000742_2014-06-08_18-48-09_260595134347_rgbf000164-resize-original.jpg,4094,1353107,1698388,49
361608,DepthScenes,duration_discrimination,discrim_jsons/d0_rotated_dr.json,http://54.197.185.130/DepthDuration/depth_discrimination_MTurk/DepthDiscrim_HTML.html#2,2,1349,768,1366,768,6-9-2021,9-6-38,112,,,,,,,2298,512,253,500,235,515,feet,2,1,depth_discrimination_stimuli/003495_2014-05-21_16-01-51_094959634447_rgbf000100-resize_3/003495_2014-05-21_16-01-51_094959634447_rgbf000100-resize-original.jpg,5288,1353107,1698388,49
361608,DepthScenes,duration_discrimination,discrim_jsons/d0_rotated_dr.json,http://54.197.185.130/DepthDuration/depth_discrimination_MTurk/DepthDiscrim_HTML.html#2,2,1349,768,1366,768,6-9-2021,9-6-38,113,,,,,,,2298,512,253,500,235,515,feet,2,2,depth_discrimination_stimuli/001214_2014-06-17_16-13-55_260595134347_rgbf000111-resize_0/001214_2014-06-17_16-13-55_260595134347_rgbf000111-resize-original.jpg,5126,1353107,1698388,49
361608,DepthScenes,duration_discrimination,discrim_jsons/d0_rotated_dr.json,http://54.197.185.130/DepthDuration/depth_discrimination_MTurk/DepthDiscrim_HTML.html#2,2,1349,768,1366,768,6-9-2021,9-6-38,114,,,,,,,2298,512,253,500,235,515,feet,2,1,depth_discrimination_stimuli/003546_2014-05-22_15-48-53_094959634447_rgbf004816-resize_3/003546_2014-05-22_15-48-53_094959634447_rgbf004816-resize-original.jpg,11254,1353107,1698388,49
361608,DepthScenes,duration_discrimination,discrim_jsons/d0_rotated_dr.json,http://54.197.185.130/DepthDuration/depth_discrimination_MTurk/DepthDiscrim_HTML.html#2,2,1349,768,1366,768,6-9-2021,9-6-38,115,,,,,,,2298,512,253,500,235,515,feet,1,1,depth_discrimination_stimuli/003587_2014-05-23_16-48-02_094959634447_rgbf002384-resize_2/003587_2014-05-23_16-48-02_094959634447_rgbf002384-resize-original.jpg,3277,1353107,1698388,49
361608,DepthScenes,duration_discrimination,discrim_jsons/d0_rotated_dr.json,http://54.197.185.130/DepthDuration/depth_discrimination_MTurk/DepthDiscrim_HTML.html#2,2,1349,768,1366,768,6-9-2021,9-6-38,116,,,,,,,2298,512,253,500,235,515,feet,2,2,depth_discrimination_stimuli/001810_2014-06-26_20-51-35_260595134347_rgbf000040-resize_3/001810_2014-06-26_20-51-35_260595134347_rgbf000040-resize-original.jpg,3063,1353107,1698388,49
361608,DepthScenes,duration_discrimination,discrim_jsons/d0_rotated_dr.json,http://54.197.185.130/DepthDuration/depth_discrimination_MTurk/DepthDiscrim_HTML.html#2,2,1349,768,1366,768,6-9-2021,9-6-38,117,,,,,,,2298,512,253,500,235,515,feet,2,3,depth_discrimination_stimuli/002545_2014-06-24_13-38-53_094959634447_rgbf000080-resize_4/002545_2014-06-24_13-38-53_094959634447_rgbf000080-resize-original.jpg,6437,1353107,1698388,49
361608,DepthScenes,duration_discrimination,discrim_jsons/d0_rotated_dr.json,http://54.197.185.130/DepthDuration/depth_discrimination_MTurk/DepthDiscrim_HTML.html#2,2,1349,768,1366,768,6-9-2021,9-6-38,118,,,,,,,2298,512,253,500,235,515,feet,2,1,depth_discrimination_stimuli/000109_2014-05-14_23-41-52_260595134347_rgbf000035-resize_9/000109_2014-05-14_23-41-52_260595134347_rgbf000035-resize-original.jpg,3578,1353107,1698388,49
361608,DepthScenes,duration_discrimination,discrim_jsons/d0_rotated_dr.json,http://54.197.185.130/DepthDuration/depth_discrimination_MTurk/DepthDiscrim_HTML.html#2,2,1349,768,1366,768,6-9-2021,9-6-38,119,,,,,,,2298,512,253,500,235,515,feet,1,1,depth_discrimination_stimuli/002199_2014-06-28_18-33-56_260595134347_rgbf000074-resize_0/002199_2014-06-28_18-33-56_260595134347_rgbf000074-resize-original.jpg,3056,1353107,1698388,49
361608,DepthScenes,duration_discrimination,discrim_jsons/d0_rotated_dr.json,http://54.197.185.130/DepthDuration/depth_discrimination_MTurk/DepthDiscrim_HTML.html#2,2,1349,768,1366,768,6-9-2021,9-6-38,120,,,,,,,2298,512,253,500,235,515,feet,2,2,depth_discrimination_stimuli/000682_2014-06-08_23-14-58_260595134347_rgbf000041-resize_5/000682_2014-06-08_23-14-58_260595134347_rgbf000041-resize-original.jpg,6532,1353107,1698388,49
361608,DepthScenes,duration_discrimination,discrim_jsons/d0_rotated_dr.json,http://54.197.185.130/DepthDuration/depth_discrimination_MTurk/DepthDiscrim_HTML.html#2,2,1349,768,1366,768,6-9-2021,9-6-38,121,,,,,,,2298,512,253,500,235,515,feet,3,4,depth_discrimination_stimuli/002375_2014-06-28_20-13-44_260595134347_rgbf000032-resize_1/002375_2014-06-28_20-13-44_260595134347_rgbf000032-resize-original.jpg,5500,1353107,1698388,49
361608,DepthScenes,duration_discrimination,discrim_jsons/d0_rotated_dr.json,http://54.197.185.130/DepthDuration/depth_discrimination_MTurk/DepthDiscrim_HTML.html#2,2,1349,768,1366,768,6-9-2021,9-6-38,122,,,,,,,2298,512,253,500,235,515,feet,2,2,depth_discrimination_stimuli/002118_2014-06-25_20-32-08_260595134347_rgbf000078-resize_1/002118_2014-06-25_20-32-08_260595134347_rgbf000078-resize-original.jpg,8164,1353107,1698388,49
361608,DepthScenes,duration_discrimination,discrim_jsons/d0_rotated_dr.json,http://54.197.185.130/DepthDuration/depth_discrimination_MTurk/DepthDiscrim_HTML.html#2,2,1349,768,1366,768,6-9-2021,9-6-38,123,,,,,,,2298,512,253,500,235,515,feet,2,2,depth_discrimination_stimuli/002153_2014-06-25_21-27-18_260595134347_rgbf000038-resize_5/002153_2014-06-25_21-27-18_260595134347_rgbf000038-resize-original.jpg,7461,1353107,1698388,49
361608,DepthScenes,duration_discrimination,discrim_jsons/d0_rotated_dr.json,http://54.197.185.130/DepthDuration/depth_discrimination_MTurk/DepthDiscrim_HTML.html#2,2,1349,768,1366,768,6-9-2021,9-6-38,124,,,,,,,2298,512,253,500,235,515,feet,1,1,depth_discrimination_stimuli/000854_2014-06-09_19-43-13_260595134347_rgbf000066-resize_0/000854_2014-06-09_19-43-13_260595134347_rgbf000066-resize-original.jpg,3498,1353107,1698388,49
361608,DepthScenes,duration_discrimination,discrim_jsons/d0_rotated_dr.json,http://54.197.185.130/DepthDuration/depth_discrimination_MTurk/DepthDiscrim_HTML.html#2,2,1349,768,1366,768,6-9-2021,9-6-38,125,,,,,,,2298,512,253,500,235,515,feet,2,2,depth_discrimination_stimuli/003292_2014-05-14_21-53-49_094959634447_rgbf000100-resize_2/003292_2014-05-14_21-53-49_094959634447_rgbf000100-resize-original.jpg,3211,1353107,1698388,49
361608,DepthScenes,duration_discrimination,discrim_jsons/d0_rotated_dr.json,http://54.197.185.130/DepthDuration/depth_discrimination_MTurk/DepthDiscrim_HTML.html#2,2,1349,768,1366,768,6-9-2021,9-6-38,126,,,,,,,2298,512,253,500,235,515,feet,2,1,depth_discrimination_stimuli/000943_2014-06-09_19-31-07_260595134347_rgbf000128-resize_1/000943_2014-06-09_19-31-07_260595134347_rgbf000128-resize-original.jpg,6770,1353107,1698388,49
361608,DepthScenes,duration_discrimination,discrim_jsons/d0_rotated_dr.json,http://54.197.185.130/DepthDuration/depth_discrimination_MTurk/DepthDiscrim_HTML.html#2,2,1349,768,1366,768,6-9-2021,9-6-38,127,,,,,,,2298,512,253,500,235,515,feet,1,1,depth_discrimination_stimuli/002057_2014-06-24_21-00-13_260595134347_rgbf000120-resize_1/002057_2014-06-24_21-00-13_260595134347_rgbf000120-resize-original.jpg,4544,1353107,1698388,49
361608,DepthScenes,duration_discrimination,discrim_jsons/d0_rotated_dr.json,http://54.197.185.130/DepthDuration/depth_discrimination_MTurk/DepthDiscrim_HTML.html#2,2,1349,768,1366,768,6-9-2021,9-6-38,128,,,,,,,2298,512,253,500,235,515,feet,2,2,depth_discrimination_stimuli/001059_2014-06-08_21-53-27_260595134347_rgbf000061-resize_4/001059_2014-06-08_21-53-27_260595134347_rgbf000061-resize-original.jpg,3071,1353107,1698388,49
361608,DepthScenes,duration_discrimination,discrim_jsons/d0_rotated_dr.json,http://54.197.185.130/DepthDuration/depth_discrimination_MTurk/DepthDiscrim_HTML.html#2,2,1349,768,1366,768,6-9-2021,9-6-38,129,,,,,,,2298,512,253,500,235,515,feet,2,1,depth_discrimination_stimuli/000635_2014-06-08_16-38-42_260595134347_rgbf000106-resize_1/000635_2014-06-08_16-38-42_260595134347_rgbf000106-resize-original.jpg,3395,1353107,1698388,49
361608,DepthScenes,duration_discrimination,discrim_jsons/d0_rotated_dr.json,http://54.197.185.130/DepthDuration/depth_discrimination_MTurk/DepthDiscrim_HTML.html#2,2,1349,768,1366,768,6-9-2021,9-6-38,130,,,,,,,2298,512,253,500,235,515,feet,2,1,depth_discrimination_stimuli/002460_2014-06-28_20-35-43_260595134347_rgbf000028-resize_4/002460_2014-06-28_20-35-43_260595134347_rgbf000028-resize-original.jpg,6787,1353107,1698388,49
361608,DepthScenes,duration_discrimination,discrim_jsons/d0_rotated_dr.json,http://54.197.185.130/DepthDuration/depth_discrimination_MTurk/DepthDiscrim_HTML.html#2,2,1349,768,1366,768,6-9-2021,9-6-38,131,,,,,,,2298,512,253,500,235,515,feet,1,1,depth_discrimination_stimuli/001056_2014-06-08_18-46-44_260595134347_rgbf000068-resize_0/001056_2014-06-08_18-46-44_260595134347_rgbf000068-resize-original.jpg,5252,1353107,1698388,49
361608,DepthScenes,duration_discrimination,discrim_jsons/d0_rotated_dr.json,http://54.197.185.130/DepthDuration/depth_discrimination_MTurk/DepthDiscrim_HTML.html#2,2,1349,768,1366,768,6-9-2021,9-6-38,132,,,,,,,2298,512,253,500,235,515,feet,2,1,depth_discrimination_stimuli/000866_2014-06-09_20-45-42_260595134347_rgbf000139-resize_1/000866_2014-06-09_20-45-42_260595134347_rgbf000139-resize-original.jpg,2880,1353107,1698388,49
361608,DepthScenes,duration_discrimination,discrim_jsons/d0_rotated_dr.json,http://54.197.185.130/DepthDuration/depth_discrimination_MTurk/DepthDiscrim_HTML.html#2,2,1349,768,1366,768,6-9-2021,9-6-38,133,,,,,,,2298,512,253,500,235,515,feet,1,1,depth_discrimination_stimuli/002953_2014-06-08_17-32-18_094959634447_rgbf000059-resize_5/002953_2014-06-08_17-32-18_094959634447_rgbf000059-resize-original.jpg,2901,1353107,1698388,49
361608,DepthScenes,duration_discrimination,discrim_jsons/d0_rotated_dr.json,http://54.197.185.130/DepthDuration/depth_discrimination_MTurk/DepthDiscrim_HTML.html#2,2,1349,768,1366,768,6-9-2021,9-6-38,134,,,,,,,2298,512,253,500,235,515,feet,2,2,depth_discrimination_stimuli/001164_2014-06-17_15-35-46_260595134347_rgbf000085-resize_3/001164_2014-06-17_15-35-46_260595134347_rgbf000085-resize-original.jpg,7895,1353107,1698388,49
361608,DepthScenes,duration_discrimination,discrim_jsons/d0_rotated_dr.json,http://54.197.185.130/DepthDuration/depth_discrimination_MTurk/DepthDiscrim_HTML.html#2,2,1349,768,1366,768,6-9-2021,9-6-38,135,,,,,,,2298,512,253,500,235,515,feet,2,2,depth_discrimination_stimuli/002131_2014-06-25_21-12-01_260595134347_rgbf000083-resize_0/002131_2014-06-25_21-12-01_260595134347_rgbf000083-resize-original.jpg,3660,1353107,1698388,49
361608,DepthScenes,duration_discrimination,discrim_jsons/d0_rotated_dr.json,http://54.197.185.130/DepthDuration/depth_discrimination_MTurk/DepthDiscrim_HTML.html#2,2,1349,768,1366,768,6-9-2021,9-6-38,136,,,,,,,2298,512,253,500,235,515,feet,3,2,depth_discrimination_stimuli/002445_2014-06-28_20-32-16_260595134347_rgbf000029-resize_4/002445_2014-06-28_20-32-16_260595134347_rgbf000029-resize-original.jpg,4727,1353107,1698388,49
361608,DepthScenes,duration_discrimination,discrim_jsons/d0_rotated_dr.json,http://54.197.185.130/DepthDuration/depth_discrimination_MTurk/DepthDiscrim_HTML.html#2,2,1349,768,1366,768,6-9-2021,9-6-38,137,,,,,,,2298,512,253,500,235,515,feet,2,1,depth_discrimination_stimuli/001052_2014-06-08_18-24-54_260595134347_rgbf000130-resize_1/001052_2014-06-08_18-24-54_260595134347_rgbf000130-resize-original.jpg,7850,1353107,1698388,49
361608,DepthScenes,duration_discrimination,discrim_jsons/d0_rotated_dr.json,http://54.197.185.130/DepthDuration/depth_discrimination_MTurk/DepthDiscrim_HTML.html#2,2,1349,768,1366,768,6-9-2021,9-6-38,138,,,,,,,2298,512,253,500,235,515,feet,2,2,depth_discrimination_stimuli/003129_2014-05-12_10-48-10_094959634447_rgbf000100-resize_0/003129_2014-05-12_10-48-10_094959634447_rgbf000100-resize-original.jpg,6105,1353107,1698388,49
361608,DepthScenes,duration_discrimination,discrim_jsons/d0_rotated_dr.json,http://54.197.185.130/DepthDuration/depth_discrimination_MTurk/DepthDiscrim_HTML.html#2,2,1349,768,1366,768,6-9-2021,9-6-38,139,,,,,,,2298,512,253,500,235,515,feet,2,2,depth_discrimination_stimuli/000788_2014-06-08_22-34-36_260595134347_rgbf000131-resize_1/000788_2014-06-08_22-34-36_260595134347_rgbf000131-resize-original.jpg,5288,1353107,1698388,49
361608,DepthScenes,duration_discrimination,discrim_jsons/d0_rotated_dr.json,http://54.197.185.130/DepthDuration/depth_discrimination_MTurk/DepthDiscrim_HTML.html#2,2,1349,768,1366,768,6-9-2021,9-6-38,140,,,,,,,2298,512,253,500,235,515,feet,2,2,depth_discrimination_stimuli/001150_2014-06-17_15-27-34_260595134347_rgbf000108-resize_2/001150_2014-06-17_15-27-34_260595134347_rgbf000108-resize-original.jpg,3240,1353107,1698388,49
361608,DepthScenes,duration_discrimination,discrim_jsons/d0_rotated_dr.json,http://54.197.185.130/DepthDuration/depth_discrimination_MTurk/DepthDiscrim_HTML.html#2,2,1349,768,1366,768,6-9-2021,9-6-38,141,,,,,,,2298,512,253,500,235,515,feet,1,1,scene_property_catch_stimuli/000675_2014-06-08_22-59-18_260595134347_rgbf000096-resize.jpg,4146,1353107,1698388,49
361608,DepthScenes,duration_discrimination,discrim_jsons/d0_rotated_dr.json,http://54.197.185.130/DepthDuration/depth_discrimination_MTurk/DepthDiscrim_HTML.html#2,2,1349,768,1366,768,6-9-2021,9-6-38,142,,,,,,,2298,512,253,500,235,515,feet,2,2,depth_discrimination_stimuli/003492_2014-05-21_15-50-55_094959634447_rgbf000828-resize_1/003492_2014-05-21_15-50-55_094959634447_rgbf000828-resize-original.jpg,6606,1353107,1698388,49
361608,DepthScenes,duration_discrimination,discrim_jsons/d0_rotated_dr.json,http://54.197.185.130/DepthDuration/depth_discrimination_MTurk/DepthDiscrim_HTML.html#2,2,1349,768,1366,768,6-9-2021,9-6-38,143,,,,,,,2298,512,253,500,235,515,feet,2,3,depth_discrimination_stimuli/000502_2014-06-08_23-02-32_260595134347_rgbf000063-resize_4/000502_2014-06-08_23-02-32_260595134347_rgbf000063-resize-original.jpg,3739,1353107,1698388,49
361608,DepthScenes,duration_discrimination,discrim_jsons/d0_rotated_dr.json,http://54.197.185.130/DepthDuration/depth_discrimination_MTurk/DepthDiscrim_HTML.html#2,2,1349,768,1366,768,6-9-2021,9-6-38,144,,,,,,,2298,512,253,500,235,515,feet,2,2,depth_discrimination_stimuli/000636_2014-06-08_16-39-02_260595134347_rgbf000108-resize_4/000636_2014-06-08_16-39-02_260595134347_rgbf000108-resize-original.jpg,3129,1353107,1698388,49
361608,DepthScenes,duration_discrimination,discrim_jsons/d0_rotated_dr.json,http://54.197.185.130/DepthDuration/depth_discrimination_MTurk/DepthDiscrim_HTML.html#2,2,1349,768,1366,768,6-9-2021,9-6-38,145,,,,,,,2298,512,253,500,235,515,feet,1,1,depth_discrimination_stimuli/002039_2014-06-24_20-22-38_260595134347_rgbf000084-resize_1/002039_2014-06-24_20-22-38_260595134347_rgbf000084-resize-original.jpg,3181,1353107,1698388,49
361608,DepthScenes,duration_discrimination,discrim_jsons/d0_rotated_dr.json,http://54.197.185.130/DepthDuration/depth_discrimination_MTurk/DepthDiscrim_HTML.html#2,2,1349,768,1366,768,6-9-2021,9-6-38,146,,,,,,,2298,512,253,500,235,515,feet,2,1,depth_discrimination_stimuli/001197_2014-06-17_16-01-50_260595134347_rgbf000103-resize_4/001197_2014-06-17_16-01-50_260595134347_rgbf000103-resize-original.jpg,6847,1353107,1698388,49
361608,DepthScenes,duration_discrimination,discrim_jsons/d0_rotated_dr.json,http://54.197.185.130/DepthDuration/depth_discrimination_MTurk/DepthDiscrim_HTML.html#2,2,1349,768,1366,768,6-9-2021,9-6-38,147,,,,,,,2298,512,253,500,235,515,feet,1,2,depth_discrimination_stimuli/002464_2014-06-28_20-36-57_260595134347_rgbf000029-resize_0/002464_2014-06-28_20-36-57_260595134347_rgbf000029-resize-original.jpg,5464,1353107,1698388,49
361608,DepthScenes,duration_discrimination,discrim_jsons/d0_rotated_dr.json,http://54.197.185.130/DepthDuration/depth_discrimination_MTurk/DepthDiscrim_HTML.html#2,2,1349,768,1366,768,6-9-2021,9-6-38,148,,,,,,,2298,512,253,500,235,515,feet,1,1,depth_discrimination_stimuli/001066_2014-06-08_22-03-20_260595134347_rgbf000066-resize_4/001066_2014-06-08_22-03-20_260595134347_rgbf000066-resize-original.jpg,3681,1353107,1698388,49
361608,DepthScenes,duration_discrimination,discrim_jsons/d0_rotated_dr.json,http://54.197.185.130/DepthDuration/depth_discrimination_MTurk/DepthDiscrim_HTML.html#2,2,1349,768,1366,768,6-9-2021,9-6-38,149,,,,,,,2298,512,253,500,235,515,feet,2,2,depth_discrimination_stimuli/000409_2014-06-04_19-23-33_260595134347_rgbf000067-resize_0/000409_2014-06-04_19-23-33_260595134347_rgbf000067-resize-original.jpg,4124,1353107,1698388,49
361608,DepthScenes,duration_discrimination,discrim_jsons/d0_rotated_dr.json,http://54.197.185.130/DepthDuration/depth_discrimination_MTurk/DepthDiscrim_HTML.html#2,2,1349,768,1366,768,6-9-2021,9-6-38,150,,,,,,,2298,512,253,500,235,515,feet,1,1,depth_discrimination_stimuli/002949_2014-06-26_15-57-42_094959634447_rgbf000079-resize_1/002949_2014-06-26_15-57-42_094959634447_rgbf000079-resize-original.jpg,3107,1353107,1698388,49
361608,DepthScenes,duration_discrimination,discrim_jsons/d0_rotated_dr.json,http://54.197.185.130/DepthDuration/depth_discrimination_MTurk/DepthDiscrim_HTML.html#2,2,1349,768,1366,768,6-9-2021,9-6-38,151,,,,,,,2298,512,253,500,235,515,feet,2,3,depth_discrimination_stimuli/003010_2014-06-15_12-54-35_094959634447_rgbf000112-resize_0/003010_2014-06-15_12-54-35_094959634447_rgbf000112-resize-original.jpg,9110,1353107,1698388,49
361608,DepthScenes,duration_discrimination,discrim_jsons/d0_rotated_dr.json,http://54.197.185.130/DepthDuration/depth_discrimination_MTurk/DepthDiscrim_HTML.html#2,2,1349,768,1366,768,6-9-2021,9-6-38,152,,,,,,,2298,512,253,500,235,515,feet,1,1,depth_discrimination_stimuli/003490_2014-05-21_15-50-11_094959634447_rgbf000101-resize_3/003490_2014-05-21_15-50-11_094959634447_rgbf000101-resize-original.jpg,3351,1353107,1698388,49
361608,DepthScenes,duration_discrimination,discrim_jsons/d0_rotated_dr.json,http://54.197.185.130/DepthDuration/depth_discrimination_MTurk/DepthDiscrim_HTML.html#2,2,1349,768,1366,768,6-9-2021,9-6-38,153,,,,,,,2298,512,253,500,235,515,feet,2,2,depth_discrimination_stimuli/001584_2014-06-20_11-07-43_260595134347_rgbf000002-resize_1/001584_2014-06-20_11-07-43_260595134347_rgbf000002-resize-original.jpg,5575,1353107,1698388,49
361608,DepthScenes,duration_discrimination,discrim_jsons/d0_rotated_dr.json,http://54.197.185.130/DepthDuration/depth_discrimination_MTurk/DepthDiscrim_HTML.html#2,2,1349,768,1366,768,6-9-2021,9-6-38,154,,,,,,,2298,512,253,500,235,515,feet,2,2,depth_discrimination_stimuli/002700_2014-06-22_11-27-02_094959634447_rgbf000124-resize_3/002700_2014-06-22_11-27-02_094959634447_rgbf000124-resize-original.jpg,3431,1353107,1698388,49
361608,DepthScenes,duration_discrimination,discrim_jsons/d0_rotated_dr.json,http://54.197.185.130/DepthDuration/depth_discrimination_MTurk/DepthDiscrim_HTML.html#2,2,1349,768,1366,768,6-9-2021,9-6-38,155,,,,,,,2298,512,253,500,235,515,feet,3,2,depth_discrimination_stimuli/002365_2014-06-28_20-11-21_260595134347_rgbf000102-resize_1/002365_2014-06-28_20-11-21_260595134347_rgbf000102-resize-original.jpg,4595,1353107,1698388,49
361608,DepthScenes,duration_discrimination,discrim_jsons/d0_rotated_dr.json,http://54.197.185.130/DepthDuration/depth_discrimination_MTurk/DepthDiscrim_HTML.html#2,2,1349,768,1366,768,6-9-2021,9-6-38,156,,,,,,,2298,512,253,500,235,515,feet,2,1,depth_discrimination_stimuli/001158_2014-06-17_15-32-16_260595134347_rgbf000138-resize_2/001158_2014-06-17_15-32-16_260595134347_rgbf000138-resize-original.jpg,4095,1353107,1698388,49
361608,DepthScenes,duration_discrimination,discrim_jsons/d0_rotated_dr.json,http://54.197.185.130/DepthDuration/depth_discrimination_MTurk/DepthDiscrim_HTML.html#2,2,1349,768,1366,768,6-9-2021,9-6-38,157,,,,,,,2298,512,253,500,235,515,feet,4,1,scene_property_catch_stimuli/sun_aatxlublfjchvvzu.jpg,13574,1353107,1698388,49
361608,DepthScenes,duration_discrimination,discrim_jsons/d0_rotated_dr.json,http://54.197.185.130/DepthDuration/depth_discrimination_MTurk/DepthDiscrim_HTML.html#2,2,1349,768,1366,768,6-9-2021,9-6-38,158,,,,,,,2298,512,253,500,235,515,feet,2,1,depth_discrimination_stimuli/000549_2014-06-08_22-10-24_260595134347_rgbf000247-resize_3/000549_2014-06-08_22-10-24_260595134347_rgbf000247-resize-original.jpg,4601,1353107,1698388,49
361608,DepthScenes,duration_discrimination,discrim_jsons/d0_rotated_dr.json,http://54.197.185.130/DepthDuration/depth_discrimination_MTurk/DepthDiscrim_HTML.html#2,2,1349,768,1366,768,6-9-2021,9-6-38,159,,,,,,,2298,512,253,500,235,515,feet,3,2,depth_discrimination_stimuli/000830_2014-06-04_19-49-31_260595134347_rgbf000096-resize_2/000830_2014-06-04_19-49-31_260595134347_rgbf000096-resize-original.jpg,4175,1353107,1698388,49
361608,DepthScenes,duration_discrimination,discrim_jsons/d0_rotated_dr.json,http://54.197.185.130/DepthDuration/depth_discrimination_MTurk/DepthDiscrim_HTML.html#2,2,1349,768,1366,768,6-9-2021,9-6-38,160,,,,,,,2298,512,253,500,235,515,feet,1,2,depth_discrimination_stimuli/001167_2014-06-17_15-38-07_260595134347_rgbf000108-resize_0/001167_2014-06-17_15-38-07_260595134347_rgbf000108-resize-original.jpg,5669,1353107,1698388,49
361608,DepthScenes,duration_discrimination,discrim_jsons/d0_rotated_dr.json,http://54.197.185.130/DepthDuration/depth_discrimination_MTurk/DepthDiscrim_HTML.html#2,2,1349,768,1366,768,6-9-2021,9-6-38,161,,,,,,,2298,512,253,500,235,515,feet,2,1,depth_discrimination_stimuli/001199_2014-06-17_16-03-48_260595134347_rgbf000077-resize_0/001199_2014-06-17_16-03-48_260595134347_rgbf000077-resize-original.jpg,4838,1353107,1698388,49
361608,DepthScenes,duration_discrimination,discrim_jsons/d0_rotated_dr.json,http://54.197.185.130/DepthDuration/depth_discrimination_MTurk/DepthDiscrim_HTML.html#2,2,1349,768,1366,768,6-9-2021,9-6-38,162,,,,,,,2298,512,253,500,235,515,feet,2,2,depth_discrimination_stimuli/000542_2014-06-08_18-27-08_260595134347_rgbf000118-resize_1/000542_2014-06-08_18-27-08_260595134347_rgbf000118-resize-original.jpg,8211,1353107,1698388,49
361608,DepthScenes,duration_discrimination,discrim_jsons/d0_rotated_dr.json,http://54.197.185.130/DepthDuration/depth_discrimination_MTurk/DepthDiscrim_HTML.html#2,2,1349,768,1366,768,6-9-2021,9-6-38,163,,,,,,,2298,512,253,500,235,515,feet,3,1,depth_discrimination_stimuli/000414_2014-06-04_19-49-13_260595134347_rgbf000044-resize_0/000414_2014-06-04_19-49-13_260595134347_rgbf000044-resize-original.jpg,5750,1353107,1698388,49
361608,DepthScenes,duration_discrimination,discrim_jsons/d0_rotated_dr.json,http://54.197.185.130/DepthDuration/depth_discrimination_MTurk/DepthDiscrim_HTML.html#2,2,1349,768,1366,768,6-9-2021,9-6-38,164,,,,,,,2298,512,253,500,235,515,feet,2,2,depth_discrimination_stimuli/000486_2014-06-09_20-47-20_260595134347_rgbf000143-resize_2/000486_2014-06-09_20-47-20_260595134347_rgbf000143-resize-original.jpg,4654,1353107,1698388,49
361608,DepthScenes,duration_discrimination,discrim_jsons/d0_rotated_dr.json,http://54.197.185.130/DepthDuration/depth_discrimination_MTurk/DepthDiscrim_HTML.html#2,2,1349,768,1366,768,6-9-2021,9-6-38,165,,,,,,,2298,512,253,500,235,515,feet,2,1,depth_discrimination_stimuli/000368_2014-06-09_15-53-01_260595134347_rgbf000155-resize_2/000368_2014-06-09_15-53-01_260595134347_rgbf000155-resize-original.jpg,3593,1353107,1698388,49
361608,DepthScenes,duration_discrimination,discrim_jsons/d0_rotated_dr.json,http://54.197.185.130/DepthDuration/depth_discrimination_MTurk/DepthDiscrim_HTML.html#2,2,1349,768,1366,768,6-9-2021,9-6-38,166,,,,,,,2298,512,253,500,235,515,feet,2,2,depth_discrimination_stimuli/001724_2014-06-26_19-28-50_260595134347_rgbf000037-resize_7/001724_2014-06-26_19-28-50_260595134347_rgbf000037-resize-original.jpg,4719,1353107,1698388,49
361608,DepthScenes,duration_discrimination,discrim_jsons/d0_rotated_dr.json,http://54.197.185.130/DepthDuration/depth_discrimination_MTurk/DepthDiscrim_HTML.html#2,2,1349,768,1366,768,6-9-2021,9-6-38,167,,,,,,,2298,512,253,500,235,515,feet,3,2,depth_discrimination_stimuli/000556_2014-06-09_22-42-56_260595134347_rgbf000214-resize_1/000556_2014-06-09_22-42-56_260595134347_rgbf000214-resize-original.jpg,7076,1353107,1698388,49
361608,DepthScenes,duration_discrimination,discrim_jsons/d0_rotated_dr.json,http://54.197.185.130/DepthDuration/depth_discrimination_MTurk/DepthDiscrim_HTML.html#2,2,1349,768,1366,768,6-9-2021,9-6-38,168,,,,,,,2298,512,253,500,235,515,feet,2,1,depth_discrimination_stimuli/002323_2014-06-28_20-01-54_260595134347_rgbf000051-resize_4/002323_2014-06-28_20-01-54_260595134347_rgbf000051-resize-original.jpg,6716,1353107,1698388,49
361608,DepthScenes,duration_discrimination,discrim_jsons/d0_rotated_dr.json,http://54.197.185.130/DepthDuration/depth_discrimination_MTurk/DepthDiscrim_HTML.html#2,2,1349,768,1366,768,6-9-2021,9-6-38,169,,,,,,,2298,512,253,500,235,515,feet,2,1,depth_discrimination_stimuli/001806_2014-06-26_20-50-20_260595134347_rgbf000091-resize_1/001806_2014-06-26_20-50-20_260595134347_rgbf000091-resize-original.jpg,3718,1353107,1698388,49
361608,DepthScenes,duration_discrimination,discrim_jsons/d0_rotated_dr.json,http://54.197.185.130/DepthDuration/depth_discrimination_MTurk/DepthDiscrim_HTML.html#2,2,1349,768,1366,768,6-9-2021,9-6-38,170,,,,,,,2298,512,253,500,235,515,feet,1,2,depth_discrimination_stimuli/000692_2014-06-08_13-09-42_260595134347_rgbf000199-resize_2/000692_2014-06-08_13-09-42_260595134347_rgbf000199-resize-original.jpg,4895,1353107,1698388,49
361608,DepthScenes,duration_discrimination,discrim_jsons/d0_rotated_dr.json,http://54.197.185.130/DepthDuration/depth_discrimination_MTurk/DepthDiscrim_HTML.html#2,2,1349,768,1366,768,6-9-2021,9-6-38,171,,,,,,,2298,512,253,500,235,515,feet,4,5,depth_discrimination_stimuli/003083_2014-06-15_15-21-03_094959634447_rgbf000063-resize_1/003083_2014-06-15_15-21-03_094959634447_rgbf000063-resize-original.jpg,4062,1353107,1698388,49
361608,DepthScenes,duration_discrimination,discrim_jsons/d0_rotated_dr.json,http://54.197.185.130/DepthDuration/depth_discrimination_MTurk/DepthDiscrim_HTML.html#2,2,1349,768,1366,768,6-9-2021,9-6-38,172,,,,,,,2298,512,253,500,235,515,feet,2,1,depth_discrimination_stimuli/002657_2014-06-13_15-29-54_094959634447_rgbf000150-resize_1/002657_2014-06-13_15-29-54_094959634447_rgbf000150-resize-original.jpg,5980,1353107,1698388,49
361608,DepthScenes,duration_discrimination,discrim_jsons/d0_rotated_dr.json,http://54.197.185.130/DepthDuration/depth_discrimination_MTurk/DepthDiscrim_HTML.html#2,2,1349,768,1366,768,6-9-2021,9-6-38,173,,,,,,,2298,512,253,500,235,515,feet,2,2,depth_discrimination_stimuli/000506_2014-06-08_23-21-00_260595134347_rgbf000070-resize_7/000506_2014-06-08_23-21-00_260595134347_rgbf000070-resize-original.jpg,5094,1353107,1698388,49
361608,DepthScenes,duration_discrimination,discrim_jsons/d0_rotated_dr.json,http://54.197.185.130/DepthDuration/depth_discrimination_MTurk/DepthDiscrim_HTML.html#2,2,1349,768,1366,768,6-9-2021,9-6-38,174,,,,,,,2298,512,253,500,235,515,feet,3,4,depth_discrimination_stimuli/002805_2014-06-22_19-54-03_094959634447_rgbf000079-resize_1/002805_2014-06-22_19-54-03_094959634447_rgbf000079-resize-original.jpg,3769,1353107,1698388,49
361608,DepthScenes,duration_discrimination,discrim_jsons/d0_rotated_dr.json,http://54.197.185.130/DepthDuration/depth_discrimination_MTurk/DepthDiscrim_HTML.html#2,2,1349,768,1366,768,6-9-2021,9-6-38,175,,,,,,,2298,512,253,500,235,515,feet,2,1,depth_discrimination_stimuli/000436_2014-06-09_22-25-11_260595134347_rgbf000137-resize_1/000436_2014-06-09_22-25-11_260595134347_rgbf000137-resize-original.jpg,6215,1353107,1698388,49
361608,DepthScenes,duration_discrimination,discrim_jsons/d0_rotated_dr.json,http://54.197.185.130/DepthDuration/depth_discrimination_MTurk/DepthDiscrim_HTML.html#2,2,1349,768,1366,768,6-9-2021,9-6-38,176,,,,,,,2298,512,253,500,235,515,feet,3,3,depth_discrimination_stimuli/001815_2014-06-26_20-52-55_260595134347_rgbf000020-resize_0/001815_2014-06-26_20-52-55_260595134347_rgbf000020-resize-original.jpg,5750,1353107,1698388,49
361608,DepthScenes,duration_discrimination,discrim_jsons/d0_rotated_dr.json,http://54.197.185.130/DepthDuration/depth_discrimination_MTurk/DepthDiscrim_HTML.html#2,2,1349,768,1366,768,6-9-2021,9-6-38,177,,,,,,,2298,512,253,500,235,515,feet,1,1,depth_discrimination_stimuli/002549_2014-06-24_13-41-39_094959634447_rgbf000022-resize_3/002549_2014-06-24_13-41-39_094959634447_rgbf000022-resize-original.jpg,3003,1353107,1698388,49
361608,DepthScenes,duration_discrimination,discrim_jsons/d0_rotated_dr.json,http://54.197.185.130/DepthDuration/depth_discrimination_MTurk/DepthDiscrim_HTML.html#2,2,1349,768,1366,768,6-9-2021,9-6-38,178,,,,,,,2298,512,253,500,235,515,feet,2,2,depth_discrimination_stimuli/000470_2014-06-09_19-42-40_260595134347_rgbf000094-resize_1/000470_2014-06-09_19-42-40_260595134347_rgbf000094-resize-original.jpg,3865,1353107,1698388,49
361608,DepthScenes,duration_discrimination,discrim_jsons/d0_rotated_dr.json,http://54.197.185.130/DepthDuration/depth_discrimination_MTurk/DepthDiscrim_HTML.html#2,2,1349,768,1366,768,6-9-2021,9-6-38,179,,,,,,,2298,512,253,500,235,515,feet,1,2,depth_discrimination_stimuli/000505_2014-06-08_23-03-23_260595134347_rgbf000091-resize_0/000505_2014-06-08_23-03-23_260595134347_rgbf000091-resize-original.jpg,5928,1353107,1698388,49
361608,DepthScenes,duration_discrimination,discrim_jsons/d0_rotated_dr.json,http://54.197.185.130/DepthDuration/depth_discrimination_MTurk/DepthDiscrim_HTML.html#2,2,1349,768,1366,768,6-9-2021,9-6-38,180,,,,,,,2298,512,253,500,235,515,feet,2,1,depth_discrimination_stimuli/002989_2014-06-15_12-25-03_094959634447_rgbf000150-resize_3/002989_2014-06-15_12-25-03_094959634447_rgbf000150-resize-original.jpg,5125,1353107,1698388,49
361608,DepthScenes,duration_discrimination,discrim_jsons/d0_rotated_dr.json,http://54.197.185.130/DepthDuration/depth_discrimination_MTurk/DepthDiscrim_HTML.html#2,2,1349,768,1366,768,6-9-2021,9-6-38,181,,,,,,,2298,512,253,500,235,515,feet,1,2,depth_discrimination_stimuli/001029_2014-06-08_13-17-57_260595134347_rgbf000065-resize_1/001029_2014-06-08_13-17-57_260595134347_rgbf000065-resize-original.jpg,6622,1353107,1698388,49
361608,DepthScenes,duration_discrimination,discrim_jsons/d0_rotated_dr.json,http://54.197.185.130/DepthDuration/depth_discrimination_MTurk/DepthDiscrim_HTML.html#2,2,1349,768,1366,768,6-9-2021,9-6-38,182,,,,,,,2298,512,253,500,235,515,feet,1,1,depth_discrimination_stimuli/002995_2014-06-15_12-31-26_094959634447_rgbf000150-resize_1/002995_2014-06-15_12-31-26_094959634447_rgbf000150-resize-original.jpg,3729,1353107,1698388,49
361608,DepthScenes,duration_discrimination,discrim_jsons/d0_rotated_dr.json,http://54.197.185.130/DepthDuration/depth_discrimination_MTurk/DepthDiscrim_HTML.html#2,2,1349,768,1366,768,6-9-2021,9-6-38,183,,,,,,,2298,512,253,500,235,515,feet,2,2,depth_discrimination_stimuli/000878_2014-06-08_22-52-45_260595134347_rgbf000045-resize_2/000878_2014-06-08_22-52-45_260595134347_rgbf000045-resize-original.jpg,2848,1353107,1698388,49
361608,DepthScenes,duration_discrimination,discrim_jsons/d0_rotated_dr.json,http://54.197.185.130/DepthDuration/depth_discrimination_MTurk/DepthDiscrim_HTML.html#2,2,1349,768,1366,768,6-9-2021,9-6-38,184,,,,,,,2298,512,253,500,235,515,feet,2,3,depth_discrimination_stimuli/001136_2014-06-17_15-19-41_260595134347_rgbf000076-resize_3/001136_2014-06-17_15-19-41_260595134347_rgbf000076-resize-original.jpg,4713,1353107,1698388,49
361608,DepthScenes,duration_discrimination,discrim_jsons/d0_rotated_dr.json,http://54.197.185.130/DepthDuration/depth_discrimination_MTurk/DepthDiscrim_HTML.html#2,2,1349,768,1366,768,6-9-2021,9-6-38,185,,,,,,,2298,512,253,500,235,515,feet,1,1,depth_discrimination_stimuli/002579_2014-06-24_14-08-03_094959634447_rgbf000061-resize_2/002579_2014-06-24_14-08-03_094959634447_rgbf000061-resize-original.jpg,4580,1353107,1698388,49
361608,DepthScenes,duration_discrimination,discrim_jsons/d0_rotated_dr.json,http://54.197.185.130/DepthDuration/depth_discrimination_MTurk/DepthDiscrim_HTML.html#2,2,1349,768,1366,768,6-9-2021,9-6-38,186,,,,,,,2298,512,253,500,235,515,feet,2,1,depth_discrimination_stimuli/000137_2014-05-20_17-04-49_260595134347_rgbf000120-resize_1/000137_2014-05-20_17-04-49_260595134347_rgbf000120-resize-original.jpg,6029,1353107,1698388,49
361608,DepthScenes,duration_discrimination,discrim_jsons/d0_rotated_dr.json,http://54.197.185.130/DepthDuration/depth_discrimination_MTurk/DepthDiscrim_HTML.html#2,2,1349,768,1366,768,6-9-2021,9-6-38,187,,,,,,,2298,512,253,500,235,515,feet,1,2,depth_discrimination_stimuli/000869_2014-06-09_20-50-18_260595134347_rgbf000060-resize_3/000869_2014-06-09_20-50-18_260595134347_rgbf000060-resize-original.jpg,4755,1353107,1698388,49
361608,DepthScenes,duration_discrimination,discrim_jsons/d0_rotated_dr.json,http://54.197.185.130/DepthDuration/depth_discrimination_MTurk/DepthDiscrim_HTML.html#2,2,1349,768,1366,768,6-9-2021,9-6-38,188,,,,,,,2298,512,253,500,235,515,feet,2,3,depth_discrimination_stimuli/000739_2014-06-08_18-45-58_260595134347_rgbf000068-resize_1/000739_2014-06-08_18-45-58_260595134347_rgbf000068-resize-original.jpg,6044,1353107,1698388,49
361608,DepthScenes,duration_discrimination,discrim_jsons/d0_rotated_dr.json,http://54.197.185.130/DepthDuration/depth_discrimination_MTurk/DepthDiscrim_HTML.html#2,2,1349,768,1366,768,6-9-2021,9-6-38,189,,,,,,,2298,512,253,500,235,515,feet,1,2,depth_discrimination_stimuli/002750_2014-06-22_19-08-03_094959634447_rgbf000094-resize_4/002750_2014-06-22_19-08-03_094959634447_rgbf000094-resize-original.jpg,10880,1353107,1698388,49
361608,DepthScenes,duration_discrimination,discrim_jsons/d0_rotated_dr.json,http://54.197.185.130/DepthDuration/depth_discrimination_MTurk/DepthDiscrim_HTML.html#2,2,1349,768,1366,768,6-9-2021,9-6-38,190,,,,,,,2298,512,253,500,235,515,feet,2,3,depth_discrimination_stimuli/000753_2014-06-08_21-57-44_260595134347_rgbf000123-resize_3/000753_2014-06-08_21-57-44_260595134347_rgbf000123-resize-original.jpg,4579,1353107,1698388,49
361608,DepthScenes,duration_discrimination,discrim_jsons/d0_rotated_dr.json,http://54.197.185.130/DepthDuration/depth_discrimination_MTurk/DepthDiscrim_HTML.html#2,2,1349,768,1366,768,6-9-2021,9-6-38,191,,,,,,,2298,512,253,500,235,515,feet,1,1,depth_discrimination_stimuli/002988_2014-06-15_12-24-20_094959634447_rgbf000150-resize_1/002988_2014-06-15_12-24-20_094959634447_rgbf000150-resize-original.jpg,2392,1353107,1698388,49
361608,DepthScenes,duration_discrimination,discrim_jsons/d0_rotated_dr.json,http://54.197.185.130/DepthDuration/depth_discrimination_MTurk/DepthDiscrim_HTML.html#2,2,1349,768,1366,768,6-9-2021,9-6-38,192,,,,,,,2298,512,253,500,235,515,feet,2,1,depth_discrimination_stimuli/000665_2014-06-09_20-42-35_260595134347_rgbf000110-resize_1/000665_2014-06-09_20-42-35_260595134347_rgbf000110-resize-original.jpg,5131,1353107,1698388,49
361608,DepthScenes,duration_discrimination,discrim_jsons/d0_rotated_dr.json,http://54.197.185.130/DepthDuration/depth_discrimination_MTurk/DepthDiscrim_HTML.html#2,2,1349,768,1366,768,6-9-2021,9-6-38,193,,,,,,,2298,512,253,500,235,515,feet,2,2,depth_discrimination_stimuli/002213_2014-06-28_18-37-58_260595134347_rgbf000055-resize_1/002213_2014-06-28_18-37-58_260595134347_rgbf000055-resize-original.jpg,6522,1353107,1698388,49
361608,DepthScenes,duration_discrimination,discrim_jsons/d0_rotated_dr.json,http://54.197.185.130/DepthDuration/depth_discrimination_MTurk/DepthDiscrim_HTML.html#2,2,1349,768,1366,768,6-9-2021,9-6-38,194,,,,,,,2298,512,253,500,235,515,feet,2,3,depth_discrimination_stimuli/001555_2014-06-20_17-12-10_260595134347_rgbf000065-resize_4/001555_2014-06-20_17-12-10_260595134347_rgbf000065-resize-original.jpg,6663,1353107,1698388,49
361608,DepthScenes,duration_discrimination,discrim_jsons/d0_rotated_dr.json,http://54.197.185.130/DepthDuration/depth_discrimination_MTurk/DepthDiscrim_HTML.html#2,2,1349,768,1366,768,6-9-2021,9-6-38,195,,,,,,,2298,512,253,500,235,515,feet,1,1,depth_discrimination_stimuli/002509_2014-06-24_13-19-22_094959634447_rgbf000077-resize_0/002509_2014-06-24_13-19-22_094959634447_rgbf000077-resize-original.jpg,2621,1353107,1698388,49
