subjID,experimentName,versionName,sequenceName,url,selected_row,windowWidth,windowHeight,screenWidth,screenHeight,startDate,startTime,trial,stimulus_0,stimulus_1,duration,actual_depth_0,actual_depth_1,discrim_choice,trial_RT,log_fixation,log_sceneDuration1,log_mask1,log_sceneDuration2,log_mask2,unitSelection,meanDepth_rating,navigability_rating,rated_stimulus,rating_RT,experimentTime,totalTime,age
332991,DepthScenes,duration_discrimination,discrim_jsons/d0.json,http://54.197.185.130/DepthDuration/depth_discrimination_MTurk/DepthDiscrim_HTML.html#4,4,1536,721,1536,864,6-9-2021,20-3-32,1,depth_discrimination_stimuli/002444_2014-06-28_20-32-08_260595134347_rgbf000027-resize_0/002444_2014-06-28_20-32-08_260595134347_rgbf000027-resize_0-target.png,depth_discrimination_stimuli/003048_2014-06-15_13-49-43_094959634447_rgbf000150-resize_1/003048_2014-06-15_13-49-43_094959634447_rgbf000150-resize_1-target.png,1000,4.389,4.0035,0,2252,501,999,507,993,509,feet,,,,,1437607,1566198,27
332991,DepthScenes,duration_discrimination,discrim_jsons/d0.json,http://54.197.185.130/DepthDuration/depth_discrimination_MTurk/DepthDiscrim_HTML.html#4,4,1536,721,1536,864,6-9-2021,20-3-32,2,depth_discrimination_stimuli/000469_2014-06-09_19-42-10_260595134347_rgbf000081-resize_1/000469_2014-06-09_19-42-10_260595134347_rgbf000081-resize_1-target.png,depth_discrimination_stimuli/002136_2014-06-25_21-18-03_260595134347_rgbf000109-resize_3/002136_2014-06-25_21-18-03_260595134347_rgbf000109-resize_3-target.png,250,1.652,1.957,0,1291,502,251,500,252,505,feet,,,,,1437607,1566198,27
332991,DepthScenes,duration_discrimination,discrim_jsons/d0.json,http://54.197.185.130/DepthDuration/depth_discrimination_MTurk/DepthDiscrim_HTML.html#4,4,1536,721,1536,864,6-9-2021,20-3-32,3,depth_discrimination_stimuli/000692_2014-06-08_13-09-42_260595134347_rgbf000199-resize_2/000692_2014-06-08_13-09-42_260595134347_rgbf000199-resize_2-target.png,depth_discrimination_stimuli/002103_2014-06-25_20-00-40_260595134347_rgbf000049-resize_0/002103_2014-06-25_20-00-40_260595134347_rgbf000049-resize_0-target.png,250,3.661,4.105,1,966,507,248,497,256,502,feet,,,,,1437607,1566198,27
332991,DepthScenes,duration_discrimination,discrim_jsons/d0.json,http://54.197.185.130/DepthDuration/depth_discrimination_MTurk/DepthDiscrim_HTML.html#4,4,1536,721,1536,864,6-9-2021,20-3-32,4,depth_discrimination_stimuli/001450_2014-06-19_17-02-03_260595134347_rgbf000203-resize_4/001450_2014-06-19_17-02-03_260595134347_rgbf000203-resize_4-target.png,depth_discrimination_stimuli/002039_2014-06-24_20-22-38_260595134347_rgbf000084-resize_1/002039_2014-06-24_20-22-38_260595134347_rgbf000084-resize_1-target.png,250,4.0106666666667,4.408,0,885,508,250,521,229,498,feet,,,,,1437607,1566198,27
332991,DepthScenes,duration_discrimination,discrim_jsons/d0.json,http://54.197.185.130/DepthDuration/depth_discrimination_MTurk/DepthDiscrim_HTML.html#4,4,1536,721,1536,864,6-9-2021,20-3-32,5,depth_discrimination_stimuli/000691_2014-06-08_13-08-50_260595134347_rgbf000132-resize_3/000691_2014-06-08_13-08-50_260595134347_rgbf000132-resize_3-target.png,depth_discrimination_stimuli/000137_2014-05-20_17-04-49_260595134347_rgbf000120-resize_1/000137_2014-05-20_17-04-49_260595134347_rgbf000120-resize_1-target.png,250,4.153,3.786,1,988,508,253,500,251,501,feet,,,,,1437607,1566198,27
332991,DepthScenes,duration_discrimination,discrim_jsons/d0.json,http://54.197.185.130/DepthDuration/depth_discrimination_MTurk/DepthDiscrim_HTML.html#4,4,1536,721,1536,864,6-9-2021,20-3-32,6,depth_discrimination_stimuli/002445_2014-06-28_20-32-16_260595134347_rgbf000029-resize_4/002445_2014-06-28_20-32-16_260595134347_rgbf000029-resize_4-target.png,depth_discrimination_stimuli/002043_2014-06-24_20-29-38_260595134347_rgbf000039-resize_4/002043_2014-06-24_20-29-38_260595134347_rgbf000039-resize_4-target.png,250,2.5315,2.8435,0,1023,507,253,501,250,501,feet,,,,,1437607,1566198,27
332991,DepthScenes,duration_discrimination,discrim_jsons/d0.json,http://54.197.185.130/DepthDuration/depth_discrimination_MTurk/DepthDiscrim_HTML.html#4,4,1536,721,1536,864,6-9-2021,20-3-32,7,depth_discrimination_stimuli/001808_2014-06-26_20-50-58_260595134347_rgbf000029-resize_1/001808_2014-06-26_20-50-58_260595134347_rgbf000029-resize_1-target.png,depth_discrimination_stimuli/003621_2014-05-23_18-06-08_094959634447_rgbf000101-resize_1/003621_2014-05-23_18-06-08_094959634447_rgbf000101-resize_1-target.png,250,4.249,3.9835,1,1030,501,256,503,249,507,feet,,,,,1437607,1566198,27
332991,DepthScenes,duration_discrimination,discrim_jsons/d0.json,http://54.197.185.130/DepthDuration/depth_discrimination_MTurk/DepthDiscrim_HTML.html#4,4,1536,721,1536,864,6-9-2021,20-3-32,8,depth_discrimination_stimuli/002639_2014-06-24_14-51-37_094959634447_rgbf000074-resize_4/002639_2014-06-24_14-51-37_094959634447_rgbf000074-resize_4-target.png,depth_discrimination_stimuli/001132_2014-06-17_14-48-54_260595134347_rgbf000100-resize_2/001132_2014-06-17_14-48-54_260595134347_rgbf000100-resize_2-target.png,1000,4.0375,3.753,0,1915,514,990,498,1005,493,feet,,,,,1437607,1566198,27
332991,DepthScenes,duration_discrimination,discrim_jsons/d0.json,http://54.197.185.130/DepthDuration/depth_discrimination_MTurk/DepthDiscrim_HTML.html#4,4,1536,721,1536,864,6-9-2021,20-3-32,9,depth_discrimination_stimuli/003587_2014-05-23_16-48-02_094959634447_rgbf002384-resize_2/003587_2014-05-23_16-48-02_094959634447_rgbf002384-resize_2-target.png,depth_discrimination_stimuli/000709_2014-06-08_13-51-55_260595134347_rgbf000068-resize_3/000709_2014-06-08_13-51-55_260595134347_rgbf000068-resize_3-target.png,250,1.357,1.803,0,1260,503,248,501,249,511,feet,,,,,1437607,1566198,27
332991,DepthScenes,duration_discrimination,discrim_jsons/d0.json,http://54.197.185.130/DepthDuration/depth_discrimination_MTurk/DepthDiscrim_HTML.html#4,4,1536,721,1536,864,6-9-2021,20-3-32,10,depth_discrimination_stimuli/000635_2014-06-08_16-38-42_260595134347_rgbf000106-resize_1/000635_2014-06-08_16-38-42_260595134347_rgbf000106-resize_1-target.png,depth_discrimination_stimuli/001516_2014-06-20_16-25-09_260595134347_rgbf000076-resize_2/001516_2014-06-20_16-25-09_260595134347_rgbf000076-resize_2-target.png,1000,2.074,1.7445,1,1699,514,995,505,1002,493,feet,,,,,1437607,1566198,27
332991,DepthScenes,duration_discrimination,discrim_jsons/d0.json,http://54.197.185.130/DepthDuration/depth_discrimination_MTurk/DepthDiscrim_HTML.html#4,4,1536,721,1536,864,6-9-2021,20-3-32,11,depth_discrimination_stimuli/002579_2014-06-24_14-08-03_094959634447_rgbf000061-resize_2/002579_2014-06-24_14-08-03_094959634447_rgbf000061-resize_2-target.png,depth_discrimination_stimuli/002468_2014-06-28_20-38-39_260595134347_rgbf000045-resize_1/002468_2014-06-28_20-38-39_260595134347_rgbf000045-resize_1-target.png,250,2.223125,1.956,1,1574,511,248,498,251,495,feet,,,,,1437607,1566198,27
332991,DepthScenes,duration_discrimination,discrim_jsons/d0.json,http://54.197.185.130/DepthDuration/depth_discrimination_MTurk/DepthDiscrim_HTML.html#4,4,1536,721,1536,864,6-9-2021,20-3-32,12,depth_discrimination_stimuli/002784_2014-06-22_19-26-30_094959634447_rgbf000083-resize_3/002784_2014-06-22_19-26-30_094959634447_rgbf000083-resize_3-target.png,depth_discrimination_stimuli/001532_2014-06-20_16-50-41_260595134347_rgbf000081-resize_4/001532_2014-06-20_16-50-41_260595134347_rgbf000081-resize_4-target.png,1000,1.8046666666667,1.5758333333333,1,1608,523,979,504,998,506,feet,,,,,1437607,1566198,27
332991,DepthScenes,duration_discrimination,discrim_jsons/d0.json,http://54.197.185.130/DepthDuration/depth_discrimination_MTurk/DepthDiscrim_HTML.html#4,4,1536,721,1536,864,6-9-2021,20-3-32,13,depth_discrimination_stimuli/002279_2014-06-28_18-55-32_260595134347_rgbf000040-resize_5/002279_2014-06-28_18-55-32_260595134347_rgbf000040-resize_5-target.png,depth_discrimination_stimuli/002949_2014-06-26_15-57-42_094959634447_rgbf000079-resize_1/002949_2014-06-26_15-57-42_094959634447_rgbf000079-resize_1-target.png,1000,1.5043333333333,1.8915,0,1518,512,992,508,994,507,feet,,,,,1437607,1566198,27
332991,DepthScenes,duration_discrimination,discrim_jsons/d0.json,http://54.197.185.130/DepthDuration/depth_discrimination_MTurk/DepthDiscrim_HTML.html#4,4,1536,721,1536,864,6-9-2021,20-3-32,14,depth_discrimination_stimuli/001449_2014-06-19_17-01-27_260595134347_rgbf000116-resize_2/001449_2014-06-19_17-01-27_260595134347_rgbf000116-resize_2-target.png,depth_discrimination_stimuli/002630_2014-06-24_14-47-50_094959634447_rgbf000055-resize_1/002630_2014-06-24_14-47-50_094959634447_rgbf000055-resize_1-target.png,250,3.452,3.0095,1,939,514,252,499,236,507,feet,,,,,1437607,1566198,27
332991,DepthScenes,duration_discrimination,discrim_jsons/d0.json,http://54.197.185.130/DepthDuration/depth_discrimination_MTurk/DepthDiscrim_HTML.html#4,4,1536,721,1536,864,6-9-2021,20-3-32,15,depth_discrimination_stimuli/002460_2014-06-28_20-35-43_260595134347_rgbf000028-resize_4/002460_2014-06-28_20-35-43_260595134347_rgbf000028-resize_4-target.png,depth_discrimination_stimuli/001806_2014-06-26_20-50-20_260595134347_rgbf000091-resize_1/001806_2014-06-26_20-50-20_260595134347_rgbf000091-resize_1-target.png,1000,2.269,2.7305,0,1768,508,1001,504,999,500,feet,,,,,1437607,1566198,27
332991,DepthScenes,duration_discrimination,discrim_jsons/d0.json,http://54.197.185.130/DepthDuration/depth_discrimination_MTurk/DepthDiscrim_HTML.html#4,4,1536,721,1536,864,6-9-2021,20-3-32,16,depth_discrimination_stimuli/000409_2014-06-04_19-23-33_260595134347_rgbf000067-resize_0/000409_2014-06-04_19-23-33_260595134347_rgbf000067-resize_0-target.png,depth_discrimination_stimuli/002464_2014-06-28_20-36-57_260595134347_rgbf000029-resize_0/002464_2014-06-28_20-36-57_260595134347_rgbf000029-resize_0-target.png,1000,3.7335,3.9525,1,1720,516,999,500,1011,489,feet,,,,,1437607,1566198,27
332991,DepthScenes,duration_discrimination,discrim_jsons/d0.json,http://54.197.185.130/DepthDuration/depth_discrimination_MTurk/DepthDiscrim_HTML.html#4,4,1536,721,1536,864,6-9-2021,20-3-32,17,depth_discrimination_stimuli/001555_2014-06-20_17-12-10_260595134347_rgbf000065-resize_4/001555_2014-06-20_17-12-10_260595134347_rgbf000065-resize_4-target.png,depth_discrimination_stimuli/000943_2014-06-09_19-31-07_260595134347_rgbf000128-resize_1/000943_2014-06-09_19-31-07_260595134347_rgbf000128-resize_1-target.png,1000,1.633,1.9765,0,1638,508,1008,497,999,496,feet,,,,,1437607,1566198,27
332991,DepthScenes,duration_discrimination,discrim_jsons/d0.json,http://54.197.185.130/DepthDuration/depth_discrimination_MTurk/DepthDiscrim_HTML.html#4,4,1536,721,1536,864,6-9-2021,20-3-32,18,depth_discrimination_stimuli/002509_2014-06-24_13-19-22_094959634447_rgbf000077-resize_0/002509_2014-06-24_13-19-22_094959634447_rgbf000077-resize_0-target.png,depth_discrimination_stimuli/002344_2014-06-28_20-06-29_260595134347_rgbf000030-resize_1/002344_2014-06-28_20-06-29_260595134347_rgbf000030-resize_1-target.png,250,1.3065,1.5795,1,1083,514,251,499,244,504,feet,,,,,1437607,1566198,27
332991,DepthScenes,duration_discrimination,discrim_jsons/d0.json,http://54.197.185.130/DepthDuration/depth_discrimination_MTurk/DepthDiscrim_HTML.html#4,4,1536,721,1536,864,6-9-2021,20-3-32,19,depth_discrimination_stimuli/002467_2014-06-28_20-38-07_260595134347_rgbf000026-resize_2/002467_2014-06-28_20-38-07_260595134347_rgbf000026-resize_2-target.png,depth_discrimination_stimuli/001175_2014-06-17_15-45-55_260595134347_rgbf000129-resize_4/001175_2014-06-17_15-45-55_260595134347_rgbf000129-resize_4-target.png,1000,4.742,4.255,0,1766,505,1006,491,1004,504,feet,,,,,1437607,1566198,27
332991,DepthScenes,duration_discrimination,discrim_jsons/d0.json,http://54.197.185.130/DepthDuration/depth_discrimination_MTurk/DepthDiscrim_HTML.html#4,4,1536,721,1536,864,6-9-2021,20-3-32,20,depth_discrimination_stimuli/001100_2014-06-15_17-46-26_260595134347_rgbf000225-resize_2/001100_2014-06-15_17-46-26_260595134347_rgbf000225-resize_2-target.png,depth_discrimination_stimuli/002131_2014-06-25_21-12-01_260595134347_rgbf000083-resize_0/002131_2014-06-25_21-12-01_260595134347_rgbf000083-resize_0-target.png,1000,2.24,1.7685,0,1776,512,995,508,1002,499,feet,,,,,1437607,1566198,27
332991,DepthScenes,duration_discrimination,discrim_jsons/d0.json,http://54.197.185.130/DepthDuration/depth_discrimination_MTurk/DepthDiscrim_HTML.html#4,4,1536,721,1536,864,6-9-2021,20-3-32,21,depth_discrimination_stimuli/003395_2014-05-20_15-39-18_094959634447_rgbf000101-resize_0/003395_2014-05-20_15-39-18_094959634447_rgbf000101-resize_0-target.png,depth_discrimination_stimuli/001540_2014-06-20_17-01-05_260595134347_rgbf000086-resize_2/001540_2014-06-20_17-01-05_260595134347_rgbf000086-resize_2-target.png,250,4.835,1.459,1,917,505,252,500,252,497,feet,,,,,1437607,1566198,27
332991,DepthScenes,duration_discrimination,discrim_jsons/d0.json,http://54.197.185.130/DepthDuration/depth_discrimination_MTurk/DepthDiscrim_HTML.html#4,4,1536,721,1536,864,6-9-2021,20-3-32,22,depth_discrimination_stimuli/000454_2014-06-08_16-37-28_260595134347_rgbf000048-resize_2/000454_2014-06-08_16-37-28_260595134347_rgbf000048-resize_2-target.png,depth_discrimination_stimuli/000375_2014-06-08_11-17-29_260595134347_rgbf000133-resize_2/000375_2014-06-08_11-17-29_260595134347_rgbf000133-resize_2-target.png,1000,1.213,4.718,0,2060,514,1000,493,995,508,feet,,,,,1437607,1566198,27
332991,DepthScenes,duration_discrimination,discrim_jsons/d0.json,http://54.197.185.130/DepthDuration/depth_discrimination_MTurk/DepthDiscrim_HTML.html#4,4,1536,721,1536,864,6-9-2021,20-3-32,23,depth_discrimination_stimuli/000734_2014-06-08_17-39-11_260595134347_rgbf000128-resize_2/000734_2014-06-08_17-39-11_260595134347_rgbf000128-resize_2-target.png,depth_discrimination_stimuli/001148_2014-06-17_15-26-42_260595134347_rgbf000129-resize_0/001148_2014-06-17_15-26-42_260595134347_rgbf000129-resize_0-target.png,250,4.098,4.368,0,1162,514,250,491,249,510,feet,,,,,1437607,1566198,27
332991,DepthScenes,duration_discrimination,discrim_jsons/d0.json,http://54.197.185.130/DepthDuration/depth_discrimination_MTurk/DepthDiscrim_HTML.html#4,4,1536,721,1536,864,6-9-2021,20-3-32,24,depth_discrimination_stimuli/002549_2014-06-24_13-41-39_094959634447_rgbf000022-resize_3/002549_2014-06-24_13-41-39_094959634447_rgbf000022-resize_3-target.png,depth_discrimination_stimuli/002545_2014-06-24_13-38-53_094959634447_rgbf000080-resize_4/002545_2014-06-24_13-38-53_094959634447_rgbf000080-resize_4-target.png,250,1.476,1.9205,0,1050,515,251,500,248,489,feet,,,,,1437607,1566198,27
332991,DepthScenes,duration_discrimination,discrim_jsons/d0.json,http://54.197.185.130/DepthDuration/depth_discrimination_MTurk/DepthDiscrim_HTML.html#4,4,1536,721,1536,864,6-9-2021,20-3-32,25,depth_discrimination_stimuli/002657_2014-06-13_15-29-54_094959634447_rgbf000150-resize_1/002657_2014-06-13_15-29-54_094959634447_rgbf000150-resize_1-target.png,depth_discrimination_stimuli/002748_2014-06-22_19-07-22_094959634447_rgbf000078-resize_1/002748_2014-06-22_19-07-22_094959634447_rgbf000078-resize_1-target.png,250,4.919,4.6705,0,1117,513,252,498,251,499,feet,,,,,1437607,1566198,27
332991,DepthScenes,duration_discrimination,discrim_jsons/d0.json,http://54.197.185.130/DepthDuration/depth_discrimination_MTurk/DepthDiscrim_HTML.html#4,4,1536,721,1536,864,6-9-2021,20-3-32,26,depth_discrimination_stimuli/002323_2014-06-28_20-01-54_260595134347_rgbf000051-resize_4/002323_2014-06-28_20-01-54_260595134347_rgbf000051-resize_4-target.png,depth_discrimination_stimuli/000736_2014-06-08_18-24-15_260595134347_rgbf000206-resize_3/000736_2014-06-08_18-24-15_260595134347_rgbf000206-resize_3-target.png,250,3.731,3.515,1,911,515,249,502,236,512,feet,,,,,1437607,1566198,27
332991,DepthScenes,duration_discrimination,discrim_jsons/d0.json,http://54.197.185.130/DepthDuration/depth_discrimination_MTurk/DepthDiscrim_HTML.html#4,4,1536,721,1536,864,6-9-2021,20-3-32,27,depth_discrimination_stimuli/000749_2014-06-08_21-55-06_260595134347_rgbf000070-resize_2/000749_2014-06-08_21-55-06_260595134347_rgbf000070-resize_2-target.png,depth_discrimination_stimuli/002875_2014-06-01_15-19-00_094959634447_rgbf000151-resize_1/002875_2014-06-01_15-19-00_094959634447_rgbf000151-resize_1-target.png,250,2.331,1.9675,1,1153,509,247,501,255,493,feet,,,,,1437607,1566198,27
332991,DepthScenes,duration_discrimination,discrim_jsons/d0.json,http://54.197.185.130/DepthDuration/depth_discrimination_MTurk/DepthDiscrim_HTML.html#4,4,1536,721,1536,864,6-9-2021,20-3-32,28,depth_discrimination_stimuli/000735_2014-06-08_18-23-50_260595134347_rgbf000163-resize_2/000735_2014-06-08_18-23-50_260595134347_rgbf000163-resize_2-target.png,depth_discrimination_stimuli/003288_2014-05-14_21-50-30_094959634447_rgbf000028-resize_3/003288_2014-05-14_21-50-30_094959634447_rgbf000028-resize_3-target.png,250,4.1695,3.877,1,955,510,249,497,257,498,feet,,,,,1437607,1566198,27
332991,DepthScenes,duration_discrimination,discrim_jsons/d0.json,http://54.197.185.130/DepthDuration/depth_discrimination_MTurk/DepthDiscrim_HTML.html#4,4,1536,721,1536,864,6-9-2021,20-3-32,29,depth_discrimination_stimuli/002375_2014-06-28_20-13-44_260595134347_rgbf000032-resize_1/002375_2014-06-28_20-13-44_260595134347_rgbf000032-resize_1-target.png,depth_discrimination_stimuli/001570_2014-06-20_17-21-09_260595134347_rgbf000135-resize_4/001570_2014-06-20_17-21-09_260595134347_rgbf000135-resize_4-target.png,250,4.0175,4.467,0,979,501,251,499,254,509,feet,,,,,1437607,1566198,27
332991,DepthScenes,duration_discrimination,discrim_jsons/d0.json,http://54.197.185.130/DepthDuration/depth_discrimination_MTurk/DepthDiscrim_HTML.html#4,4,1536,721,1536,864,6-9-2021,20-3-32,30,depth_discrimination_stimuli/000457_2014-06-08_16-52-43_260595134347_rgbf000199-resize_1/000457_2014-06-08_16-52-43_260595134347_rgbf000199-resize_1-target.png,depth_discrimination_stimuli/002365_2014-06-28_20-11-21_260595134347_rgbf000102-resize_1/002365_2014-06-28_20-11-21_260595134347_rgbf000102-resize_1-target.png,1000,3.649,4.013,0,1872,502,1007,495,1012,489,feet,,,,,1437607,1566198,27
332991,DepthScenes,duration_discrimination,discrim_jsons/d0.json,http://54.197.185.130/DepthDuration/depth_discrimination_MTurk/DepthDiscrim_HTML.html#4,4,1536,721,1536,864,6-9-2021,20-3-32,31,depth_discrimination_stimuli/002700_2014-06-22_11-27-02_094959634447_rgbf000124-resize_3/002700_2014-06-22_11-27-02_094959634447_rgbf000124-resize_3-target.png,depth_discrimination_stimuli/000800_2014-06-08_22-42-09_260595134347_rgbf000095-resize_3/000800_2014-06-08_22-42-09_260595134347_rgbf000095-resize_3-target.png,1000,3.301,2.8,1,1770,505,997,510,991,504,feet,,,,,1437607,1566198,27
332991,DepthScenes,duration_discrimination,discrim_jsons/d0.json,http://54.197.185.130/DepthDuration/depth_discrimination_MTurk/DepthDiscrim_HTML.html#4,4,1536,721,1536,864,6-9-2021,20-3-32,32,depth_discrimination_stimuli/001170_2014-06-17_15-43-44_260595134347_rgbf000096-resize_6/001170_2014-06-17_15-43-44_260595134347_rgbf000096-resize_6-target.png,depth_discrimination_stimuli/002364_2014-06-28_20-11-05_260595134347_rgbf000042-resize_0/002364_2014-06-28_20-11-05_260595134347_rgbf000042-resize_0-target.png,1000,1.191,4.682,0,1800,513,1000,498,997,501,feet,,,,,1437607,1566198,27
332991,DepthScenes,duration_discrimination,discrim_jsons/d0.json,http://54.197.185.130/DepthDuration/depth_discrimination_MTurk/DepthDiscrim_HTML.html#4,4,1536,721,1536,864,6-9-2021,20-3-32,33,depth_discrimination_stimuli/001016_2014-06-09_16-16-10_260595134347_rgbf000112-resize_5/001016_2014-06-09_16-16-10_260595134347_rgbf000112-resize_5-target.png,depth_discrimination_stimuli/001618_2014-06-20_11-37-31_260595134347_rgbf000027-resize_3/001618_2014-06-20_11-37-31_260595134347_rgbf000027-resize_3-target.png,250,1.6565,1.8725,1,1123,506,249,497,250,501,feet,,,,,1437607,1566198,27
332991,DepthScenes,duration_discrimination,discrim_jsons/d0.json,http://54.197.185.130/DepthDuration/depth_discrimination_MTurk/DepthDiscrim_HTML.html#4,4,1536,721,1536,864,6-9-2021,20-3-32,34,depth_discrimination_stimuli/003081_2014-06-15_15-19-16_094959634447_rgbf000150-resize_1/003081_2014-06-15_15-19-16_094959634447_rgbf000150-resize_1-target.png,depth_discrimination_stimuli/000917_2014-06-09_22-45-29_260595134347_rgbf000149-resize_3/000917_2014-06-09_22-45-29_260595134347_rgbf000149-resize_3-target.png,250,3.9125,4.1865,0,1292,501,265,500,247,498,feet,,,,,1437607,1566198,27
332991,DepthScenes,duration_discrimination,discrim_jsons/d0.json,http://54.197.185.130/DepthDuration/depth_discrimination_MTurk/DepthDiscrim_HTML.html#4,4,1536,721,1536,864,6-9-2021,20-3-32,35,depth_discrimination_stimuli/001059_2014-06-08_21-53-27_260595134347_rgbf000061-resize_4/001059_2014-06-08_21-53-27_260595134347_rgbf000061-resize_4-target.png,depth_discrimination_stimuli/000906_2014-06-08_13-35-43_260595134347_rgbf000155-resize_1/000906_2014-06-08_13-35-43_260595134347_rgbf000155-resize_1-target.png,250,2.4185,2.849,0,1058,513,250,498,250,500,feet,,,,,1437607,1566198,27
332991,DepthScenes,duration_discrimination,discrim_jsons/d0.json,http://54.197.185.130/DepthDuration/depth_discrimination_MTurk/DepthDiscrim_HTML.html#4,4,1536,721,1536,864,6-9-2021,20-3-32,36,depth_discrimination_stimuli/002988_2014-06-15_12-24-20_094959634447_rgbf000150-resize_1/002988_2014-06-15_12-24-20_094959634447_rgbf000150-resize_1-target.png,depth_discrimination_stimuli/000447_2014-06-08_16-15-46_260595134347_rgbf000130-resize_1/000447_2014-06-08_16-15-46_260595134347_rgbf000130-resize_1-target.png,1000,4.767,4.479,1,1958,502,1003,510,987,509,feet,,,,,1437607,1566198,27
332991,DepthScenes,duration_discrimination,discrim_jsons/d0.json,http://54.197.185.130/DepthDuration/depth_discrimination_MTurk/DepthDiscrim_HTML.html#4,4,1536,721,1536,864,6-9-2021,20-3-32,37,depth_discrimination_stimuli/001164_2014-06-17_15-35-46_260595134347_rgbf000085-resize_3/001164_2014-06-17_15-35-46_260595134347_rgbf000085-resize_3-target.png,depth_discrimination_stimuli/003228_2014-05-14_13-42-35_094959634447_rgbf000101-resize_1/003228_2014-05-14_13-42-35_094959634447_rgbf000101-resize_1-target.png,250,2.354,1.968,1,1093,501,262,492,260,490,feet,,,,,1437607,1566198,27
332991,DepthScenes,duration_discrimination,discrim_jsons/d0.json,http://54.197.185.130/DepthDuration/depth_discrimination_MTurk/DepthDiscrim_HTML.html#4,4,1536,721,1536,864,6-9-2021,20-3-32,38,depth_discrimination_stimuli/000739_2014-06-08_18-45-58_260595134347_rgbf000068-resize_1/000739_2014-06-08_18-45-58_260595134347_rgbf000068-resize_1-target.png,depth_discrimination_stimuli/002995_2014-06-15_12-31-26_094959634447_rgbf000150-resize_1/002995_2014-06-15_12-31-26_094959634447_rgbf000150-resize_1-target.png,1000,3.534,3.836,0,1734,512,997,499,1006,493,feet,,,,,1437607,1566198,27
332991,DepthScenes,duration_discrimination,discrim_jsons/d0.json,http://54.197.185.130/DepthDuration/depth_discrimination_MTurk/DepthDiscrim_HTML.html#4,4,1536,721,1536,864,6-9-2021,20-3-32,39,depth_discrimination_stimuli/001092_2014-06-15_17-34-58_260595134347_rgbf000171-resize_3/001092_2014-06-15_17-34-58_260595134347_rgbf000171-resize_3-target.png,depth_discrimination_stimuli/000522_2014-06-08_13-35-06_260595134347_rgbf000244-resize_1/000522_2014-06-08_13-35-06_260595134347_rgbf000244-resize_1-target.png,250,2.6935,2.3715,1,1099,513,252,501,250,499,feet,,,,,1437607,1566198,27
332991,DepthScenes,duration_discrimination,discrim_jsons/d0.json,http://54.197.185.130/DepthDuration/depth_discrimination_MTurk/DepthDiscrim_HTML.html#4,4,1536,721,1536,864,6-9-2021,20-3-32,40,depth_discrimination_stimuli/003534_2014-05-22_15-06-10_094959634447_rgbf000102-resize_4/003534_2014-05-22_15-06-10_094959634447_rgbf000102-resize_4-target.png,depth_discrimination_stimuli/002272_2014-06-28_18-53-56_260595134347_rgbf000067-resize_2/002272_2014-06-28_18-53-56_260595134347_rgbf000067-resize_2-target.png,1000,1.426,1.138,1,1696,503,1004,508,986,514,feet,,,,,1437607,1566198,27
332991,DepthScenes,duration_discrimination,discrim_jsons/d0.json,http://54.197.185.130/DepthDuration/depth_discrimination_MTurk/DepthDiscrim_HTML.html#4,4,1536,721,1536,864,6-9-2021,20-3-32,41,depth_discrimination_stimuli/003546_2014-05-22_15-48-53_094959634447_rgbf004816-resize_3/003546_2014-05-22_15-48-53_094959634447_rgbf004816-resize_3-target.png,depth_discrimination_stimuli/003010_2014-06-15_12-54-35_094959634447_rgbf000112-resize_0/003010_2014-06-15_12-54-35_094959634447_rgbf000112-resize_0-target.png,1000,2.62625,3.1185,0,2069,501,1002,510,993,503,feet,,,,,1437607,1566198,27
332991,DepthScenes,duration_discrimination,discrim_jsons/d0.json,http://54.197.185.130/DepthDuration/depth_discrimination_MTurk/DepthDiscrim_HTML.html#4,4,1536,721,1536,864,6-9-2021,20-3-32,42,depth_discrimination_stimuli/002953_2014-06-08_17-32-18_094959634447_rgbf000059-resize_5/002953_2014-06-08_17-32-18_094959634447_rgbf000059-resize_5-target.png,depth_discrimination_stimuli/001571_2014-06-20_17-21-32_260595134347_rgbf000089-resize_1/001571_2014-06-20_17-21-32_260595134347_rgbf000089-resize_1-target.png,1000,1.551,1.86,1,4335,515,997,495,1008,494,feet,,,,,1437607,1566198,27
332991,DepthScenes,duration_discrimination,discrim_jsons/d0.json,http://54.197.185.130/DepthDuration/depth_discrimination_MTurk/DepthDiscrim_HTML.html#4,4,1536,721,1536,864,6-9-2021,20-3-32,43,depth_discrimination_stimuli/000682_2014-06-08_23-14-58_260595134347_rgbf000041-resize_5/000682_2014-06-08_23-14-58_260595134347_rgbf000041-resize_5-target.png,depth_discrimination_stimuli/000866_2014-06-09_20-45-42_260595134347_rgbf000139-resize_1/000866_2014-06-09_20-45-42_260595134347_rgbf000139-resize_1-target.png,250,2.724,3.2155,0,992,503,259,499,249,492,feet,,,,,1437607,1566198,27
332991,DepthScenes,duration_discrimination,discrim_jsons/d0.json,http://54.197.185.130/DepthDuration/depth_discrimination_MTurk/DepthDiscrim_HTML.html#4,4,1536,721,1536,864,6-9-2021,20-3-32,44,depth_discrimination_stimuli/002989_2014-06-15_12-25-03_094959634447_rgbf000150-resize_3/002989_2014-06-15_12-25-03_094959634447_rgbf000150-resize_3-target.png,depth_discrimination_stimuli/001724_2014-06-26_19-28-50_260595134347_rgbf000037-resize_7/001724_2014-06-26_19-28-50_260595134347_rgbf000037-resize_7-target.png,1000,4.1975,3.827,0,1815,511,1000,503,993,497,feet,,,,,1437607,1566198,27
332991,DepthScenes,duration_discrimination,discrim_jsons/d0.json,http://54.197.185.130/DepthDuration/depth_discrimination_MTurk/DepthDiscrim_HTML.html#4,4,1536,721,1536,864,6-9-2021,20-3-32,45,depth_discrimination_stimuli/001264_2014-06-16_16-10-23_260595134347_rgbf000109-resize_1/001264_2014-06-16_16-10-23_260595134347_rgbf000109-resize_1-target.png,depth_discrimination_stimuli/002340_2014-06-28_20-05-46_260595134347_rgbf000113-resize_0/002340_2014-06-28_20-05-46_260595134347_rgbf000113-resize_0-target.png,1000,2.9665,2.4735,0,1943,502,1009,492,1010,500,feet,,,,,1437607,1566198,27
332991,DepthScenes,duration_discrimination,discrim_jsons/d0.json,http://54.197.185.130/DepthDuration/depth_discrimination_MTurk/DepthDiscrim_HTML.html#4,4,1536,721,1536,864,6-9-2021,20-3-32,46,depth_discrimination_stimuli/002118_2014-06-25_20-32-08_260595134347_rgbf000078-resize_1/002118_2014-06-25_20-32-08_260595134347_rgbf000078-resize_1-target.png,depth_discrimination_stimuli/000542_2014-06-08_18-27-08_260595134347_rgbf000118-resize_1/000542_2014-06-08_18-27-08_260595134347_rgbf000118-resize_1-target.png,1000,2.646,3,1,1737,515,1001,488,997,514,feet,,,,,1437607,1566198,27
332991,DepthScenes,duration_discrimination,discrim_jsons/d0.json,http://54.197.185.130/DepthDuration/depth_discrimination_MTurk/DepthDiscrim_HTML.html#4,4,1536,721,1536,864,6-9-2021,20-3-32,47,depth_discrimination_stimuli/000569_2014-06-09_22-51-47_260595134347_rgbf000141-resize_3/000569_2014-06-09_22-51-47_260595134347_rgbf000141-resize_3-target.png,depth_discrimination_stimuli/000868_2014-06-09_20-49-52_260595134347_rgbf000064-resize_4/000868_2014-06-09_20-49-52_260595134347_rgbf000064-resize_4-target.png,250,4.512,1.2815,1,948,507,247,503,247,504,feet,,,,,1437607,1566198,27
332991,DepthScenes,duration_discrimination,discrim_jsons/d0.json,http://54.197.185.130/DepthDuration/depth_discrimination_MTurk/DepthDiscrim_HTML.html#4,4,1536,721,1536,864,6-9-2021,20-3-32,48,depth_discrimination_stimuli/000665_2014-06-09_20-42-35_260595134347_rgbf000110-resize_1/000665_2014-06-09_20-42-35_260595134347_rgbf000110-resize_1-target.png,depth_discrimination_stimuli/001214_2014-06-17_16-13-55_260595134347_rgbf000111-resize_0/001214_2014-06-17_16-13-55_260595134347_rgbf000111-resize_0-target.png,250,3.057,2.6505,1,1028,501,251,506,245,499,feet,,,,,1437607,1566198,27
332991,DepthScenes,duration_discrimination,discrim_jsons/d0.json,http://54.197.185.130/DepthDuration/depth_discrimination_MTurk/DepthDiscrim_HTML.html#4,4,1536,721,1536,864,6-9-2021,20-3-32,49,depth_discrimination_stimuli/000753_2014-06-08_21-57-44_260595134347_rgbf000123-resize_3/000753_2014-06-08_21-57-44_260595134347_rgbf000123-resize_3-target.png,depth_discrimination_stimuli/003092_2014-06-24_21-01-49_094959634447_rgbf000049-resize_2/003092_2014-06-24_21-01-49_094959634447_rgbf000049-resize_2-target.png,1000,1.916,1.666,1,1843,500,1002,511,989,513,feet,,,,,1437607,1566198,27
332991,DepthScenes,duration_discrimination,discrim_jsons/d0.json,http://54.197.185.130/DepthDuration/depth_discrimination_MTurk/DepthDiscrim_HTML.html#4,4,1536,721,1536,864,6-9-2021,20-3-32,50,depth_discrimination_stimuli/000780_2014-06-08_22-28-29_260595134347_rgbf000126-resize_1/000780_2014-06-08_22-28-29_260595134347_rgbf000126-resize_1-target.png,depth_discrimination_stimuli/000191_2014-05-12_17-07-38_260595134347_rgbf000199-resize_0/000191_2014-05-12_17-07-38_260595134347_rgbf000199-resize_0-target.png,1000,3.3825,3.7995,0,1906,508,996,512,997,502,feet,,,,,1437607,1566198,27
332991,DepthScenes,duration_discrimination,discrim_jsons/d0.json,http://54.197.185.130/DepthDuration/depth_discrimination_MTurk/DepthDiscrim_HTML.html#4,4,1536,721,1536,864,6-9-2021,20-3-32,51,depth_discrimination_stimuli/000720_2014-06-08_18-37-27_260595134347_rgbf000203-resize_4/000720_2014-06-08_18-37-27_260595134347_rgbf000203-resize_4-target.png,depth_discrimination_stimuli/002637_2014-06-24_14-51-13_094959634447_rgbf000066-resize_4/002637_2014-06-24_14-51-13_094959634447_rgbf000066-resize_4-target.png,1000,1.558,1.9955,0,1967,515,987,500,1004,503,feet,,,,,1437607,1566198,27
332991,DepthScenes,duration_discrimination,discrim_jsons/d0.json,http://54.197.185.130/DepthDuration/depth_discrimination_MTurk/DepthDiscrim_HTML.html#4,4,1536,721,1536,864,6-9-2021,20-3-32,52,depth_discrimination_stimuli/000929_2014-06-09_16-33-19_260595134347_rgbf000139-resize_0/000929_2014-06-09_16-33-19_260595134347_rgbf000139-resize_0-target.png,depth_discrimination_stimuli/000830_2014-06-04_19-49-31_260595134347_rgbf000096-resize_2/000830_2014-06-04_19-49-31_260595134347_rgbf000096-resize_2-target.png,250,2.868,2.6353333333333,1,1163,514,251,491,249,501,feet,,,,,1437607,1566198,27
332991,DepthScenes,duration_discrimination,discrim_jsons/d0.json,http://54.197.185.130/DepthDuration/depth_discrimination_MTurk/DepthDiscrim_HTML.html#4,4,1536,721,1536,864,6-9-2021,20-3-32,53,depth_discrimination_stimuli/000549_2014-06-08_22-10-24_260595134347_rgbf000247-resize_3/000549_2014-06-08_22-10-24_260595134347_rgbf000247-resize_3-target.png,depth_discrimination_stimuli/002139_2014-06-25_21-19-37_260595134347_rgbf000124-resize_2/002139_2014-06-25_21-19-37_260595134347_rgbf000124-resize_2-target.png,250,1.841,2.107,0,1228,506,249,500,252,499,feet,,,,,1437607,1566198,27
332991,DepthScenes,duration_discrimination,discrim_jsons/d0.json,http://54.197.185.130/DepthDuration/depth_discrimination_MTurk/DepthDiscrim_HTML.html#4,4,1536,721,1536,864,6-9-2021,20-3-32,54,depth_discrimination_stimuli/001617_2014-06-20_11-35-32_260595134347_rgbf000066-resize_1/001617_2014-06-20_11-35-32_260595134347_rgbf000066-resize_1-target.png,depth_discrimination_stimuli/001133_2014-06-17_14-49-16_260595134347_rgbf000100-resize_0/001133_2014-06-17_14-49-16_260595134347_rgbf000100-resize_0-target.png,1000,3.791,4.2115,0,2137,507,1004,495,1008,500,feet,,,,,1437607,1566198,27
332991,DepthScenes,duration_discrimination,discrim_jsons/d0.json,http://54.197.185.130/DepthDuration/depth_discrimination_MTurk/DepthDiscrim_HTML.html#4,4,1536,721,1536,864,6-9-2021,20-3-32,55,depth_discrimination_stimuli/003292_2014-05-14_21-53-49_094959634447_rgbf000100-resize_2/003292_2014-05-14_21-53-49_094959634447_rgbf000100-resize_2-target.png,depth_discrimination_stimuli/002805_2014-06-22_19-54-03_094959634447_rgbf000079-resize_1/002805_2014-06-22_19-54-03_094959634447_rgbf000079-resize_1-target.png,1000,3.4815,3.144,0,1876,512,993,501,1011,491,feet,,,,,1437607,1566198,27
332991,DepthScenes,duration_discrimination,discrim_jsons/d0.json,http://54.197.185.130/DepthDuration/depth_discrimination_MTurk/DepthDiscrim_HTML.html#4,4,1536,721,1536,864,6-9-2021,20-3-32,56,depth_discrimination_stimuli/001417_2014-06-19_16-25-36_260595134347_rgbf000115-resize_5/001417_2014-06-19_16-25-36_260595134347_rgbf000115-resize_5-target.png,depth_discrimination_stimuli/003083_2014-06-15_15-21-03_094959634447_rgbf000063-resize_1/003083_2014-06-15_15-21-03_094959634447_rgbf000063-resize_1-target.png,250,4.6255,4.1405,1,1805,512,243,520,231,508,feet,,,,,1437607,1566198,27
332991,DepthScenes,duration_discrimination,discrim_jsons/d0.json,http://54.197.185.130/DepthDuration/depth_discrimination_MTurk/DepthDiscrim_HTML.html#4,4,1536,721,1536,864,6-9-2021,20-3-32,57,depth_discrimination_stimuli/003070_2014-06-15_14-58-27_094959634447_rgbf000150-resize_3/003070_2014-06-15_14-58-27_094959634447_rgbf000150-resize_3-target.png,depth_discrimination_stimuli/000758_2014-06-08_22-05-08_260595134347_rgbf000085-resize_0/000758_2014-06-08_22-05-08_260595134347_rgbf000085-resize_0-target.png,1000,2.9415,3.381,0,1933,508,996,504,1000,498,feet,,,,,1437607,1566198,27
332991,DepthScenes,duration_discrimination,discrim_jsons/d0.json,http://54.197.185.130/DepthDuration/depth_discrimination_MTurk/DepthDiscrim_HTML.html#4,4,1536,721,1536,864,6-9-2021,20-3-32,58,depth_discrimination_stimuli/001235_2014-06-17_16-37-36_260595134347_rgbf000084-resize_4/001235_2014-06-17_16-37-36_260595134347_rgbf000084-resize_4-target.png,depth_discrimination_stimuli/003423_2014-05-21_10-23-26_094959634447_rgbf002665-resize_2/003423_2014-05-21_10-23-26_094959634447_rgbf002665-resize_2-target.png,1000,3.6605,3.2575,0,2042,501,1003,500,1009,501,feet,,,,,1437607,1566198,27
332991,DepthScenes,duration_discrimination,discrim_jsons/d0.json,http://54.197.185.130/DepthDuration/depth_discrimination_MTurk/DepthDiscrim_HTML.html#4,4,1536,721,1536,864,6-9-2021,20-3-32,59,depth_discrimination_stimuli/002660_2014-06-13_15-44-18_094959634447_rgbf001878-resize_2/002660_2014-06-13_15-44-18_094959634447_rgbf001878-resize_2-target.png,depth_discrimination_stimuli/000009_2014-05-26_14-32-05_260595134347_rgbf000034-resize_3/000009_2014-05-26_14-32-05_260595134347_rgbf000034-resize_3-target.png,1000,3.576,3.8715,0,1791,513,996,491,1015,491,feet,,,,,1437607,1566198,27
332991,DepthScenes,duration_discrimination,discrim_jsons/d0.json,http://54.197.185.130/DepthDuration/depth_discrimination_MTurk/DepthDiscrim_HTML.html#4,4,1536,721,1536,864,6-9-2021,20-3-32,60,depth_discrimination_stimuli/000642_2014-06-08_16-59-25_260595134347_rgbf000098-resize_2/000642_2014-06-08_16-59-25_260595134347_rgbf000098-resize_2-target.png,depth_discrimination_stimuli/001815_2014-06-26_20-52-55_260595134347_rgbf000020-resize_0/001815_2014-06-26_20-52-55_260595134347_rgbf000020-resize_0-target.png,1000,2.8815,3.3865,1,3350,510,1001,497,1001,506,feet,,,,,1437607,1566198,27
332991,DepthScenes,duration_discrimination,discrim_jsons/d0.json,http://54.197.185.130/DepthDuration/depth_discrimination_MTurk/DepthDiscrim_HTML.html#4,4,1536,721,1536,864,6-9-2021,20-3-32,61,depth_discrimination_stimuli/001289_2014-06-16_16-25-52_260595134347_rgbf000067-resize_1/001289_2014-06-16_16-25-52_260595134347_rgbf000067-resize_1-target.png,depth_discrimination_stimuli/002788_2014-06-22_19-36-03_094959634447_rgbf000088-resize_2/002788_2014-06-22_19-36-03_094959634447_rgbf000088-resize_2-target.png,1000,1.8835,1.6465,0,2226,516,1000,487,1002,501,feet,,,,,1437607,1566198,27
332991,DepthScenes,duration_discrimination,discrim_jsons/d0.json,http://54.197.185.130/DepthDuration/depth_discrimination_MTurk/DepthDiscrim_HTML.html#4,4,1536,721,1536,864,6-9-2021,20-3-32,62,depth_discrimination_stimuli/000953_2014-06-08_11-42-19_260595134347_rgbf000083-resize_0/000953_2014-06-08_11-42-19_260595134347_rgbf000083-resize_0-target.png,depth_discrimination_stimuli/000787_2014-06-08_22-33-53_260595134347_rgbf000175-resize_1/000787_2014-06-08_22-33-53_260595134347_rgbf000175-resize_1-target.png,1000,1.369,4.784,0,1849,518,992,507,984,514,feet,,,,,1437607,1566198,27
332991,DepthScenes,duration_discrimination,discrim_jsons/d0.json,http://54.197.185.130/DepthDuration/depth_discrimination_MTurk/DepthDiscrim_HTML.html#4,4,1536,721,1536,864,6-9-2021,20-3-32,63,depth_discrimination_stimuli/002199_2014-06-28_18-33-56_260595134347_rgbf000074-resize_0/002199_2014-06-28_18-33-56_260595134347_rgbf000074-resize_0-target.png,depth_discrimination_stimuli/000368_2014-06-09_15-53-01_260595134347_rgbf000155-resize_2/000368_2014-06-09_15-53-01_260595134347_rgbf000155-resize_2-target.png,250,1.996,2.486,1,1318,507,246,502,253,501,feet,,,,,1437607,1566198,27
332991,DepthScenes,duration_discrimination,discrim_jsons/d0.json,http://54.197.185.130/DepthDuration/depth_discrimination_MTurk/DepthDiscrim_HTML.html#4,4,1536,721,1536,864,6-9-2021,20-3-32,64,depth_discrimination_stimuli/001810_2014-06-26_20-51-35_260595134347_rgbf000040-resize_3/001810_2014-06-26_20-51-35_260595134347_rgbf000040-resize_3-target.png,depth_discrimination_stimuli/000927_2014-06-09_16-32-30_260595134347_rgbf000123-resize_3/000927_2014-06-09_16-32-30_260595134347_rgbf000123-resize_3-target.png,250,2.2525,2.6785,0,1022,502,254,506,252,500,feet,,,,,1437607,1566198,27
332991,DepthScenes,duration_discrimination,discrim_jsons/d0.json,http://54.197.185.130/DepthDuration/depth_discrimination_MTurk/DepthDiscrim_HTML.html#4,4,1536,721,1536,864,6-9-2021,20-3-32,65,depth_discrimination_stimuli/001199_2014-06-17_16-03-48_260595134347_rgbf000077-resize_0/001199_2014-06-17_16-03-48_260595134347_rgbf000077-resize_0-target.png,depth_discrimination_stimuli/001029_2014-06-08_13-17-57_260595134347_rgbf000065-resize_1/001029_2014-06-08_13-17-57_260595134347_rgbf000065-resize_1-target.png,250,3.4375,3.0835,1,914,504,259,491,258,494,feet,,,,,1437607,1566198,27
332991,DepthScenes,duration_discrimination,discrim_jsons/d0.json,http://54.197.185.130/DepthDuration/depth_discrimination_MTurk/DepthDiscrim_HTML.html#4,4,1536,721,1536,864,6-9-2021,20-3-32,66,depth_discrimination_stimuli/002425_2014-06-28_20-27-29_260595134347_rgbf000031-resize_8/002425_2014-06-28_20-27-29_260595134347_rgbf000031-resize_8-target.png,depth_discrimination_stimuli/001181_2014-06-17_15-50-57_260595134347_rgbf000106-resize_4/001181_2014-06-17_15-50-57_260595134347_rgbf000106-resize_4-target.png,250,3.896,4.149,0,1346,506,247,513,245,498,feet,,,,,1437607,1566198,27
332991,DepthScenes,duration_discrimination,discrim_jsons/d0.json,http://54.197.185.130/DepthDuration/depth_discrimination_MTurk/DepthDiscrim_HTML.html#4,4,1536,721,1536,864,6-9-2021,20-3-32,67,depth_discrimination_stimuli/000521_2014-06-08_13-34-35_260595134347_rgbf000191-resize_2/000521_2014-06-08_13-34-35_260595134347_rgbf000191-resize_2-target.png,depth_discrimination_stimuli/000788_2014-06-08_22-34-36_260595134347_rgbf000131-resize_1/000788_2014-06-08_22-34-36_260595134347_rgbf000131-resize_1-target.png,250,3.0385,3.359,0,1079,508,247,516,250,485,feet,,,,,1437607,1566198,27
332991,DepthScenes,duration_discrimination,discrim_jsons/d0.json,http://54.197.185.130/DepthDuration/depth_discrimination_MTurk/DepthDiscrim_HTML.html#4,4,1536,721,1536,864,6-9-2021,20-3-32,68,depth_discrimination_stimuli/002568_2014-06-24_13-59-21_094959634447_rgbf000062-resize_4/002568_2014-06-24_13-59-21_094959634447_rgbf000062-resize_4-target.png,depth_discrimination_stimuli/000636_2014-06-08_16-39-02_260595134347_rgbf000108-resize_4/000636_2014-06-08_16-39-02_260595134347_rgbf000108-resize_4-target.png,250,3.015,2.682,1,971,504,251,497,248,507,feet,,,,,1437607,1566198,27
332991,DepthScenes,duration_discrimination,discrim_jsons/d0.json,http://54.197.185.130/DepthDuration/depth_discrimination_MTurk/DepthDiscrim_HTML.html#4,4,1536,721,1536,864,6-9-2021,20-3-32,69,depth_discrimination_stimuli/001498_2014-06-19_17-45-14_260595134347_rgbf000129-resize_4/001498_2014-06-19_17-45-14_260595134347_rgbf000129-resize_4-target.png,depth_discrimination_stimuli/003125_2014-05-12_10-39-22_094959634447_rgbf000100-resize_0/003125_2014-05-12_10-39-22_094959634447_rgbf000100-resize_0-target.png,250,1.4075,4.8655,0,1010,507,258,501,247,502,feet,,,,,1437607,1566198,27
332991,DepthScenes,duration_discrimination,discrim_jsons/d0.json,http://54.197.185.130/DepthDuration/depth_discrimination_MTurk/DepthDiscrim_HTML.html#4,4,1536,721,1536,864,6-9-2021,20-3-32,70,depth_discrimination_stimuli/001167_2014-06-17_15-38-07_260595134347_rgbf000108-resize_0/001167_2014-06-17_15-38-07_260595134347_rgbf000108-resize_0-target.png,depth_discrimination_stimuli/003495_2014-05-21_16-01-51_094959634447_rgbf000100-resize_3/003495_2014-05-21_16-01-51_094959634447_rgbf000100-resize_3-target.png,250,1.8505,1.6255,1,1026,509,255,487,265,504,feet,,,,,1437607,1566198,27
332991,DepthScenes,duration_discrimination,discrim_jsons/d0.json,http://54.197.185.130/DepthDuration/depth_discrimination_MTurk/DepthDiscrim_HTML.html#4,4,1536,721,1536,864,6-9-2021,20-3-32,71,depth_discrimination_stimuli/000869_2014-06-09_20-50-18_260595134347_rgbf000060-resize_3/000869_2014-06-09_20-50-18_260595134347_rgbf000060-resize_3-target.png,depth_discrimination_stimuli/001136_2014-06-17_15-19-41_260595134347_rgbf000076-resize_3/001136_2014-06-17_15-19-41_260595134347_rgbf000076-resize_3-target.png,250,2.266,1.8655,0,1147,512,250,490,270,483,feet,,,,,1437607,1566198,27
332991,DepthScenes,duration_discrimination,discrim_jsons/d0.json,http://54.197.185.130/DepthDuration/depth_discrimination_MTurk/DepthDiscrim_HTML.html#4,4,1536,721,1536,864,6-9-2021,20-3-32,72,depth_discrimination_stimuli/000878_2014-06-08_22-52-45_260595134347_rgbf000045-resize_2/000878_2014-06-08_22-52-45_260595134347_rgbf000045-resize_2-target.png,depth_discrimination_stimuli/003338_2014-05-20_11-01-23_094959634447_rgbf000051-resize_6/003338_2014-05-20_11-01-23_094959634447_rgbf000051-resize_6-target.png,1000,2.092,1.693,1,1679,511,1002,501,996,506,feet,,,,,1437607,1566198,27
332991,DepthScenes,duration_discrimination,discrim_jsons/d0.json,http://54.197.185.130/DepthDuration/depth_discrimination_MTurk/DepthDiscrim_HTML.html#4,4,1536,721,1536,864,6-9-2021,20-3-32,73,depth_discrimination_stimuli/002750_2014-06-22_19-08-03_094959634447_rgbf000094-resize_4/002750_2014-06-22_19-08-03_094959634447_rgbf000094-resize_4-target.png,depth_discrimination_stimuli/001188_2014-06-17_15-54-10_260595134347_rgbf000090-resize_2/001188_2014-06-17_15-54-10_260595134347_rgbf000090-resize_2-target.png,250,2.354,2.744,0,1317,506,252,497,253,496,feet,,,,,1437607,1566198,27
332991,DepthScenes,duration_discrimination,discrim_jsons/d0.json,http://54.197.185.130/DepthDuration/depth_discrimination_MTurk/DepthDiscrim_HTML.html#4,4,1536,721,1536,864,6-9-2021,20-3-32,74,depth_discrimination_stimuli/000740_2014-06-08_18-46-23_260595134347_rgbf000049-resize_6/000740_2014-06-08_18-46-23_260595134347_rgbf000049-resize_6-target.png,depth_discrimination_stimuli/002905_2014-06-03_18-04-43_094959634447_rgbf000151-resize_2/002905_2014-06-03_18-04-43_094959634447_rgbf000151-resize_2-target.png,1000,1.687,2.0295,1,1799,503,1010,501,993,499,feet,,,,,1437607,1566198,27
332991,DepthScenes,duration_discrimination,discrim_jsons/d0.json,http://54.197.185.130/DepthDuration/depth_discrimination_MTurk/DepthDiscrim_HTML.html#4,4,1536,721,1536,864,6-9-2021,20-3-32,75,depth_discrimination_stimuli/000483_2014-06-09_20-41-45_260595134347_rgbf000116-resize_4/000483_2014-06-09_20-41-45_260595134347_rgbf000116-resize_4-target.png,depth_discrimination_stimuli/002964_2014-06-08_17-46-11_094959634447_rgbf000091-resize_4/002964_2014-06-08_17-46-11_094959634447_rgbf000091-resize_4-target.png,250,1.337,1.691,1,1021,503,255,507,247,501,feet,,,,,1437607,1566198,27
332991,DepthScenes,duration_discrimination,discrim_jsons/d0.json,http://54.197.185.130/DepthDuration/depth_discrimination_MTurk/DepthDiscrim_HTML.html#4,4,1536,721,1536,864,6-9-2021,20-3-32,76,depth_discrimination_stimuli/000103_2014-05-14_22-01-17_260595134347_rgbf000152-resize_5/000103_2014-05-14_22-01-17_260595134347_rgbf000152-resize_5-target.png,depth_discrimination_stimuli/000810_2014-06-08_17-20-01_260595134347_rgbf000105-resize_0/000810_2014-06-08_17-20-01_260595134347_rgbf000105-resize_0-target.png,1000,1.993,1.4865,1,1605,516,986,503,1005,498,feet,,,,,1437607,1566198,27
332991,DepthScenes,duration_discrimination,discrim_jsons/d0.json,http://54.197.185.130/DepthDuration/depth_discrimination_MTurk/DepthDiscrim_HTML.html#4,4,1536,721,1536,864,6-9-2021,20-3-32,77,depth_discrimination_stimuli/001056_2014-06-08_18-46-44_260595134347_rgbf000068-resize_0/001056_2014-06-08_18-46-44_260595134347_rgbf000068-resize_0-target.png,depth_discrimination_stimuli/003079_2014-06-15_15-18-20_094959634447_rgbf000152-resize_8/003079_2014-06-15_15-18-20_094959634447_rgbf000152-resize_8-target.png,250,2.6625,2.8775,0,1133,509,251,500,244,517,feet,,,,,1437607,1566198,27
332991,DepthScenes,duration_discrimination,discrim_jsons/d0.json,http://54.197.185.130/DepthDuration/depth_discrimination_MTurk/DepthDiscrim_HTML.html#4,4,1536,721,1536,864,6-9-2021,20-3-32,78,depth_discrimination_stimuli/001110_2014-06-15_17-25-28_260595134347_rgbf000150-resize_1/001110_2014-06-15_17-25-28_260595134347_rgbf000150-resize_1-target.png,depth_discrimination_stimuli/000555_2014-06-09_22-42-23_260595134347_rgbf000037-resize_4/000555_2014-06-09_22-42-23_260595134347_rgbf000037-resize_4-target.png,250,1.7115,1.9765,0,1176,500,253,508,241,500,feet,,,,,1437607,1566198,27
332991,DepthScenes,duration_discrimination,discrim_jsons/d0.json,http://54.197.185.130/DepthDuration/depth_discrimination_MTurk/DepthDiscrim_HTML.html#4,4,1536,721,1536,864,6-9-2021,20-3-32,79,depth_discrimination_stimuli/000677_2014-06-08_23-10-32_260595134347_rgbf000158-resize_6/000677_2014-06-08_23-10-32_260595134347_rgbf000158-resize_6-target.png,depth_discrimination_stimuli/001150_2014-06-17_15-27-34_260595134347_rgbf000108-resize_2/001150_2014-06-17_15-27-34_260595134347_rgbf000108-resize_2-target.png,250,3.556,4.0325,0,1017,516,236,514,248,501,feet,,,,,1437607,1566198,27
332991,DepthScenes,duration_discrimination,discrim_jsons/d0.json,http://54.197.185.130/DepthDuration/depth_discrimination_MTurk/DepthDiscrim_HTML.html#4,4,1536,721,1536,864,6-9-2021,20-3-32,80,depth_discrimination_stimuli/002414_2014-06-28_20-24-58_260595134347_rgbf000067-resize_4/002414_2014-06-28_20-24-58_260595134347_rgbf000067-resize_4-target.png,depth_discrimination_stimuli/001828_2014-06-26_21-40-03_260595134347_rgbf000024-resize_0/001828_2014-06-26_21-40-03_260595134347_rgbf000024-resize_0-target.png,1000,4.363,4.826,0,1820,513,988,507,1004,502,feet,,,,,1437607,1566198,27
332991,DepthScenes,duration_discrimination,discrim_jsons/d0.json,http://54.197.185.130/DepthDuration/depth_discrimination_MTurk/DepthDiscrim_HTML.html#4,4,1536,721,1536,864,6-9-2021,20-3-32,81,depth_discrimination_stimuli/001244_2014-06-17_16-47-45_260595134347_rgbf000030-resize_4/001244_2014-06-17_16-47-45_260595134347_rgbf000030-resize_4-target.png,depth_discrimination_stimuli/002763_2014-06-22_19-13-10_094959634447_rgbf000075-resize_4/002763_2014-06-22_19-13-10_094959634447_rgbf000075-resize_4-target.png,1000,2.0425,1.68375,1,1531,501,1013,501,997,495,feet,,,,,1437607,1566198,27
332991,DepthScenes,duration_discrimination,discrim_jsons/d0.json,http://54.197.185.130/DepthDuration/depth_discrimination_MTurk/DepthDiscrim_HTML.html#4,4,1536,721,1536,864,6-9-2021,20-3-32,82,depth_discrimination_stimuli/000505_2014-06-08_23-03-23_260595134347_rgbf000091-resize_0/000505_2014-06-08_23-03-23_260595134347_rgbf000091-resize_0-target.png,depth_discrimination_stimuli/002057_2014-06-24_21-00-13_260595134347_rgbf000120-resize_1/002057_2014-06-24_21-00-13_260595134347_rgbf000120-resize_1-target.png,1000,3.3105,2.967,0,1844,508,1008,487,1009,492,feet,,,,,1437607,1566198,27
332991,DepthScenes,duration_discrimination,discrim_jsons/d0.json,http://54.197.185.130/DepthDuration/depth_discrimination_MTurk/DepthDiscrim_HTML.html#4,4,1536,721,1536,864,6-9-2021,20-3-32,83,depth_discrimination_stimuli/001392_2014-06-19_16-07-59_260595134347_rgbf000046-resize_1/001392_2014-06-19_16-07-59_260595134347_rgbf000046-resize_1-target.png,depth_discrimination_stimuli/003490_2014-05-21_15-50-11_094959634447_rgbf000101-resize_3/003490_2014-05-21_15-50-11_094959634447_rgbf000101-resize_3-target.png,1000,4.135,3.6445,1,1580,507,1006,490,999,503,feet,,,,,1437607,1566198,27
332991,DepthScenes,duration_discrimination,discrim_jsons/d0.json,http://54.197.185.130/DepthDuration/depth_discrimination_MTurk/DepthDiscrim_HTML.html#4,4,1536,721,1536,864,6-9-2021,20-3-32,84,depth_discrimination_stimuli/000502_2014-06-08_23-02-32_260595134347_rgbf000063-resize_4/000502_2014-06-08_23-02-32_260595134347_rgbf000063-resize_4-target.png,depth_discrimination_stimuli/002987_2014-06-08_18-48-20_094959634447_rgbf000022-resize_0/002987_2014-06-08_18-48-20_094959634447_rgbf000022-resize_0-target.png,1000,2.431,2.6775,0,1565,503,1002,502,997,499,feet,,,,,1437607,1566198,27
332991,DepthScenes,duration_discrimination,discrim_jsons/d0.json,http://54.197.185.130/DepthDuration/depth_discrimination_MTurk/DepthDiscrim_HTML.html#4,4,1536,721,1536,864,6-9-2021,20-3-32,85,depth_discrimination_stimuli/002675_2014-06-13_16-08-49_094959634447_rgbf000151-resize_2/002675_2014-06-13_16-08-49_094959634447_rgbf000151-resize_2-target.png,depth_discrimination_stimuli/001222_2014-06-17_16-24-06_260595134347_rgbf000073-resize_0/001222_2014-06-17_16-24-06_260595134347_rgbf000073-resize_0-target.png,1000,4.5065,1.4385,1,1552,502,999,505,1005,491,feet,,,,,1437607,1566198,27
332991,DepthScenes,duration_discrimination,discrim_jsons/d0.json,http://54.197.185.130/DepthDuration/depth_discrimination_MTurk/DepthDiscrim_HTML.html#4,4,1536,721,1536,864,6-9-2021,20-3-32,86,depth_discrimination_stimuli/001158_2014-06-17_15-32-16_260595134347_rgbf000138-resize_2/001158_2014-06-17_15-32-16_260595134347_rgbf000138-resize_2-target.png,depth_discrimination_stimuli/003492_2014-05-21_15-50-55_094959634447_rgbf000828-resize_1/003492_2014-05-21_15-50-55_094959634447_rgbf000828-resize_1-target.png,250,4.5315,4.06875,0,1861,506,252,498,277,475,feet,,,,,1437607,1566198,27
332991,DepthScenes,duration_discrimination,discrim_jsons/d0.json,http://54.197.185.130/DepthDuration/depth_discrimination_MTurk/DepthDiscrim_HTML.html#4,4,1536,721,1536,864,6-9-2021,20-3-32,87,depth_discrimination_stimuli/000773_2014-06-08_22-24-54_260595134347_rgbf000093-resize_1/000773_2014-06-08_22-24-54_260595134347_rgbf000093-resize_1-target.png,depth_discrimination_stimuli/000742_2014-06-08_18-48-09_260595134347_rgbf000164-resize_4/000742_2014-06-08_18-48-09_260595134347_rgbf000164-resize_4-target.png,250,4.973,4.632,0,1078,513,239,507,258,484,feet,,,,,1437607,1566198,27
332991,DepthScenes,duration_discrimination,discrim_jsons/d0.json,http://54.197.185.130/DepthDuration/depth_discrimination_MTurk/DepthDiscrim_HTML.html#4,4,1536,721,1536,864,6-9-2021,20-3-32,88,depth_discrimination_stimuli/000854_2014-06-09_19-43-13_260595134347_rgbf000066-resize_0/000854_2014-06-09_19-43-13_260595134347_rgbf000066-resize_0-target.png,depth_discrimination_stimuli/002758_2014-06-22_19-11-20_094959634447_rgbf000128-resize_1/002758_2014-06-22_19-11-20_094959634447_rgbf000128-resize_1-target.png,1000,3.068,2.555,1,1882,510,1004,503,998,499,feet,,,,,1437607,1566198,27
332991,DepthScenes,duration_discrimination,discrim_jsons/d0.json,http://54.197.185.130/DepthDuration/depth_discrimination_MTurk/DepthDiscrim_HTML.html#4,4,1536,721,1536,864,6-9-2021,20-3-32,89,depth_discrimination_stimuli/001055_2014-06-08_18-45-35_260595134347_rgbf000111-resize_4/001055_2014-06-08_18-45-35_260595134347_rgbf000111-resize_4-target.png,depth_discrimination_stimuli/002209_2014-06-28_18-36-10_260595134347_rgbf000051-resize_1/002209_2014-06-28_18-36-10_260595134347_rgbf000051-resize_1-target.png,250,2.429,2.057,1,939,502,253,505,244,502,feet,,,,,1437607,1566198,27
332991,DepthScenes,duration_discrimination,discrim_jsons/d0.json,http://54.197.185.130/DepthDuration/depth_discrimination_MTurk/DepthDiscrim_HTML.html#4,4,1536,721,1536,864,6-9-2021,20-3-32,90,depth_discrimination_stimuli/000414_2014-06-04_19-49-13_260595134347_rgbf000044-resize_0/000414_2014-06-04_19-49-13_260595134347_rgbf000044-resize_0-target.png,depth_discrimination_stimuli/002663_2014-06-13_15-50-26_094959634447_rgbf000075-resize_1/002663_2014-06-13_15-50-26_094959634447_rgbf000075-resize_1-target.png,1000,4.329,4.7495,1,1968,508,996,503,1008,499,feet,,,,,1437607,1566198,27
332991,DepthScenes,duration_discrimination,discrim_jsons/d0.json,http://54.197.185.130/DepthDuration/depth_discrimination_MTurk/DepthDiscrim_HTML.html#4,4,1536,721,1536,864,6-9-2021,20-3-32,91,depth_discrimination_stimuli/002725_2014-06-22_11-47-51_094959634447_rgbf000070-resize_1/002725_2014-06-22_11-47-51_094959634447_rgbf000070-resize_1-target.png,depth_discrimination_stimuli/002153_2014-06-25_21-27-18_260595134347_rgbf000038-resize_5/002153_2014-06-25_21-27-18_260595134347_rgbf000038-resize_5-target.png,1000,2.195,2.505,1,2055,518,1004,485,1001,498,feet,,,,,1437607,1566198,27
332991,DepthScenes,duration_discrimination,discrim_jsons/d0.json,http://54.197.185.130/DepthDuration/depth_discrimination_MTurk/DepthDiscrim_HTML.html#4,4,1536,721,1536,864,6-9-2021,20-3-32,92,depth_discrimination_stimuli/002570_2014-06-24_13-59-54_094959634447_rgbf000059-resize_0/002570_2014-06-24_13-59-54_094959634447_rgbf000059-resize_0-target.png,depth_discrimination_stimuli/001584_2014-06-20_11-07-43_260595134347_rgbf000002-resize_1/001584_2014-06-20_11-07-43_260595134347_rgbf000002-resize_1-target.png,250,4.037,3.53,0,981,507,253,495,254,499,feet,,,,,1437607,1566198,27
332991,DepthScenes,duration_discrimination,discrim_jsons/d0.json,http://54.197.185.130/DepthDuration/depth_discrimination_MTurk/DepthDiscrim_HTML.html#4,4,1536,721,1536,864,6-9-2021,20-3-32,93,depth_discrimination_stimuli/002072_2014-06-24_21-48-06_260595134347_rgbf000115-resize_0/002072_2014-06-24_21-48-06_260595134347_rgbf000115-resize_0-target.png,depth_discrimination_stimuli/001012_2014-06-08_23-19-38_260595134347_rgbf000057-resize_0/001012_2014-06-08_23-19-38_260595134347_rgbf000057-resize_0-target.png,250,4.702,1.38325,1,878,509,252,495,252,500,feet,,,,,1437607,1566198,27
332991,DepthScenes,duration_discrimination,discrim_jsons/d0.json,http://54.197.185.130/DepthDuration/depth_discrimination_MTurk/DepthDiscrim_HTML.html#4,4,1536,721,1536,864,6-9-2021,20-3-32,94,depth_discrimination_stimuli/000470_2014-06-09_19-42-40_260595134347_rgbf000094-resize_1/000470_2014-06-09_19-42-40_260595134347_rgbf000094-resize_1-target.png,depth_discrimination_stimuli/000109_2014-05-14_23-41-52_260595134347_rgbf000035-resize_9/000109_2014-05-14_23-41-52_260595134347_rgbf000035-resize_9-target.png,1000,1.831,1.3545,1,1672,514,992,500,997,503,feet,,,,,1437607,1566198,27
332991,DepthScenes,duration_discrimination,discrim_jsons/d0.json,http://54.197.185.130/DepthDuration/depth_discrimination_MTurk/DepthDiscrim_HTML.html#4,4,1536,721,1536,864,6-9-2021,20-3-32,95,depth_discrimination_stimuli/001011_2014-06-08_23-18-54_260595134347_rgbf000044-resize_4/001011_2014-06-08_23-18-54_260595134347_rgbf000044-resize_4-target.png,depth_discrimination_stimuli/002678_2014-06-13_16-15-32_094959634447_rgbf000151-resize_6/002678_2014-06-13_16-15-32_094959634447_rgbf000151-resize_6-target.png,1000,2.473,2.183,1,1653,516,993,499,1008,500,feet,,,,,1437607,1566198,27
332991,DepthScenes,duration_discrimination,discrim_jsons/d0.json,http://54.197.185.130/DepthDuration/depth_discrimination_MTurk/DepthDiscrim_HTML.html#4,4,1536,721,1536,864,6-9-2021,20-3-32,96,depth_discrimination_stimuli/001032_2014-06-08_13-23-17_260595134347_rgbf000021-resize_3/001032_2014-06-08_13-23-17_260595134347_rgbf000021-resize_3-target.png,depth_discrimination_stimuli/002790_2014-06-22_19-36-35_094959634447_rgbf000074-resize_4/002790_2014-06-22_19-36-35_094959634447_rgbf000074-resize_4-target.png,1000,3.2725,3.512,0,1771,510,999,494,1019,479,feet,,,,,1437607,1566198,27
332991,DepthScenes,duration_discrimination,discrim_jsons/d0.json,http://54.197.185.130/DepthDuration/depth_discrimination_MTurk/DepthDiscrim_HTML.html#4,4,1536,721,1536,864,6-9-2021,20-3-32,96,,,,,,,1771,510,999,494,1019,479,feet,,,,,1437607,1566198,27
332991,DepthScenes,duration_discrimination,discrim_jsons/d0.json,http://54.197.185.130/DepthDuration/depth_discrimination_MTurk/DepthDiscrim_HTML.html#4,4,1519,721,1536,864,6-9-2021,20-3-32,98,,,,,,,1771,510,999,494,1019,479,feet,3,3,depth_discrimination_stimuli/000788_2014-06-08_22-34-36_260595134347_rgbf000131-resize_1/000788_2014-06-08_22-34-36_260595134347_rgbf000131-resize-original.jpg,21537,1437607,1566198,27
332991,DepthScenes,duration_discrimination,discrim_jsons/d0.json,http://54.197.185.130/DepthDuration/depth_discrimination_MTurk/DepthDiscrim_HTML.html#4,4,1519,721,1536,864,6-9-2021,20-3-32,99,,,,,,,1771,510,999,494,1019,479,feet,2,2,depth_discrimination_stimuli/001066_2014-06-08_22-03-20_260595134347_rgbf000066-resize_4/001066_2014-06-08_22-03-20_260595134347_rgbf000066-resize-original.jpg,16231,1437607,1566198,27
332991,DepthScenes,duration_discrimination,discrim_jsons/d0.json,http://54.197.185.130/DepthDuration/depth_discrimination_MTurk/DepthDiscrim_HTML.html#4,4,1519,721,1536,864,6-9-2021,20-3-32,100,,,,,,,1771,510,999,494,1019,479,feet,2,3,depth_discrimination_stimuli/000749_2014-06-08_21-55-06_260595134347_rgbf000070-resize_2/000749_2014-06-08_21-55-06_260595134347_rgbf000070-resize-original.jpg,4216,1437607,1566198,27
332991,DepthScenes,duration_discrimination,discrim_jsons/d0.json,http://54.197.185.130/DepthDuration/depth_discrimination_MTurk/DepthDiscrim_HTML.html#4,4,1519,721,1536,864,6-9-2021,20-3-32,101,,,,,,,1771,510,999,494,1019,479,feet,3,3,depth_discrimination_stimuli/003292_2014-05-14_21-53-49_094959634447_rgbf000100-resize_2/003292_2014-05-14_21-53-49_094959634447_rgbf000100-resize-original.jpg,5127,1437607,1566198,27
332991,DepthScenes,duration_discrimination,discrim_jsons/d0.json,http://54.197.185.130/DepthDuration/depth_discrimination_MTurk/DepthDiscrim_HTML.html#4,4,1519,721,1536,864,6-9-2021,20-3-32,102,,,,,,,1771,510,999,494,1019,479,feet,4,3,depth_discrimination_stimuli/003069_2014-06-15_14-57-50_094959634447_rgbf000150-resize_4/003069_2014-06-15_14-57-50_094959634447_rgbf000150-resize-original.jpg,6143,1437607,1566198,27
332991,DepthScenes,duration_discrimination,discrim_jsons/d0.json,http://54.197.185.130/DepthDuration/depth_discrimination_MTurk/DepthDiscrim_HTML.html#4,4,1519,721,1536,864,6-9-2021,20-3-32,103,,,,,,,1771,510,999,494,1019,479,feet,3,4,depth_discrimination_stimuli/002700_2014-06-22_11-27-02_094959634447_rgbf000124-resize_3/002700_2014-06-22_11-27-02_094959634447_rgbf000124-resize-original.jpg,5999,1437607,1566198,27
332991,DepthScenes,duration_discrimination,discrim_jsons/d0.json,http://54.197.185.130/DepthDuration/depth_discrimination_MTurk/DepthDiscrim_HTML.html#4,4,1519,721,1536,864,6-9-2021,20-3-32,104,,,,,,,1771,510,999,494,1019,479,feet,2,3,depth_discrimination_stimuli/000780_2014-06-08_22-28-29_260595134347_rgbf000126-resize_1/000780_2014-06-08_22-28-29_260595134347_rgbf000126-resize-original.jpg,14056,1437607,1566198,27
332991,DepthScenes,duration_discrimination,discrim_jsons/d0.json,http://54.197.185.130/DepthDuration/depth_discrimination_MTurk/DepthDiscrim_HTML.html#4,4,1519,721,1536,864,6-9-2021,20-3-32,105,,,,,,,1771,510,999,494,1019,479,feet,2,2,depth_discrimination_stimuli/000709_2014-06-08_13-51-55_260595134347_rgbf000068-resize_3/000709_2014-06-08_13-51-55_260595134347_rgbf000068-resize-original.jpg,5463,1437607,1566198,27
332991,DepthScenes,duration_discrimination,discrim_jsons/d0.json,http://54.197.185.130/DepthDuration/depth_discrimination_MTurk/DepthDiscrim_HTML.html#4,4,1519,721,1536,864,6-9-2021,20-3-32,106,,,,,,,1771,510,999,494,1019,479,feet,2,4,depth_discrimination_stimuli/002987_2014-06-08_18-48-20_094959634447_rgbf000022-resize_0/002987_2014-06-08_18-48-20_094959634447_rgbf000022-resize-original.jpg,6739,1437607,1566198,27
332991,DepthScenes,duration_discrimination,discrim_jsons/d0.json,http://54.197.185.130/DepthDuration/depth_discrimination_MTurk/DepthDiscrim_HTML.html#4,4,1519,721,1536,864,6-9-2021,20-3-32,107,,,,,,,1771,510,999,494,1019,479,feet,2,4,depth_discrimination_stimuli/002964_2014-06-08_17-46-11_094959634447_rgbf000091-resize_4/002964_2014-06-08_17-46-11_094959634447_rgbf000091-resize-original.jpg,9742,1437607,1566198,27
332991,DepthScenes,duration_discrimination,discrim_jsons/d0.json,http://54.197.185.130/DepthDuration/depth_discrimination_MTurk/DepthDiscrim_HTML.html#4,4,1519,721,1536,864,6-9-2021,20-3-32,108,,,,,,,1771,510,999,494,1019,479,feet,3,3,depth_discrimination_stimuli/002995_2014-06-15_12-31-26_094959634447_rgbf000150-resize_1/002995_2014-06-15_12-31-26_094959634447_rgbf000150-resize-original.jpg,10671,1437607,1566198,27
332991,DepthScenes,duration_discrimination,discrim_jsons/d0.json,http://54.197.185.130/DepthDuration/depth_discrimination_MTurk/DepthDiscrim_HTML.html#4,4,1519,721,1536,864,6-9-2021,20-3-32,109,,,,,,,1771,510,999,494,1019,479,feet,2,1,depth_discrimination_stimuli/001148_2014-06-17_15-26-42_260595134347_rgbf000129-resize_0/001148_2014-06-17_15-26-42_260595134347_rgbf000129-resize-original.jpg,4007,1437607,1566198,27
332991,DepthScenes,duration_discrimination,discrim_jsons/d0.json,http://54.197.185.130/DepthDuration/depth_discrimination_MTurk/DepthDiscrim_HTML.html#4,4,1519,721,1536,864,6-9-2021,20-3-32,110,,,,,,,1771,510,999,494,1019,479,feet,3,2,depth_discrimination_stimuli/003492_2014-05-21_15-50-55_094959634447_rgbf000828-resize_1/003492_2014-05-21_15-50-55_094959634447_rgbf000828-resize-original.jpg,19872,1437607,1566198,27
332991,DepthScenes,duration_discrimination,discrim_jsons/d0.json,http://54.197.185.130/DepthDuration/depth_discrimination_MTurk/DepthDiscrim_HTML.html#4,4,1519,721,1536,864,6-9-2021,20-3-32,111,,,,,,,1771,510,999,494,1019,479,feet,2,4,depth_discrimination_stimuli/002039_2014-06-24_20-22-38_260595134347_rgbf000084-resize_1/002039_2014-06-24_20-22-38_260595134347_rgbf000084-resize-original.jpg,4343,1437607,1566198,27
332991,DepthScenes,duration_discrimination,discrim_jsons/d0.json,http://54.197.185.130/DepthDuration/depth_discrimination_MTurk/DepthDiscrim_HTML.html#4,4,1519,721,1536,864,6-9-2021,20-3-32,112,,,,,,,1771,510,999,494,1019,479,feet,2,4,depth_discrimination_stimuli/000502_2014-06-08_23-02-32_260595134347_rgbf000063-resize_4/000502_2014-06-08_23-02-32_260595134347_rgbf000063-resize-original.jpg,5616,1437607,1566198,27
332991,DepthScenes,duration_discrimination,discrim_jsons/d0.json,http://54.197.185.130/DepthDuration/depth_discrimination_MTurk/DepthDiscrim_HTML.html#4,4,1519,721,1536,864,6-9-2021,20-3-32,113,,,,,,,1771,510,999,494,1019,479,feet,3,4,depth_discrimination_stimuli/002805_2014-06-22_19-54-03_094959634447_rgbf000079-resize_1/002805_2014-06-22_19-54-03_094959634447_rgbf000079-resize-original.jpg,5535,1437607,1566198,27
332991,DepthScenes,duration_discrimination,discrim_jsons/d0.json,http://54.197.185.130/DepthDuration/depth_discrimination_MTurk/DepthDiscrim_HTML.html#4,4,1519,721,1536,864,6-9-2021,20-3-32,114,,,,,,,1771,510,999,494,1019,479,feet,1,4,depth_discrimination_stimuli/002758_2014-06-22_19-11-20_094959634447_rgbf000128-resize_1/002758_2014-06-22_19-11-20_094959634447_rgbf000128-resize-original.jpg,10488,1437607,1566198,27
332991,DepthScenes,duration_discrimination,discrim_jsons/d0.json,http://54.197.185.130/DepthDuration/depth_discrimination_MTurk/DepthDiscrim_HTML.html#4,4,1519,721,1536,864,6-9-2021,20-3-32,115,,,,,,,1771,510,999,494,1019,479,feet,2,4,depth_discrimination_stimuli/002057_2014-06-24_21-00-13_260595134347_rgbf000120-resize_1/002057_2014-06-24_21-00-13_260595134347_rgbf000120-resize-original.jpg,4008,1437607,1566198,27
332991,DepthScenes,duration_discrimination,discrim_jsons/d0.json,http://54.197.185.130/DepthDuration/depth_discrimination_MTurk/DepthDiscrim_HTML.html#4,4,1519,721,1536,864,6-9-2021,20-3-32,116,,,,,,,1771,510,999,494,1019,479,feet,2,4,depth_discrimination_stimuli/001199_2014-06-17_16-03-48_260595134347_rgbf000077-resize_0/001199_2014-06-17_16-03-48_260595134347_rgbf000077-resize-original.jpg,4662,1437607,1566198,27
332991,DepthScenes,duration_discrimination,discrim_jsons/d0.json,http://54.197.185.130/DepthDuration/depth_discrimination_MTurk/DepthDiscrim_HTML.html#4,4,1519,721,1536,864,6-9-2021,20-3-32,117,,,,,,,1771,510,999,494,1019,479,feet,4,5,depth_discrimination_stimuli/001264_2014-06-16_16-10-23_260595134347_rgbf000109-resize_1/001264_2014-06-16_16-10-23_260595134347_rgbf000109-resize-original.jpg,5138,1437607,1566198,27
332991,DepthScenes,duration_discrimination,discrim_jsons/d0.json,http://54.197.185.130/DepthDuration/depth_discrimination_MTurk/DepthDiscrim_HTML.html#4,4,1519,721,1536,864,6-9-2021,20-3-32,118,,,,,,,1771,510,999,494,1019,479,feet,3,3,depth_discrimination_stimuli/000505_2014-06-08_23-03-23_260595134347_rgbf000091-resize_0/000505_2014-06-08_23-03-23_260595134347_rgbf000091-resize-original.jpg,4599,1437607,1566198,27
332991,DepthScenes,duration_discrimination,discrim_jsons/d0.json,http://54.197.185.130/DepthDuration/depth_discrimination_MTurk/DepthDiscrim_HTML.html#4,4,1519,721,1536,864,6-9-2021,20-3-32,119,,,,,,,1771,510,999,494,1019,479,feet,2,2,depth_discrimination_stimuli/000665_2014-06-09_20-42-35_260595134347_rgbf000110-resize_1/000665_2014-06-09_20-42-35_260595134347_rgbf000110-resize-original.jpg,4328,1437607,1566198,27
332991,DepthScenes,duration_discrimination,discrim_jsons/d0.json,http://54.197.185.130/DepthDuration/depth_discrimination_MTurk/DepthDiscrim_HTML.html#4,4,1519,721,1536,864,6-9-2021,20-3-32,120,,,,,,,1771,510,999,494,1019,479,feet,4,5,depth_discrimination_stimuli/002118_2014-06-25_20-32-08_260595134347_rgbf000078-resize_1/002118_2014-06-25_20-32-08_260595134347_rgbf000078-resize-original.jpg,9658,1437607,1566198,27
332991,DepthScenes,duration_discrimination,discrim_jsons/d0.json,http://54.197.185.130/DepthDuration/depth_discrimination_MTurk/DepthDiscrim_HTML.html#4,4,1519,721,1536,864,6-9-2021,20-3-32,121,,,,,,,1771,510,999,494,1019,479,feet,3,3,depth_discrimination_stimuli/002600_2014-06-24_14-27-04_094959634447_rgbf000074-resize_2/002600_2014-06-24_14-27-04_094959634447_rgbf000074-resize-original.jpg,5934,1437607,1566198,27
332991,DepthScenes,duration_discrimination,discrim_jsons/d0.json,http://54.197.185.130/DepthDuration/depth_discrimination_MTurk/DepthDiscrim_HTML.html#4,4,1519,721,1536,864,6-9-2021,20-3-32,122,,,,,,,1771,510,999,494,1019,479,feet,4,4,depth_discrimination_stimuli/002425_2014-06-28_20-27-29_260595134347_rgbf000031-resize_8/002425_2014-06-28_20-27-29_260595134347_rgbf000031-resize-original.jpg,4959,1437607,1566198,27
332991,DepthScenes,duration_discrimination,discrim_jsons/d0.json,http://54.197.185.130/DepthDuration/depth_discrimination_MTurk/DepthDiscrim_HTML.html#4,4,1519,721,1536,864,6-9-2021,20-3-32,123,,,,,,,1771,510,999,494,1019,479,feet,2,4,depth_discrimination_stimuli/003534_2014-05-22_15-06-10_094959634447_rgbf000102-resize_4/003534_2014-05-22_15-06-10_094959634447_rgbf000102-resize-original.jpg,2856,1437607,1566198,27
332991,DepthScenes,duration_discrimination,discrim_jsons/d0.json,http://54.197.185.130/DepthDuration/depth_discrimination_MTurk/DepthDiscrim_HTML.html#4,4,1519,721,1536,864,6-9-2021,20-3-32,124,,,,,,,1771,510,999,494,1019,479,feet,2,4,depth_discrimination_stimuli/001555_2014-06-20_17-12-10_260595134347_rgbf000065-resize_4/001555_2014-06-20_17-12-10_260595134347_rgbf000065-resize-original.jpg,4039,1437607,1566198,27
332991,DepthScenes,duration_discrimination,discrim_jsons/d0.json,http://54.197.185.130/DepthDuration/depth_discrimination_MTurk/DepthDiscrim_HTML.html#4,4,1519,721,1536,864,6-9-2021,20-3-32,125,,,,,,,1771,510,999,494,1019,479,feet,3,4,depth_discrimination_stimuli/000483_2014-06-09_20-41-45_260595134347_rgbf000116-resize_4/000483_2014-06-09_20-41-45_260595134347_rgbf000116-resize-original.jpg,3721,1437607,1566198,27
332991,DepthScenes,duration_discrimination,discrim_jsons/d0.json,http://54.197.185.130/DepthDuration/depth_discrimination_MTurk/DepthDiscrim_HTML.html#4,4,1519,721,1536,864,6-9-2021,20-3-32,126,,,,,,,1771,510,999,494,1019,479,feet,2,3,depth_discrimination_stimuli/001059_2014-06-08_21-53-27_260595134347_rgbf000061-resize_4/001059_2014-06-08_21-53-27_260595134347_rgbf000061-resize-original.jpg,2824,1437607,1566198,27
332991,DepthScenes,duration_discrimination,discrim_jsons/d0.json,http://54.197.185.130/DepthDuration/depth_discrimination_MTurk/DepthDiscrim_HTML.html#4,4,1519,721,1536,864,6-9-2021,20-3-32,127,,,,,,,1771,510,999,494,1019,479,feet,2,4,depth_discrimination_stimuli/000414_2014-06-04_19-49-13_260595134347_rgbf000044-resize_0/000414_2014-06-04_19-49-13_260595134347_rgbf000044-resize-original.jpg,2823,1437607,1566198,27
332991,DepthScenes,duration_discrimination,discrim_jsons/d0.json,http://54.197.185.130/DepthDuration/depth_discrimination_MTurk/DepthDiscrim_HTML.html#4,4,1519,721,1536,864,6-9-2021,20-3-32,128,,,,,,,1771,510,999,494,1019,479,feet,3,4,depth_discrimination_stimuli/003546_2014-05-22_15-48-53_094959634447_rgbf004816-resize_3/003546_2014-05-22_15-48-53_094959634447_rgbf004816-resize-original.jpg,2615,1437607,1566198,27
332991,DepthScenes,duration_discrimination,discrim_jsons/d0.json,http://54.197.185.130/DepthDuration/depth_discrimination_MTurk/DepthDiscrim_HTML.html#4,4,1519,721,1536,864,6-9-2021,20-3-32,129,,,,,,,1771,510,999,494,1019,479,feet,4,4,depth_discrimination_stimuli/001447_2014-06-19_17-00-32_260595134347_rgbf000082-resize_5/001447_2014-06-19_17-00-32_260595134347_rgbf000082-resize-original.jpg,6103,1437607,1566198,27
332991,DepthScenes,duration_discrimination,discrim_jsons/d0.json,http://54.197.185.130/DepthDuration/depth_discrimination_MTurk/DepthDiscrim_HTML.html#4,4,1519,721,1536,864,6-9-2021,20-3-32,130,,,,,,,1771,510,999,494,1019,479,feet,2,5,depth_discrimination_stimuli/002663_2014-06-13_15-50-26_094959634447_rgbf000075-resize_1/002663_2014-06-13_15-50-26_094959634447_rgbf000075-resize-original.jpg,5264,1437607,1566198,27
332991,DepthScenes,duration_discrimination,discrim_jsons/d0.json,http://54.197.185.130/DepthDuration/depth_discrimination_MTurk/DepthDiscrim_HTML.html#4,4,1519,721,1536,864,6-9-2021,20-3-32,131,,,,,,,1771,510,999,494,1019,479,feet,2,3,depth_discrimination_stimuli/000917_2014-06-09_22-45-29_260595134347_rgbf000149-resize_3/000917_2014-06-09_22-45-29_260595134347_rgbf000149-resize-original.jpg,4480,1437607,1566198,27
332991,DepthScenes,duration_discrimination,discrim_jsons/d0.json,http://54.197.185.130/DepthDuration/depth_discrimination_MTurk/DepthDiscrim_HTML.html#4,4,1519,721,1536,864,6-9-2021,20-3-32,132,,,,,,,1771,510,999,494,1019,479,feet,2,4,depth_discrimination_stimuli/003288_2014-05-14_21-50-30_094959634447_rgbf000028-resize_3/003288_2014-05-14_21-50-30_094959634447_rgbf000028-resize-original.jpg,3344,1437607,1566198,27
332991,DepthScenes,duration_discrimination,discrim_jsons/d0.json,http://54.197.185.130/DepthDuration/depth_discrimination_MTurk/DepthDiscrim_HTML.html#4,4,1519,721,1536,864,6-9-2021,20-3-32,133,,,,,,,1771,510,999,494,1019,479,feet,2,2,depth_discrimination_stimuli/000734_2014-06-08_17-39-11_260595134347_rgbf000128-resize_2/000734_2014-06-08_17-39-11_260595134347_rgbf000128-resize-original.jpg,3431,1437607,1566198,27
332991,DepthScenes,duration_discrimination,discrim_jsons/d0.json,http://54.197.185.130/DepthDuration/depth_discrimination_MTurk/DepthDiscrim_HTML.html#4,4,1519,721,1536,864,6-9-2021,20-3-32,134,,,,,,,1771,510,999,494,1019,479,feet,4,5,depth_discrimination_stimuli/001650_2014-06-20_12-09-00_260595134347_rgbf000087-resize_3/001650_2014-06-20_12-09-00_260595134347_rgbf000087-resize-original.jpg,6511,1437607,1566198,27
332991,DepthScenes,duration_discrimination,discrim_jsons/d0.json,http://54.197.185.130/DepthDuration/depth_discrimination_MTurk/DepthDiscrim_HTML.html#4,4,1519,721,1536,864,6-9-2021,20-3-32,135,,,,,,,1771,510,999,494,1019,479,feet,5,3,depth_discrimination_stimuli/002414_2014-06-28_20-24-58_260595134347_rgbf000067-resize_4/002414_2014-06-28_20-24-58_260595134347_rgbf000067-resize-original.jpg,2448,1437607,1566198,27
332991,DepthScenes,duration_discrimination,discrim_jsons/d0.json,http://54.197.185.130/DepthDuration/depth_discrimination_MTurk/DepthDiscrim_HTML.html#4,4,1519,721,1536,864,6-9-2021,20-3-32,136,,,,,,,1771,510,999,494,1019,479,feet,5,5,scene_property_catch_stimuli/sun_aoquhiddlfqapdlz.jpg,6673,1437607,1566198,27
332991,DepthScenes,duration_discrimination,discrim_jsons/d0.json,http://54.197.185.130/DepthDuration/depth_discrimination_MTurk/DepthDiscrim_HTML.html#4,4,1519,721,1536,864,6-9-2021,20-3-32,137,,,,,,,1771,510,999,494,1019,479,feet,5,3,depth_discrimination_stimuli/002375_2014-06-28_20-13-44_260595134347_rgbf000032-resize_1/002375_2014-06-28_20-13-44_260595134347_rgbf000032-resize-original.jpg,5439,1437607,1566198,27
332991,DepthScenes,duration_discrimination,discrim_jsons/d0.json,http://54.197.185.130/DepthDuration/depth_discrimination_MTurk/DepthDiscrim_HTML.html#4,4,1519,721,1536,864,6-9-2021,20-3-32,138,,,,,,,1771,510,999,494,1019,479,feet,3,4,depth_discrimination_stimuli/000735_2014-06-08_18-23-50_260595134347_rgbf000163-resize_2/000735_2014-06-08_18-23-50_260595134347_rgbf000163-resize-original.jpg,4080,1437607,1566198,27
332991,DepthScenes,duration_discrimination,discrim_jsons/d0.json,http://54.197.185.130/DepthDuration/depth_discrimination_MTurk/DepthDiscrim_HTML.html#4,4,1519,721,1536,864,6-9-2021,20-3-32,139,,,,,,,1771,510,999,494,1019,479,feet,2,3,depth_discrimination_stimuli/002988_2014-06-15_12-24-20_094959634447_rgbf000150-resize_1/002988_2014-06-15_12-24-20_094959634447_rgbf000150-resize-original.jpg,5568,1437607,1566198,27
332991,DepthScenes,duration_discrimination,discrim_jsons/d0.json,http://54.197.185.130/DepthDuration/depth_discrimination_MTurk/DepthDiscrim_HTML.html#4,4,1519,721,1536,864,6-9-2021,20-3-32,140,,,,,,,1771,510,999,494,1019,479,feet,3,3,depth_discrimination_stimuli/000506_2014-06-08_23-21-00_260595134347_rgbf000070-resize_7/000506_2014-06-08_23-21-00_260595134347_rgbf000070-resize-original.jpg,4056,1437607,1566198,27
332991,DepthScenes,duration_discrimination,discrim_jsons/d0.json,http://54.197.185.130/DepthDuration/depth_discrimination_MTurk/DepthDiscrim_HTML.html#4,4,1519,721,1536,864,6-9-2021,20-3-32,141,,,,,,,1771,510,999,494,1019,479,feet,2,5,depth_discrimination_stimuli/003079_2014-06-15_15-18-20_094959634447_rgbf000152-resize_8/003079_2014-06-15_15-18-20_094959634447_rgbf000152-resize-original.jpg,4362,1437607,1566198,27
332991,DepthScenes,duration_discrimination,discrim_jsons/d0.json,http://54.197.185.130/DepthDuration/depth_discrimination_MTurk/DepthDiscrim_HTML.html#4,4,1519,721,1536,864,6-9-2021,20-3-32,142,,,,,,,1771,510,999,494,1019,479,feet,4,4,depth_discrimination_stimuli/000486_2014-06-09_20-47-20_260595134347_rgbf000143-resize_2/000486_2014-06-09_20-47-20_260595134347_rgbf000143-resize-original.jpg,4501,1437607,1566198,27
332991,DepthScenes,duration_discrimination,discrim_jsons/d0.json,http://54.197.185.130/DepthDuration/depth_discrimination_MTurk/DepthDiscrim_HTML.html#4,4,1519,721,1536,864,6-9-2021,20-3-32,143,,,,,,,1771,510,999,494,1019,479,feet,4,4,depth_discrimination_stimuli/002875_2014-06-01_15-19-00_094959634447_rgbf000151-resize_1/002875_2014-06-01_15-19-00_094959634447_rgbf000151-resize-original.jpg,6280,1437607,1566198,27
332991,DepthScenes,duration_discrimination,discrim_jsons/d0.json,http://54.197.185.130/DepthDuration/depth_discrimination_MTurk/DepthDiscrim_HTML.html#4,4,1519,721,1536,864,6-9-2021,20-3-32,144,,,,,,,1771,510,999,494,1019,479,feet,2,4,depth_discrimination_stimuli/002953_2014-06-08_17-32-18_094959634447_rgbf000059-resize_5/002953_2014-06-08_17-32-18_094959634447_rgbf000059-resize-original.jpg,5032,1437607,1566198,27
332991,DepthScenes,duration_discrimination,discrim_jsons/d0.json,http://54.197.185.130/DepthDuration/depth_discrimination_MTurk/DepthDiscrim_HTML.html#4,4,1519,721,1536,864,6-9-2021,20-3-32,145,,,,,,,1771,510,999,494,1019,479,feet,4,4,depth_discrimination_stimuli/002570_2014-06-24_13-59-54_094959634447_rgbf000059-resize_0/002570_2014-06-24_13-59-54_094959634447_rgbf000059-resize-original.jpg,5482,1437607,1566198,27
332991,DepthScenes,duration_discrimination,discrim_jsons/d0.json,http://54.197.185.130/DepthDuration/depth_discrimination_MTurk/DepthDiscrim_HTML.html#4,4,1519,721,1536,864,6-9-2021,20-3-32,146,,,,,,,1771,510,999,494,1019,479,feet,1,3,depth_discrimination_stimuli/002579_2014-06-24_14-08-03_094959634447_rgbf000061-resize_2/002579_2014-06-24_14-08-03_094959634447_rgbf000061-resize-original.jpg,3493,1437607,1566198,27
332991,DepthScenes,duration_discrimination,discrim_jsons/d0.json,http://54.197.185.130/DepthDuration/depth_discrimination_MTurk/DepthDiscrim_HTML.html#4,4,1519,721,1536,864,6-9-2021,20-3-32,147,,,,,,,1771,510,999,494,1019,479,feet,2,2,depth_discrimination_stimuli/002788_2014-06-22_19-36-03_094959634447_rgbf000088-resize_2/002788_2014-06-22_19-36-03_094959634447_rgbf000088-resize-original.jpg,1761,1437607,1566198,27
332991,DepthScenes,duration_discrimination,discrim_jsons/d0.json,http://54.197.185.130/DepthDuration/depth_discrimination_MTurk/DepthDiscrim_HTML.html#4,4,1519,721,1536,864,6-9-2021,20-3-32,148,,,,,,,1771,510,999,494,1019,479,feet,2,4,depth_discrimination_stimuli/002445_2014-06-28_20-32-16_260595134347_rgbf000029-resize_4/002445_2014-06-28_20-32-16_260595134347_rgbf000029-resize-original.jpg,3679,1437607,1566198,27
332991,DepthScenes,duration_discrimination,discrim_jsons/d0.json,http://54.197.185.130/DepthDuration/depth_discrimination_MTurk/DepthDiscrim_HTML.html#4,4,1519,721,1536,864,6-9-2021,20-3-32,149,,,,,,,1771,510,999,494,1019,479,feet,4,4,depth_discrimination_stimuli/001449_2014-06-19_17-01-27_260595134347_rgbf000116-resize_2/001449_2014-06-19_17-01-27_260595134347_rgbf000116-resize-original.jpg,5536,1437607,1566198,27
332991,DepthScenes,duration_discrimination,discrim_jsons/d0.json,http://54.197.185.130/DepthDuration/depth_discrimination_MTurk/DepthDiscrim_HTML.html#4,4,1519,721,1536,864,6-9-2021,20-3-32,150,,,,,,,1771,510,999,494,1019,479,feet,3,3,depth_discrimination_stimuli/001052_2014-06-08_18-24-54_260595134347_rgbf000130-resize_1/001052_2014-06-08_18-24-54_260595134347_rgbf000130-resize-original.jpg,32120,1437607,1566198,27
332991,DepthScenes,duration_discrimination,discrim_jsons/d0.json,http://54.197.185.130/DepthDuration/depth_discrimination_MTurk/DepthDiscrim_HTML.html#4,4,1519,721,1536,864,6-9-2021,20-3-32,151,,,,,,,1771,510,999,494,1019,479,feet,2,4,depth_discrimination_stimuli/002949_2014-06-26_15-57-42_094959634447_rgbf000079-resize_1/002949_2014-06-26_15-57-42_094959634447_rgbf000079-resize-original.jpg,14992,1437607,1566198,27
332991,DepthScenes,duration_discrimination,discrim_jsons/d0.json,http://54.197.185.130/DepthDuration/depth_discrimination_MTurk/DepthDiscrim_HTML.html#4,4,1519,721,1536,864,6-9-2021,20-3-32,152,,,,,,,1771,510,999,494,1019,479,feet,2,4,depth_discrimination_stimuli/000691_2014-06-08_13-08-50_260595134347_rgbf000132-resize_3/000691_2014-06-08_13-08-50_260595134347_rgbf000132-resize-original.jpg,15895,1437607,1566198,27
332991,DepthScenes,duration_discrimination,discrim_jsons/d0.json,http://54.197.185.130/DepthDuration/depth_discrimination_MTurk/DepthDiscrim_HTML.html#4,4,1519,721,1536,864,6-9-2021,20-3-32,153,,,,,,,1771,510,999,494,1019,479,feet,1,4,depth_discrimination_stimuli/002725_2014-06-22_11-47-51_094959634447_rgbf000070-resize_1/002725_2014-06-22_11-47-51_094959634447_rgbf000070-resize-original.jpg,8047,1437607,1566198,27
332991,DepthScenes,duration_discrimination,discrim_jsons/d0.json,http://54.197.185.130/DepthDuration/depth_discrimination_MTurk/DepthDiscrim_HTML.html#4,4,1519,721,1536,864,6-9-2021,20-3-32,154,,,,,,,1771,510,999,494,1019,479,feet,4,5,depth_discrimination_stimuli/001570_2014-06-20_17-21-09_260595134347_rgbf000135-resize_4/001570_2014-06-20_17-21-09_260595134347_rgbf000135-resize-original.jpg,6505,1437607,1566198,27
332991,DepthScenes,duration_discrimination,discrim_jsons/d0.json,http://54.197.185.130/DepthDuration/depth_discrimination_MTurk/DepthDiscrim_HTML.html#4,4,1519,721,1536,864,6-9-2021,20-3-32,155,,,,,,,1771,510,999,494,1019,479,feet,2,4,depth_discrimination_stimuli/000753_2014-06-08_21-57-44_260595134347_rgbf000123-resize_3/000753_2014-06-08_21-57-44_260595134347_rgbf000123-resize-original.jpg,3399,1437607,1566198,27
332991,DepthScenes,duration_discrimination,discrim_jsons/d0.json,http://54.197.185.130/DepthDuration/depth_discrimination_MTurk/DepthDiscrim_HTML.html#4,4,1519,721,1536,864,6-9-2021,20-3-32,156,,,,,,,1771,510,999,494,1019,479,feet,2,4,depth_discrimination_stimuli/003048_2014-06-15_13-49-43_094959634447_rgbf000150-resize_1/003048_2014-06-15_13-49-43_094959634447_rgbf000150-resize-original.jpg,5039,1437607,1566198,27
332991,DepthScenes,duration_discrimination,discrim_jsons/d0.json,http://54.197.185.130/DepthDuration/depth_discrimination_MTurk/DepthDiscrim_HTML.html#4,4,1519,721,1536,864,6-9-2021,20-3-32,157,,,,,,,1771,510,999,494,1019,479,feet,3,5,depth_discrimination_stimuli/002748_2014-06-22_19-07-22_094959634447_rgbf000078-resize_1/002748_2014-06-22_19-07-22_094959634447_rgbf000078-resize-original.jpg,10984,1437607,1566198,27
332991,DepthScenes,duration_discrimination,discrim_jsons/d0.json,http://54.197.185.130/DepthDuration/depth_discrimination_MTurk/DepthDiscrim_HTML.html#4,4,1519,721,1536,864,6-9-2021,20-3-32,158,,,,,,,1771,510,999,494,1019,479,feet,2,3,depth_discrimination_stimuli/000636_2014-06-08_16-39-02_260595134347_rgbf000108-resize_4/000636_2014-06-08_16-39-02_260595134347_rgbf000108-resize-original.jpg,4288,1437607,1566198,27
332991,DepthScenes,duration_discrimination,discrim_jsons/d0.json,http://54.197.185.130/DepthDuration/depth_discrimination_MTurk/DepthDiscrim_HTML.html#4,4,1519,721,1536,864,6-9-2021,20-3-32,159,,,,,,,1771,510,999,494,1019,479,feet,4,2,depth_discrimination_stimuli/002460_2014-06-28_20-35-43_260595134347_rgbf000028-resize_4/002460_2014-06-28_20-35-43_260595134347_rgbf000028-resize-original.jpg,4552,1437607,1566198,27
332991,DepthScenes,duration_discrimination,discrim_jsons/d0.json,http://54.197.185.130/DepthDuration/depth_discrimination_MTurk/DepthDiscrim_HTML.html#4,4,1519,721,1536,864,6-9-2021,20-3-32,160,,,,,,,1771,510,999,494,1019,479,feet,3,2,depth_discrimination_stimuli/000677_2014-06-08_23-10-32_260595134347_rgbf000158-resize_6/000677_2014-06-08_23-10-32_260595134347_rgbf000158-resize-original.jpg,4991,1437607,1566198,27
332991,DepthScenes,duration_discrimination,discrim_jsons/d0.json,http://54.197.185.130/DepthDuration/depth_discrimination_MTurk/DepthDiscrim_HTML.html#4,4,1519,721,1536,864,6-9-2021,20-3-32,161,,,,,,,1771,510,999,494,1019,479,feet,4,2,depth_discrimination_stimuli/002199_2014-06-28_18-33-56_260595134347_rgbf000074-resize_0/002199_2014-06-28_18-33-56_260595134347_rgbf000074-resize-original.jpg,3928,1437607,1566198,27
332991,DepthScenes,duration_discrimination,discrim_jsons/d0.json,http://54.197.185.130/DepthDuration/depth_discrimination_MTurk/DepthDiscrim_HTML.html#4,4,1519,721,1536,864,6-9-2021,20-3-32,162,,,,,,,1771,510,999,494,1019,479,feet,2,5,depth_discrimination_stimuli/001188_2014-06-17_15-54-10_260595134347_rgbf000090-resize_2/001188_2014-06-17_15-54-10_260595134347_rgbf000090-resize-original.jpg,9584,1437607,1566198,27
332991,DepthScenes,duration_discrimination,discrim_jsons/d0.json,http://54.197.185.130/DepthDuration/depth_discrimination_MTurk/DepthDiscrim_HTML.html#4,4,1519,721,1536,864,6-9-2021,20-3-32,163,,,,,,,1771,510,999,494,1019,479,feet,3,4,depth_discrimination_stimuli/000555_2014-06-09_22-42-23_260595134347_rgbf000037-resize_4/000555_2014-06-09_22-42-23_260595134347_rgbf000037-resize-original.jpg,3335,1437607,1566198,27
332991,DepthScenes,duration_discrimination,discrim_jsons/d0.json,http://54.197.185.130/DepthDuration/depth_discrimination_MTurk/DepthDiscrim_HTML.html#4,4,1519,721,1536,864,6-9-2021,20-3-32,164,,,,,,,1771,510,999,494,1019,479,feet,1,4,depth_discrimination_stimuli/000869_2014-06-09_20-50-18_260595134347_rgbf000060-resize_3/000869_2014-06-09_20-50-18_260595134347_rgbf000060-resize-original.jpg,9672,1437607,1566198,27
332991,DepthScenes,duration_discrimination,discrim_jsons/d0.json,http://54.197.185.130/DepthDuration/depth_discrimination_MTurk/DepthDiscrim_HTML.html#4,4,1519,721,1536,864,6-9-2021,20-3-32,165,,,,,,,1771,510,999,494,1019,479,feet,3,2,depth_discrimination_stimuli/002467_2014-06-28_20-38-07_260595134347_rgbf000026-resize_2/002467_2014-06-28_20-38-07_260595134347_rgbf000026-resize-original.jpg,7272,1437607,1566198,27
332991,DepthScenes,duration_discrimination,discrim_jsons/d0.json,http://54.197.185.130/DepthDuration/depth_discrimination_MTurk/DepthDiscrim_HTML.html#4,4,1519,721,1536,864,6-9-2021,20-3-32,166,,,,,,,1771,510,999,494,1019,479,feet,2,4,depth_discrimination_stimuli/000739_2014-06-08_18-45-58_260595134347_rgbf000068-resize_1/000739_2014-06-08_18-45-58_260595134347_rgbf000068-resize-original.jpg,3184,1437607,1566198,27
332991,DepthScenes,duration_discrimination,discrim_jsons/d0.json,http://54.197.185.130/DepthDuration/depth_discrimination_MTurk/DepthDiscrim_HTML.html#4,4,1519,721,1536,864,6-9-2021,20-3-32,167,,,,,,,1771,510,999,494,1019,479,feet,3,4,depth_discrimination_stimuli/001584_2014-06-20_11-07-43_260595134347_rgbf000002-resize_1/001584_2014-06-20_11-07-43_260595134347_rgbf000002-resize-original.jpg,2911,1437607,1566198,27
332991,DepthScenes,duration_discrimination,discrim_jsons/d0.json,http://54.197.185.130/DepthDuration/depth_discrimination_MTurk/DepthDiscrim_HTML.html#4,4,1519,721,1536,864,6-9-2021,20-3-32,168,,,,,,,1771,510,999,494,1019,479,feet,2,3,depth_discrimination_stimuli/001532_2014-06-20_16-50-41_260595134347_rgbf000081-resize_4/001532_2014-06-20_16-50-41_260595134347_rgbf000081-resize-original.jpg,2896,1437607,1566198,27
332991,DepthScenes,duration_discrimination,discrim_jsons/d0.json,http://54.197.185.130/DepthDuration/depth_discrimination_MTurk/DepthDiscrim_HTML.html#4,4,1519,721,1536,864,6-9-2021,20-3-32,169,,,,,,,1771,510,999,494,1019,479,feet,3,3,depth_discrimination_stimuli/002444_2014-06-28_20-32-08_260595134347_rgbf000027-resize_0/002444_2014-06-28_20-32-08_260595134347_rgbf000027-resize-original.jpg,3334,1437607,1566198,27
332991,DepthScenes,duration_discrimination,discrim_jsons/d0.json,http://54.197.185.130/DepthDuration/depth_discrimination_MTurk/DepthDiscrim_HTML.html#4,4,1519,721,1536,864,6-9-2021,20-3-32,170,,,,,,,1771,510,999,494,1019,479,feet,1,3,depth_discrimination_stimuli/001516_2014-06-20_16-25-09_260595134347_rgbf000076-resize_2/001516_2014-06-20_16-25-09_260595134347_rgbf000076-resize-original.jpg,2921,1437607,1566198,27
332991,DepthScenes,duration_discrimination,discrim_jsons/d0.json,http://54.197.185.130/DepthDuration/depth_discrimination_MTurk/DepthDiscrim_HTML.html#4,4,1519,721,1536,864,6-9-2021,20-3-32,171,,,,,,,1771,510,999,494,1019,479,feet,2,2,depth_discrimination_stimuli/000878_2014-06-08_22-52-45_260595134347_rgbf000045-resize_2/000878_2014-06-08_22-52-45_260595134347_rgbf000045-resize-original.jpg,13816,1437607,1566198,27
332991,DepthScenes,duration_discrimination,discrim_jsons/d0.json,http://54.197.185.130/DepthDuration/depth_discrimination_MTurk/DepthDiscrim_HTML.html#4,4,1519,721,1536,864,6-9-2021,20-3-32,172,,,,,,,1771,510,999,494,1019,479,feet,2,3,depth_discrimination_stimuli/001094_2014-06-15_17-36-00_260595134347_rgbf000205-resize_0/001094_2014-06-15_17-36-00_260595134347_rgbf000205-resize-original.jpg,12256,1437607,1566198,27
332991,DepthScenes,duration_discrimination,discrim_jsons/d0.json,http://54.197.185.130/DepthDuration/depth_discrimination_MTurk/DepthDiscrim_HTML.html#4,4,1519,721,1536,864,6-9-2021,20-3-32,173,,,,,,,1771,510,999,494,1019,479,feet,2,5,depth_discrimination_stimuli/002784_2014-06-22_19-26-30_094959634447_rgbf000083-resize_3/002784_2014-06-22_19-26-30_094959634447_rgbf000083-resize-original.jpg,5353,1437607,1566198,27
332991,DepthScenes,duration_discrimination,discrim_jsons/d0.json,http://54.197.185.130/DepthDuration/depth_discrimination_MTurk/DepthDiscrim_HTML.html#4,4,1519,721,1536,864,6-9-2021,20-3-32,174,,,,,,,1771,510,999,494,1019,479,feet,3,3,depth_discrimination_stimuli/001618_2014-06-20_11-37-31_260595134347_rgbf000027-resize_3/001618_2014-06-20_11-37-31_260595134347_rgbf000027-resize-original.jpg,4888,1437607,1566198,27
332991,DepthScenes,duration_discrimination,discrim_jsons/d0.json,http://54.197.185.130/DepthDuration/depth_discrimination_MTurk/DepthDiscrim_HTML.html#4,4,1519,721,1536,864,6-9-2021,20-3-32,175,,,,,,,1771,510,999,494,1019,479,feet,2,3,depth_discrimination_stimuli/000109_2014-05-14_23-41-52_260595134347_rgbf000035-resize_9/000109_2014-05-14_23-41-52_260595134347_rgbf000035-resize-original.jpg,5632,1437607,1566198,27
332991,DepthScenes,duration_discrimination,discrim_jsons/d0.json,http://54.197.185.130/DepthDuration/depth_discrimination_MTurk/DepthDiscrim_HTML.html#4,4,1519,721,1536,864,6-9-2021,20-3-32,176,,,,,,,1771,510,999,494,1019,479,feet,4,3,depth_discrimination_stimuli/001056_2014-06-08_18-46-44_260595134347_rgbf000068-resize_0/001056_2014-06-08_18-46-44_260595134347_rgbf000068-resize-original.jpg,4239,1437607,1566198,27
332991,DepthScenes,duration_discrimination,discrim_jsons/d0.json,http://54.197.185.130/DepthDuration/depth_discrimination_MTurk/DepthDiscrim_HTML.html#4,4,1519,721,1536,864,6-9-2021,20-3-32,177,,,,,,,1771,510,999,494,1019,479,feet,3,3,depth_discrimination_stimuli/000469_2014-06-09_19-42-10_260595134347_rgbf000081-resize_1/000469_2014-06-09_19-42-10_260595134347_rgbf000081-resize-original.jpg,2624,1437607,1566198,27
332991,DepthScenes,duration_discrimination,discrim_jsons/d0.json,http://54.197.185.130/DepthDuration/depth_discrimination_MTurk/DepthDiscrim_HTML.html#4,4,1519,721,1536,864,6-9-2021,20-3-32,178,,,,,,,1771,510,999,494,1019,479,feet,2,4,depth_discrimination_stimuli/000635_2014-06-08_16-38-42_260595134347_rgbf000106-resize_1/000635_2014-06-08_16-38-42_260595134347_rgbf000106-resize-original.jpg,5552,1437607,1566198,27
332991,DepthScenes,duration_discrimination,discrim_jsons/d0.json,http://54.197.185.130/DepthDuration/depth_discrimination_MTurk/DepthDiscrim_HTML.html#4,4,1519,721,1536,864,6-9-2021,20-3-32,179,,,,,,,1771,510,999,494,1019,479,feet,3,4,depth_discrimination_stimuli/000720_2014-06-08_18-37-27_260595134347_rgbf000203-resize_4/000720_2014-06-08_18-37-27_260595134347_rgbf000203-resize-original.jpg,6448,1437607,1566198,27
332991,DepthScenes,duration_discrimination,discrim_jsons/d0.json,http://54.197.185.130/DepthDuration/depth_discrimination_MTurk/DepthDiscrim_HTML.html#4,4,1519,721,1536,864,6-9-2021,20-3-32,180,,,,,,,1771,510,999,494,1019,479,feet,2,3,depth_discrimination_stimuli/001016_2014-06-09_16-16-10_260595134347_rgbf000112-resize_5/001016_2014-06-09_16-16-10_260595134347_rgbf000112-resize-original.jpg,6127,1437607,1566198,27
332991,DepthScenes,duration_discrimination,discrim_jsons/d0.json,http://54.197.185.130/DepthDuration/depth_discrimination_MTurk/DepthDiscrim_HTML.html#4,4,1519,721,1536,864,6-9-2021,20-3-32,181,,,,,,,1771,510,999,494,1019,479,feet,3,3,depth_discrimination_stimuli/002660_2014-06-13_15-44-18_094959634447_rgbf001878-resize_2/002660_2014-06-13_15-44-18_094959634447_rgbf001878-resize-original.jpg,4896,1437607,1566198,27
332991,DepthScenes,duration_discrimination,discrim_jsons/d0.json,http://54.197.185.130/DepthDuration/depth_discrimination_MTurk/DepthDiscrim_HTML.html#4,4,1519,721,1536,864,6-9-2021,20-3-32,182,,,,,,,1771,510,999,494,1019,479,feet,3,4,depth_discrimination_stimuli/000927_2014-06-09_16-32-30_260595134347_rgbf000123-resize_3/000927_2014-06-09_16-32-30_260595134347_rgbf000123-resize-original.jpg,4640,1437607,1566198,27
332991,DepthScenes,duration_discrimination,discrim_jsons/d0.json,http://54.197.185.130/DepthDuration/depth_discrimination_MTurk/DepthDiscrim_HTML.html#4,4,1519,721,1536,864,6-9-2021,20-3-32,183,,,,,,,1771,510,999,494,1019,479,feet,4,3,depth_discrimination_stimuli/003490_2014-05-21_15-50-11_094959634447_rgbf000101-resize_3/003490_2014-05-21_15-50-11_094959634447_rgbf000101-resize-original.jpg,3416,1437607,1566198,27
332991,DepthScenes,duration_discrimination,discrim_jsons/d0.json,http://54.197.185.130/DepthDuration/depth_discrimination_MTurk/DepthDiscrim_HTML.html#4,4,1519,721,1536,864,6-9-2021,20-3-32,184,,,,,,,1771,510,999,494,1019,479,feet,5,4,depth_discrimination_stimuli/002468_2014-06-28_20-38-39_260595134347_rgbf000045-resize_1/002468_2014-06-28_20-38-39_260595134347_rgbf000045-resize-original.jpg,11623,1437607,1566198,27
332991,DepthScenes,duration_discrimination,discrim_jsons/d0.json,http://54.197.185.130/DepthDuration/depth_discrimination_MTurk/DepthDiscrim_HTML.html#4,4,1519,721,1536,864,6-9-2021,20-3-32,185,,,,,,,1771,510,999,494,1019,479,feet,2,3,depth_discrimination_stimuli/001450_2014-06-19_17-02-03_260595134347_rgbf000203-resize_4/001450_2014-06-19_17-02-03_260595134347_rgbf000203-resize-original.jpg,4633,1437607,1566198,27
332991,DepthScenes,duration_discrimination,discrim_jsons/d0.json,http://54.197.185.130/DepthDuration/depth_discrimination_MTurk/DepthDiscrim_HTML.html#4,4,1519,721,1536,864,6-9-2021,20-3-32,186,,,,,,,1771,510,999,494,1019,479,feet,3,3,depth_discrimination_stimuli/003070_2014-06-15_14-58-27_094959634447_rgbf000150-resize_3/003070_2014-06-15_14-58-27_094959634447_rgbf000150-resize-original.jpg,3207,1437607,1566198,27
332991,DepthScenes,duration_discrimination,discrim_jsons/d0.json,http://54.197.185.130/DepthDuration/depth_discrimination_MTurk/DepthDiscrim_HTML.html#4,4,1519,721,1536,864,6-9-2021,20-3-32,187,,,,,,,1771,510,999,494,1019,479,feet,5,5,depth_discrimination_stimuli/001724_2014-06-26_19-28-50_260595134347_rgbf000037-resize_7/001724_2014-06-26_19-28-50_260595134347_rgbf000037-resize-original.jpg,2746,1437607,1566198,27
332991,DepthScenes,duration_discrimination,discrim_jsons/d0.json,http://54.197.185.130/DepthDuration/depth_discrimination_MTurk/DepthDiscrim_HTML.html#4,4,1519,721,1536,864,6-9-2021,20-3-32,188,,,,,,,1771,510,999,494,1019,479,feet,4,4,depth_discrimination_stimuli/000009_2014-05-26_14-32-05_260595134347_rgbf000034-resize_3/000009_2014-05-26_14-32-05_260595134347_rgbf000034-resize-original.jpg,4464,1437607,1566198,27
332991,DepthScenes,duration_discrimination,discrim_jsons/d0.json,http://54.197.185.130/DepthDuration/depth_discrimination_MTurk/DepthDiscrim_HTML.html#4,4,1519,721,1536,864,6-9-2021,20-3-32,189,,,,,,,1771,510,999,494,1019,479,feet,2,3,depth_discrimination_stimuli/002131_2014-06-25_21-12-01_260595134347_rgbf000083-resize_0/002131_2014-06-25_21-12-01_260595134347_rgbf000083-resize-original.jpg,6095,1437607,1566198,27
332991,DepthScenes,duration_discrimination,discrim_jsons/d0.json,http://54.197.185.130/DepthDuration/depth_discrimination_MTurk/DepthDiscrim_HTML.html#4,4,1519,721,1536,864,6-9-2021,20-3-32,190,,,,,,,1771,510,999,494,1019,479,feet,3,1,depth_discrimination_stimuli/000854_2014-06-09_19-43-13_260595134347_rgbf000066-resize_0/000854_2014-06-09_19-43-13_260595134347_rgbf000066-resize-original.jpg,3475,1437607,1566198,27
332991,DepthScenes,duration_discrimination,discrim_jsons/d0.json,http://54.197.185.130/DepthDuration/depth_discrimination_MTurk/DepthDiscrim_HTML.html#4,4,1519,721,1536,864,6-9-2021,20-3-32,191,,,,,,,1771,510,999,494,1019,479,feet,1,3,depth_discrimination_stimuli/002136_2014-06-25_21-18-03_260595134347_rgbf000109-resize_3/002136_2014-06-25_21-18-03_260595134347_rgbf000109-resize-original.jpg,1153,1437607,1566198,27
332991,DepthScenes,duration_discrimination,discrim_jsons/d0.json,http://54.197.185.130/DepthDuration/depth_discrimination_MTurk/DepthDiscrim_HTML.html#4,4,1519,721,1536,864,6-9-2021,20-3-32,192,,,,,,,1771,510,999,494,1019,479,feet,2,3,depth_discrimination_stimuli/002344_2014-06-28_20-06-29_260595134347_rgbf000030-resize_1/002344_2014-06-28_20-06-29_260595134347_rgbf000030-resize-original.jpg,4231,1437607,1566198,27
332991,DepthScenes,duration_discrimination,discrim_jsons/d0.json,http://54.197.185.130/DepthDuration/depth_discrimination_MTurk/DepthDiscrim_HTML.html#4,4,1519,721,1536,864,6-9-2021,20-3-32,193,,,,,,,1771,510,999,494,1019,479,feet,3,3,depth_discrimination_stimuli/000191_2014-05-12_17-07-38_260595134347_rgbf000199-resize_0/000191_2014-05-12_17-07-38_260595134347_rgbf000199-resize-original.jpg,8503,1437607,1566198,27
332991,DepthScenes,duration_discrimination,discrim_jsons/d0.json,http://54.197.185.130/DepthDuration/depth_discrimination_MTurk/DepthDiscrim_HTML.html#4,4,1519,721,1536,864,6-9-2021,20-3-32,194,,,,,,,1771,510,999,494,1019,479,feet,3,3,depth_discrimination_stimuli/001244_2014-06-17_16-47-45_260595134347_rgbf000030-resize_4/001244_2014-06-17_16-47-45_260595134347_rgbf000030-resize-original.jpg,4200,1437607,1566198,27
332991,DepthScenes,duration_discrimination,discrim_jsons/d0.json,http://54.197.185.130/DepthDuration/depth_discrimination_MTurk/DepthDiscrim_HTML.html#4,4,1519,721,1536,864,6-9-2021,20-3-32,195,,,,,,,1771,510,999,494,1019,479,feet,3,4,depth_discrimination_stimuli/003081_2014-06-15_15-19-16_094959634447_rgbf000150-resize_1/003081_2014-06-15_15-19-16_094959634447_rgbf000150-resize-original.jpg,8864,1437607,1566198,27
332991,DepthScenes,duration_discrimination,discrim_jsons/d0.json,http://54.197.185.130/DepthDuration/depth_discrimination_MTurk/DepthDiscrim_HTML.html#4,4,1519,721,1536,864,6-9-2021,20-3-32,196,,,,,,,1771,510,999,494,1019,479,feet,4,3,depth_discrimination_stimuli/002305_2014-06-28_19-56-50_260595134347_rgbf000102-resize_7/002305_2014-06-28_19-56-50_260595134347_rgbf000102-resize-original.jpg,10488,1437607,1566198,27
332991,DepthScenes,duration_discrimination,discrim_jsons/d0.json,http://54.197.185.130/DepthDuration/depth_discrimination_MTurk/DepthDiscrim_HTML.html#4,4,1519,721,1536,864,6-9-2021,20-3-32,197,,,,,,,1771,510,999,494,1019,479,feet,2,4,depth_discrimination_stimuli/002905_2014-06-03_18-04-43_094959634447_rgbf000151-resize_2/002905_2014-06-03_18-04-43_094959634447_rgbf000151-resize-original.jpg,4721,1437607,1566198,27
332991,DepthScenes,duration_discrimination,discrim_jsons/d0.json,http://54.197.185.130/DepthDuration/depth_discrimination_MTurk/DepthDiscrim_HTML.html#4,4,1519,721,1536,864,6-9-2021,20-3-32,198,,,,,,,1771,510,999,494,1019,479,feet,4,4,depth_discrimination_stimuli/002365_2014-06-28_20-11-21_260595134347_rgbf000102-resize_1/002365_2014-06-28_20-11-21_260595134347_rgbf000102-resize-original.jpg,4438,1437607,1566198,27
332991,DepthScenes,duration_discrimination,discrim_jsons/d0.json,http://54.197.185.130/DepthDuration/depth_discrimination_MTurk/DepthDiscrim_HTML.html#4,4,1519,721,1536,864,6-9-2021,20-3-32,199,,,,,,,1771,510,999,494,1019,479,feet,2,4,depth_discrimination_stimuli/001164_2014-06-17_15-35-46_260595134347_rgbf000085-resize_3/001164_2014-06-17_15-35-46_260595134347_rgbf000085-resize-original.jpg,3361,1437607,1566198,27
