subjID,experimentName,versionName,sequenceName,url,selected_row,windowWidth,windowHeight,screenWidth,screenHeight,startDate,startTime,trial,stimulus_0,stimulus_1,duration,actual_depth_0,actual_depth_1,discrim_choice,trial_RT,log_fixation,log_sceneDuration1,log_mask1,log_sceneDuration2,log_mask2,unitSelection,meanDepth_rating,navigability_rating,rated_stimulus,rating_RT,experimentTime,totalTime,age
986805,DepthScenes,duration_discrimination,discrim_jsons/shuffled_g0_dr.json,http://54.89.209.186/DepthDuration/depth_discrimination_MTurk/DepthDiscrim_HTML.html#1,1,1367,768,1367,768,7-20-2021,8-19-15,1,depth_discrimination_stimuli/001618_2014-06-20_11-37-31_260595134347_rgbf000027-resize_3/001618_2014-06-20_11-37-31_260595134347_rgbf000027-resize_3-target.png,depth_discrimination_stimuli/000109_2014-05-14_23-41-52_260595134347_rgbf000035-resize_9/000109_2014-05-14_23-41-52_260595134347_rgbf000035-resize_9-target.png,1000,1.8725,1.3545,0,4968,501,999,1001,1000,499,,,,,,1133237,1436379,40
986805,DepthScenes,duration_discrimination,discrim_jsons/shuffled_g0_dr.json,http://54.89.209.186/DepthDuration/depth_discrimination_MTurk/DepthDiscrim_HTML.html#1,1,1367,768,1367,768,7-20-2021,8-19-15,2,depth_discrimination_stimuli/002103_2014-06-25_20-00-40_260595134347_rgbf000049-resize_0/002103_2014-06-25_20-00-40_260595134347_rgbf000049-resize_0-target.png,depth_discrimination_stimuli/002444_2014-06-28_20-32-08_260595134347_rgbf000027-resize_0/002444_2014-06-28_20-32-08_260595134347_rgbf000027-resize_0-target.png,1000,4.105,4.389,0,4341,502,1000,1000,999,501,,,,,,1133237,1436379,40
986805,DepthScenes,duration_discrimination,discrim_jsons/shuffled_g0_dr.json,http://54.89.209.186/DepthDuration/depth_discrimination_MTurk/DepthDiscrim_HTML.html#1,1,1367,768,1367,768,7-20-2021,8-19-15,3,depth_discrimination_stimuli/000800_2014-06-08_22-42-09_260595134347_rgbf000095-resize_3/000800_2014-06-08_22-42-09_260595134347_rgbf000095-resize_3-target.png,depth_discrimination_stimuli/000869_2014-06-09_20-50-18_260595134347_rgbf000060-resize_3/000869_2014-06-09_20-50-18_260595134347_rgbf000060-resize_3-target.png,250,2.8,2.266,1,7173,502,250,1000,251,498,,,,,,1133237,1436379,40
986805,DepthScenes,duration_discrimination,discrim_jsons/shuffled_g0_dr.json,http://54.89.209.186/DepthDuration/depth_discrimination_MTurk/DepthDiscrim_HTML.html#1,1,1367,768,1367,768,7-20-2021,8-19-15,4,depth_discrimination_stimuli/001092_2014-06-15_17-34-58_260595134347_rgbf000171-resize_3/001092_2014-06-15_17-34-58_260595134347_rgbf000171-resize_3-target.png,depth_discrimination_stimuli/000502_2014-06-08_23-02-32_260595134347_rgbf000063-resize_4/000502_2014-06-08_23-02-32_260595134347_rgbf000063-resize_4-target.png,250,2.6935,2.431,1,3215,501,249,1002,250,499,,,,,,1133237,1436379,40
986805,DepthScenes,duration_discrimination,discrim_jsons/shuffled_g0_dr.json,http://54.89.209.186/DepthDuration/depth_discrimination_MTurk/DepthDiscrim_HTML.html#1,1,1367,768,1367,768,7-20-2021,8-19-15,5,depth_discrimination_stimuli/000953_2014-06-08_11-42-19_260595134347_rgbf000083-resize_0/000953_2014-06-08_11-42-19_260595134347_rgbf000083-resize_0-target.png,depth_discrimination_stimuli/000787_2014-06-08_22-33-53_260595134347_rgbf000175-resize_1/000787_2014-06-08_22-33-53_260595134347_rgbf000175-resize_1-target.png,250,1.369,4.784,0,3150,503,250,999,251,500,,,,,,1133237,1436379,40
986805,DepthScenes,duration_discrimination,discrim_jsons/shuffled_g0_dr.json,http://54.89.209.186/DepthDuration/depth_discrimination_MTurk/DepthDiscrim_HTML.html#1,1,1367,768,1367,768,7-20-2021,8-19-15,6,depth_discrimination_stimuli/003083_2014-06-15_15-21-03_094959634447_rgbf000063-resize_1/003083_2014-06-15_15-21-03_094959634447_rgbf000063-resize_1-target.png,depth_discrimination_stimuli/000742_2014-06-08_18-48-09_260595134347_rgbf000164-resize_4/000742_2014-06-08_18-48-09_260595134347_rgbf000164-resize_4-target.png,1000,4.1405,4.632,1,2278,501,1000,999,1000,500,,,,,,1133237,1436379,40
986805,DepthScenes,duration_discrimination,discrim_jsons/shuffled_g0_dr.json,http://54.89.209.186/DepthDuration/depth_discrimination_MTurk/DepthDiscrim_HTML.html#1,1,1367,768,1367,768,7-20-2021,8-19-15,7,depth_discrimination_stimuli/000749_2014-06-08_21-55-06_260595134347_rgbf000070-resize_2/000749_2014-06-08_21-55-06_260595134347_rgbf000070-resize_2-target.png,depth_discrimination_stimuli/001056_2014-06-08_18-46-44_260595134347_rgbf000068-resize_0/001056_2014-06-08_18-46-44_260595134347_rgbf000068-resize_0-target.png,250,2.331,2.6625,0,2248,502,249,1000,250,501,,,,,,1133237,1436379,40
986805,DepthScenes,duration_discrimination,discrim_jsons/shuffled_g0_dr.json,http://54.89.209.186/DepthDuration/depth_discrimination_MTurk/DepthDiscrim_HTML.html#1,1,1367,768,1367,768,7-20-2021,8-19-15,8,depth_discrimination_stimuli/002043_2014-06-24_20-29-38_260595134347_rgbf000039-resize_4/002043_2014-06-24_20-29-38_260595134347_rgbf000039-resize_4-target.png,depth_discrimination_stimuli/001011_2014-06-08_23-18-54_260595134347_rgbf000044-resize_4/001011_2014-06-08_23-18-54_260595134347_rgbf000044-resize_4-target.png,1000,2.8435,2.473,0,5547,502,999,1002,999,500,,,,,,1133237,1436379,40
986805,DepthScenes,duration_discrimination,discrim_jsons/shuffled_g0_dr.json,http://54.89.209.186/DepthDuration/depth_discrimination_MTurk/DepthDiscrim_HTML.html#1,1,1367,768,1367,768,7-20-2021,8-19-15,9,depth_discrimination_stimuli/000454_2014-06-08_16-37-28_260595134347_rgbf000048-resize_2/000454_2014-06-08_16-37-28_260595134347_rgbf000048-resize_2-target.png,depth_discrimination_stimuli/000375_2014-06-08_11-17-29_260595134347_rgbf000133-resize_2/000375_2014-06-08_11-17-29_260595134347_rgbf000133-resize_2-target.png,1000,1.213,4.718,0,5499,501,999,1000,1000,501,,,,,,1133237,1436379,40
986805,DepthScenes,duration_discrimination,discrim_jsons/shuffled_g0_dr.json,http://54.89.209.186/DepthDuration/depth_discrimination_MTurk/DepthDiscrim_HTML.html#1,1,1367,768,1367,768,7-20-2021,8-19-15,10,depth_discrimination_stimuli/001532_2014-06-20_16-50-41_260595134347_rgbf000081-resize_4/001532_2014-06-20_16-50-41_260595134347_rgbf000081-resize_4-target.png,depth_discrimination_stimuli/000943_2014-06-09_19-31-07_260595134347_rgbf000128-resize_1/000943_2014-06-09_19-31-07_260595134347_rgbf000128-resize_1-target.png,250,1.5758333333333,1.9765,0,2765,502,249,1001,250,499,,,,,,1133237,1436379,40
986805,DepthScenes,duration_discrimination,discrim_jsons/shuffled_g0_dr.json,http://54.89.209.186/DepthDuration/depth_discrimination_MTurk/DepthDiscrim_HTML.html#1,1,1367,768,1367,768,7-20-2021,8-19-15,11,depth_discrimination_stimuli/002340_2014-06-28_20-05-46_260595134347_rgbf000113-resize_0/002340_2014-06-28_20-05-46_260595134347_rgbf000113-resize_0-target.png,depth_discrimination_stimuli/002905_2014-06-03_18-04-43_094959634447_rgbf000151-resize_2/002905_2014-06-03_18-04-43_094959634447_rgbf000151-resize_2-target.png,250,2.4735,2.0295,1,3997,501,250,1001,250,499,,,,,,1133237,1436379,40
986805,DepthScenes,duration_discrimination,discrim_jsons/shuffled_g0_dr.json,http://54.89.209.186/DepthDuration/depth_discrimination_MTurk/DepthDiscrim_HTML.html#1,1,1367,768,1367,768,7-20-2021,8-19-15,12,depth_discrimination_stimuli/000691_2014-06-08_13-08-50_260595134347_rgbf000132-resize_3/000691_2014-06-08_13-08-50_260595134347_rgbf000132-resize_3-target.png,depth_discrimination_stimuli/002039_2014-06-24_20-22-38_260595134347_rgbf000084-resize_1/002039_2014-06-24_20-22-38_260595134347_rgbf000084-resize_1-target.png,250,4.153,4.408,0,3897,501,249,1001,250,499,,,,,,1133237,1436379,40
986805,DepthScenes,duration_discrimination,discrim_jsons/shuffled_g0_dr.json,http://54.89.209.186/DepthDuration/depth_discrimination_MTurk/DepthDiscrim_HTML.html#1,1,1367,768,1367,768,7-20-2021,8-19-15,13,depth_discrimination_stimuli/000569_2014-06-09_22-51-47_260595134347_rgbf000141-resize_3/000569_2014-06-09_22-51-47_260595134347_rgbf000141-resize_3-target.png,depth_discrimination_stimuli/000868_2014-06-09_20-49-52_260595134347_rgbf000064-resize_4/000868_2014-06-09_20-49-52_260595134347_rgbf000064-resize_4-target.png,250,4.512,1.2815,1,1927,501,252,999,249,500,,,,,,1133237,1436379,40
986805,DepthScenes,duration_discrimination,discrim_jsons/shuffled_g0_dr.json,http://54.89.209.186/DepthDuration/depth_discrimination_MTurk/DepthDiscrim_HTML.html#1,1,1367,768,1367,768,7-20-2021,8-19-15,14,depth_discrimination_stimuli/003587_2014-05-23_16-48-02_094959634447_rgbf002384-resize_2/003587_2014-05-23_16-48-02_094959634447_rgbf002384-resize_2-target.png,depth_discrimination_stimuli/000709_2014-06-08_13-51-55_260595134347_rgbf000068-resize_3/000709_2014-06-08_13-51-55_260595134347_rgbf000068-resize_3-target.png,250,1.357,1.803,0,2035,502,249,1001,249,501,,,,,,1133237,1436379,40
986805,DepthScenes,duration_discrimination,discrim_jsons/shuffled_g0_dr.json,http://54.89.209.186/DepthDuration/depth_discrimination_MTurk/DepthDiscrim_HTML.html#1,1,1367,768,1367,768,7-20-2021,8-19-15,15,depth_discrimination_stimuli/002199_2014-06-28_18-33-56_260595134347_rgbf000074-resize_0/002199_2014-06-28_18-33-56_260595134347_rgbf000074-resize_0-target.png,depth_discrimination_stimuli/001016_2014-06-09_16-16-10_260595134347_rgbf000112-resize_5/001016_2014-06-09_16-16-10_260595134347_rgbf000112-resize_5-target.png,1000,1.996,1.6565,0,1876,502,1003,996,1001,499,,,,,,1133237,1436379,40
986805,DepthScenes,duration_discrimination,discrim_jsons/shuffled_g0_dr.json,http://54.89.209.186/DepthDuration/depth_discrimination_MTurk/DepthDiscrim_HTML.html#1,1,1367,768,1367,768,7-20-2021,8-19-15,16,depth_discrimination_stimuli/000493_2014-06-09_21-01-18_260595134347_rgbf000196-resize_3/000493_2014-06-09_21-01-18_260595134347_rgbf000196-resize_3-target.png,depth_discrimination_stimuli/000409_2014-06-04_19-23-33_260595134347_rgbf000067-resize_0/000409_2014-06-04_19-23-33_260595134347_rgbf000067-resize_0-target.png,1000,3.44,3.7335,0,2340,501,1001,1000,1000,499,,,,,,1133237,1436379,40
986805,DepthScenes,duration_discrimination,discrim_jsons/shuffled_g0_dr.json,http://54.89.209.186/DepthDuration/depth_discrimination_MTurk/DepthDiscrim_HTML.html#1,1,1367,768,1367,768,7-20-2021,8-19-15,17,depth_discrimination_stimuli/002953_2014-06-08_17-32-18_094959634447_rgbf000059-resize_5/002953_2014-06-08_17-32-18_094959634447_rgbf000059-resize_5-target.png,depth_discrimination_stimuli/000470_2014-06-09_19-42-40_260595134347_rgbf000094-resize_1/000470_2014-06-09_19-42-40_260595134347_rgbf000094-resize_1-target.png,1000,1.551,1.831,0,2475,501,999,1000,1000,500,,,,,,1133237,1436379,40
986805,DepthScenes,duration_discrimination,discrim_jsons/shuffled_g0_dr.json,http://54.89.209.186/DepthDuration/depth_discrimination_MTurk/DepthDiscrim_HTML.html#1,1,1367,768,1367,768,7-20-2021,8-19-15,18,depth_discrimination_stimuli/000929_2014-06-09_16-33-19_260595134347_rgbf000139-resize_0/000929_2014-06-09_16-33-19_260595134347_rgbf000139-resize_0-target.png,depth_discrimination_stimuli/001055_2014-06-08_18-45-35_260595134347_rgbf000111-resize_4/001055_2014-06-08_18-45-35_260595134347_rgbf000111-resize_4-target.png,250,2.868,2.429,0,2758,501,250,999,250,500,,,,,,1133237,1436379,40
986805,DepthScenes,duration_discrimination,discrim_jsons/shuffled_g0_dr.json,http://54.89.209.186/DepthDuration/depth_discrimination_MTurk/DepthDiscrim_HTML.html#1,1,1367,768,1367,768,7-20-2021,8-19-15,19,depth_discrimination_stimuli/002118_2014-06-25_20-32-08_260595134347_rgbf000078-resize_1/002118_2014-06-25_20-32-08_260595134347_rgbf000078-resize_1-target.png,depth_discrimination_stimuli/001164_2014-06-17_15-35-46_260595134347_rgbf000085-resize_3/001164_2014-06-17_15-35-46_260595134347_rgbf000085-resize_3-target.png,250,2.646,2.354,0,1570,502,250,999,251,500,,,,,,1133237,1436379,40
986805,DepthScenes,duration_discrimination,discrim_jsons/shuffled_g0_dr.json,http://54.89.209.186/DepthDuration/depth_discrimination_MTurk/DepthDiscrim_HTML.html#1,1,1367,768,1367,768,7-20-2021,8-19-15,20,depth_discrimination_stimuli/002675_2014-06-13_16-08-49_094959634447_rgbf000151-resize_2/002675_2014-06-13_16-08-49_094959634447_rgbf000151-resize_2-target.png,depth_discrimination_stimuli/001222_2014-06-17_16-24-06_260595134347_rgbf000073-resize_0/001222_2014-06-17_16-24-06_260595134347_rgbf000073-resize_0-target.png,1000,4.5065,1.4385,1,2662,504,995,1001,1000,500,,,,,,1133237,1436379,40
986805,DepthScenes,duration_discrimination,discrim_jsons/shuffled_g0_dr.json,http://54.89.209.186/DepthDuration/depth_discrimination_MTurk/DepthDiscrim_HTML.html#1,1,1367,768,1367,768,7-20-2021,8-19-15,21,depth_discrimination_stimuli/000556_2014-06-09_22-42-56_260595134347_rgbf000214-resize_1/000556_2014-06-09_22-42-56_260595134347_rgbf000214-resize_1-target.png,depth_discrimination_stimuli/001148_2014-06-17_15-26-42_260595134347_rgbf000129-resize_0/001148_2014-06-17_15-26-42_260595134347_rgbf000129-resize_0-target.png,250,4.8415,4.368,0,4084,501,251,1000,249,500,,,,,,1133237,1436379,40
986805,DepthScenes,duration_discrimination,discrim_jsons/shuffled_g0_dr.json,http://54.89.209.186/DepthDuration/depth_discrimination_MTurk/DepthDiscrim_HTML.html#1,1,1367,768,1367,768,7-20-2021,8-19-15,22,depth_discrimination_stimuli/002805_2014-06-22_19-54-03_094959634447_rgbf000079-resize_1/002805_2014-06-22_19-54-03_094959634447_rgbf000079-resize_1-target.png,depth_discrimination_stimuli/001584_2014-06-20_11-07-43_260595134347_rgbf000002-resize_1/001584_2014-06-20_11-07-43_260595134347_rgbf000002-resize_1-target.png,1000,3.144,3.53,0,3114,503,999,1001,999,500,,,,,,1133237,1436379,40
986805,DepthScenes,duration_discrimination,discrim_jsons/shuffled_g0_dr.json,http://54.89.209.186/DepthDuration/depth_discrimination_MTurk/DepthDiscrim_HTML.html#1,1,1367,768,1367,768,7-20-2021,8-19-15,23,depth_discrimination_stimuli/000549_2014-06-08_22-10-24_260595134347_rgbf000247-resize_3/000549_2014-06-08_22-10-24_260595134347_rgbf000247-resize_3-target.png,depth_discrimination_stimuli/002509_2014-06-24_13-19-22_094959634447_rgbf000077-resize_0/002509_2014-06-24_13-19-22_094959634447_rgbf000077-resize_0-target.png,250,1.841,1.3065,0,4736,502,249,1000,250,500,,,,,,1133237,1436379,40
986805,DepthScenes,duration_discrimination,discrim_jsons/shuffled_g0_dr.json,http://54.89.209.186/DepthDuration/depth_discrimination_MTurk/DepthDiscrim_HTML.html#1,1,1367,768,1367,768,7-20-2021,8-19-15,24,depth_discrimination_stimuli/001450_2014-06-19_17-02-03_260595134347_rgbf000203-resize_4/001450_2014-06-19_17-02-03_260595134347_rgbf000203-resize_4-target.png,depth_discrimination_stimuli/002414_2014-06-28_20-24-58_260595134347_rgbf000067-resize_4/002414_2014-06-28_20-24-58_260595134347_rgbf000067-resize_4-target.png,1000,4.0106666666667,4.363,0,2519,502,1000,1000,1000,500,,,,,,1133237,1436379,40
986805,DepthScenes,duration_discrimination,discrim_jsons/shuffled_g0_dr.json,http://54.89.209.186/DepthDuration/depth_discrimination_MTurk/DepthDiscrim_HTML.html#1,1,1367,768,1367,768,7-20-2021,8-19-15,25,depth_discrimination_stimuli/003495_2014-05-21_16-01-51_094959634447_rgbf000100-resize_3/003495_2014-05-21_16-01-51_094959634447_rgbf000100-resize_3-target.png,depth_discrimination_stimuli/002949_2014-06-26_15-57-42_094959634447_rgbf000079-resize_1/002949_2014-06-26_15-57-42_094959634447_rgbf000079-resize_1-target.png,1000,1.6255,1.8915,0,1665,501,1000,1001,999,500,,,,,,1133237,1436379,40
986805,DepthScenes,duration_discrimination,discrim_jsons/shuffled_g0_dr.json,http://54.89.209.186/DepthDuration/depth_discrimination_MTurk/DepthDiscrim_HTML.html#1,1,1367,768,1367,768,7-20-2021,8-19-15,26,depth_discrimination_stimuli/001498_2014-06-19_17-45-14_260595134347_rgbf000129-resize_4/001498_2014-06-19_17-45-14_260595134347_rgbf000129-resize_4-target.png,depth_discrimination_stimuli/003125_2014-05-12_10-39-22_094959634447_rgbf000100-resize_0/003125_2014-05-12_10-39-22_094959634447_rgbf000100-resize_0-target.png,1000,1.4075,4.8655,0,1511,502,1000,999,1000,501,,,,,,1133237,1436379,40
986805,DepthScenes,duration_discrimination,discrim_jsons/shuffled_g0_dr.json,http://54.89.209.186/DepthDuration/depth_discrimination_MTurk/DepthDiscrim_HTML.html#1,1,1367,768,1367,768,7-20-2021,8-19-15,27,depth_discrimination_stimuli/002549_2014-06-24_13-41-39_094959634447_rgbf000022-resize_3/002549_2014-06-24_13-41-39_094959634447_rgbf000022-resize_3-target.png,depth_discrimination_stimuli/001136_2014-06-17_15-19-41_260595134347_rgbf000076-resize_3/001136_2014-06-17_15-19-41_260595134347_rgbf000076-resize_3-target.png,250,1.476,1.8655,0,2817,501,249,1000,250,500,,,,,,1133237,1436379,40
986805,DepthScenes,duration_discrimination,discrim_jsons/shuffled_g0_dr.json,http://54.89.209.186/DepthDuration/depth_discrimination_MTurk/DepthDiscrim_HTML.html#1,1,1367,768,1367,768,7-20-2021,8-19-15,28,depth_discrimination_stimuli/003490_2014-05-21_15-50-11_094959634447_rgbf000101-resize_3/003490_2014-05-21_15-50-11_094959634447_rgbf000101-resize_3-target.png,depth_discrimination_stimuli/000866_2014-06-09_20-45-42_260595134347_rgbf000139-resize_1/000866_2014-06-09_20-45-42_260595134347_rgbf000139-resize_1-target.png,250,3.6445,3.2155,0,2141,502,250,1000,249,500,,,,,,1133237,1436379,40
986805,DepthScenes,duration_discrimination,discrim_jsons/shuffled_g0_dr.json,http://54.89.209.186/DepthDuration/depth_discrimination_MTurk/DepthDiscrim_HTML.html#1,1,1367,768,1367,768,7-20-2021,8-19-15,29,depth_discrimination_stimuli/003292_2014-05-14_21-53-49_094959634447_rgbf000100-resize_2/003292_2014-05-14_21-53-49_094959634447_rgbf000100-resize_2-target.png,depth_discrimination_stimuli/000542_2014-06-08_18-27-08_260595134347_rgbf000118-resize_1/000542_2014-06-08_18-27-08_260595134347_rgbf000118-resize_1-target.png,250,3.4815,3,0,2112,501,251,1000,250,500,,,,,,1133237,1436379,40
986805,DepthScenes,duration_discrimination,discrim_jsons/shuffled_g0_dr.json,http://54.89.209.186/DepthDuration/depth_discrimination_MTurk/DepthDiscrim_HTML.html#1,1,1367,768,1367,768,7-20-2021,8-19-15,30,depth_discrimination_stimuli/002072_2014-06-24_21-48-06_260595134347_rgbf000115-resize_0/002072_2014-06-24_21-48-06_260595134347_rgbf000115-resize_0-target.png,depth_discrimination_stimuli/001012_2014-06-08_23-19-38_260595134347_rgbf000057-resize_0/001012_2014-06-08_23-19-38_260595134347_rgbf000057-resize_0-target.png,250,4.702,1.38325,1,1757,502,250,1000,250,499,,,,,,1133237,1436379,40
986805,DepthScenes,duration_discrimination,discrim_jsons/shuffled_g0_dr.json,http://54.89.209.186/DepthDuration/depth_discrimination_MTurk/DepthDiscrim_HTML.html#1,1,1367,768,1367,768,7-20-2021,8-19-15,31,depth_discrimination_stimuli/000927_2014-06-09_16-32-30_260595134347_rgbf000123-resize_3/000927_2014-06-09_16-32-30_260595134347_rgbf000123-resize_3-target.png,depth_discrimination_stimuli/002678_2014-06-13_16-15-32_094959634447_rgbf000151-resize_6/002678_2014-06-13_16-15-32_094959634447_rgbf000151-resize_6-target.png,1000,2.6785,2.183,0,3610,500,1000,1001,1000,499,,,,,,1133237,1436379,40
986805,DepthScenes,duration_discrimination,discrim_jsons/shuffled_g0_dr.json,http://54.89.209.186/DepthDuration/depth_discrimination_MTurk/DepthDiscrim_HTML.html#1,1,1367,768,1367,768,7-20-2021,8-19-15,32,depth_discrimination_stimuli/002660_2014-06-13_15-44-18_094959634447_rgbf001878-resize_2/002660_2014-06-13_15-44-18_094959634447_rgbf001878-resize_2-target.png,depth_discrimination_stimuli/003081_2014-06-15_15-19-16_094959634447_rgbf000150-resize_1/003081_2014-06-15_15-19-16_094959634447_rgbf000150-resize_1-target.png,250,3.576,3.9125,0,4598,501,250,1001,250,501,,,,,,1133237,1436379,40
986805,DepthScenes,duration_discrimination,discrim_jsons/shuffled_g0_dr.json,http://54.89.209.186/DepthDuration/depth_discrimination_MTurk/DepthDiscrim_HTML.html#1,1,1367,768,1367,768,7-20-2021,8-19-15,33,depth_discrimination_stimuli/001158_2014-06-17_15-32-16_260595134347_rgbf000138-resize_2/001158_2014-06-17_15-32-16_260595134347_rgbf000138-resize_2-target.png,depth_discrimination_stimuli/001181_2014-06-17_15-50-57_260595134347_rgbf000106-resize_4/001181_2014-06-17_15-50-57_260595134347_rgbf000106-resize_4-target.png,1000,4.5315,4.149,0,3387,501,1000,1000,1000,501,,,,,,1133237,1436379,40
986805,DepthScenes,duration_discrimination,discrim_jsons/shuffled_g0_dr.json,http://54.89.209.186/DepthDuration/depth_discrimination_MTurk/DepthDiscrim_HTML.html#1,1,1367,768,1367,768,7-20-2021,8-19-15,34,depth_discrimination_stimuli/002467_2014-06-28_20-38-07_260595134347_rgbf000026-resize_2/002467_2014-06-28_20-38-07_260595134347_rgbf000026-resize_2-target.png,depth_discrimination_stimuli/001133_2014-06-17_14-49-16_260595134347_rgbf000100-resize_0/001133_2014-06-17_14-49-16_260595134347_rgbf000100-resize_0-target.png,1000,4.742,4.2115,0,2459,502,1000,1000,1000,500,,,,,,1133237,1436379,40
986805,DepthScenes,duration_discrimination,discrim_jsons/shuffled_g0_dr.json,http://54.89.209.186/DepthDuration/depth_discrimination_MTurk/DepthDiscrim_HTML.html#1,1,1367,768,1367,768,7-20-2021,8-19-15,35,depth_discrimination_stimuli/001170_2014-06-17_15-43-44_260595134347_rgbf000096-resize_6/001170_2014-06-17_15-43-44_260595134347_rgbf000096-resize_6-target.png,depth_discrimination_stimuli/002364_2014-06-28_20-11-05_260595134347_rgbf000042-resize_0/002364_2014-06-28_20-11-05_260595134347_rgbf000042-resize_0-target.png,250,1.191,4.682,0,2235,502,249,1001,249,500,,,,,,1133237,1436379,40
986805,DepthScenes,duration_discrimination,discrim_jsons/shuffled_g0_dr.json,http://54.89.209.186/DepthDuration/depth_discrimination_MTurk/DepthDiscrim_HTML.html#1,1,1367,768,1367,768,7-20-2021,8-19-15,36,depth_discrimination_stimuli/003423_2014-05-21_10-23-26_094959634447_rgbf002665-resize_2/003423_2014-05-21_10-23-26_094959634447_rgbf002665-resize_2-target.png,depth_discrimination_stimuli/000137_2014-05-20_17-04-49_260595134347_rgbf000120-resize_1/000137_2014-05-20_17-04-49_260595134347_rgbf000120-resize_1-target.png,1000,3.2575,3.786,0,3558,502,999,1001,999,500,,,,,,1133237,1436379,40
986805,DepthScenes,duration_discrimination,discrim_jsons/shuffled_g0_dr.json,http://54.89.209.186/DepthDuration/depth_discrimination_MTurk/DepthDiscrim_HTML.html#1,1,1367,768,1367,768,7-20-2021,8-19-15,37,depth_discrimination_stimuli/001197_2014-06-17_16-01-50_260595134347_rgbf000103-resize_4/001197_2014-06-17_16-01-50_260595134347_rgbf000103-resize_4-target.png,depth_discrimination_stimuli/001235_2014-06-17_16-37-36_260595134347_rgbf000084-resize_4/001235_2014-06-17_16-37-36_260595134347_rgbf000084-resize_4-target.png,1000,3.4025,3.6605,1,3297,500,1000,1000,1000,501,,,,,,1133237,1436379,40
986805,DepthScenes,duration_discrimination,discrim_jsons/shuffled_g0_dr.json,http://54.89.209.186/DepthDuration/depth_discrimination_MTurk/DepthDiscrim_HTML.html#1,1,1367,768,1367,768,7-20-2021,8-19-15,38,depth_discrimination_stimuli/003395_2014-05-20_15-39-18_094959634447_rgbf000101-resize_0/003395_2014-05-20_15-39-18_094959634447_rgbf000101-resize_0-target.png,depth_discrimination_stimuli/001540_2014-06-20_17-01-05_260595134347_rgbf000086-resize_2/001540_2014-06-20_17-01-05_260595134347_rgbf000086-resize_2-target.png,1000,4.835,1.459,1,2088,502,1000,999,1001,499,,,,,,1133237,1436379,40
986805,DepthScenes,duration_discrimination,discrim_jsons/shuffled_g0_dr.json,http://54.89.209.186/DepthDuration/depth_discrimination_MTurk/DepthDiscrim_HTML.html#1,1,1367,768,1367,768,7-20-2021,8-19-15,39,depth_discrimination_stimuli/001808_2014-06-26_20-50-58_260595134347_rgbf000029-resize_1/001808_2014-06-26_20-50-58_260595134347_rgbf000029-resize_1-target.png,depth_discrimination_stimuli/002748_2014-06-22_19-07-22_094959634447_rgbf000078-resize_1/002748_2014-06-22_19-07-22_094959634447_rgbf000078-resize_1-target.png,1000,4.249,4.6705,0,1778,500,1001,999,1001,499,,,,,,1133237,1436379,40
986805,DepthScenes,duration_discrimination,discrim_jsons/shuffled_g0_dr.json,http://54.89.209.186/DepthDuration/depth_discrimination_MTurk/DepthDiscrim_HTML.html#1,1,1367,768,1367,768,7-20-2021,8-19-15,40,depth_discrimination_stimuli/002323_2014-06-28_20-01-54_260595134347_rgbf000051-resize_4/002323_2014-06-28_20-01-54_260595134347_rgbf000051-resize_4-target.png,depth_discrimination_stimuli/001032_2014-06-08_13-23-17_260595134347_rgbf000021-resize_3/001032_2014-06-08_13-23-17_260595134347_rgbf000021-resize_3-target.png,1000,3.731,3.2725,1,2567,500,1000,1000,1000,500,,,,,,1133237,1436379,40
986805,DepthScenes,duration_discrimination,discrim_jsons/shuffled_g0_dr.json,http://54.89.209.186/DepthDuration/depth_discrimination_MTurk/DepthDiscrim_HTML.html#1,1,1367,618,1367,768,7-20-2021,8-19-15,40,,,,,,,2567,500,1000,1000,1000,500,,,,,,1133237,1436379,40
986805,DepthScenes,duration_discrimination,discrim_jsons/shuffled_g0_dr.json,http://54.89.209.186/DepthDuration/depth_discrimination_MTurk/DepthDiscrim_HTML.html#1,1,1350,618,1367,768,7-20-2021,8-19-15,42,,,,,,,2567,500,1000,1000,1000,500,,4,4,depth_discrimination_stimuli/002639_2014-06-24_14-51-37_094959634447_rgbf000074-resize_4/002639_2014-06-24_14-51-37_094959634447_rgbf000074-resize-original.jpg,11208,1133237,1436379,40
986805,DepthScenes,duration_discrimination,discrim_jsons/shuffled_g0_dr.json,http://54.89.209.186/DepthDuration/depth_discrimination_MTurk/DepthDiscrim_HTML.html#1,1,1350,618,1367,768,7-20-2021,8-19-15,43,,,,,,,2567,500,1000,1000,1000,500,,4,3,depth_discrimination_stimuli/002305_2014-06-28_19-56-50_260595134347_rgbf000102-resize_7/002305_2014-06-28_19-56-50_260595134347_rgbf000102-resize-original.jpg,3529,1133237,1436379,40
986805,DepthScenes,duration_discrimination,discrim_jsons/shuffled_g0_dr.json,http://54.89.209.186/DepthDuration/depth_discrimination_MTurk/DepthDiscrim_HTML.html#1,1,1350,618,1367,768,7-20-2021,8-19-15,44,,,,,,,2567,500,1000,1000,1000,500,,4,3,depth_discrimination_stimuli/001059_2014-06-08_21-53-27_260595134347_rgbf000061-resize_4/001059_2014-06-08_21-53-27_260595134347_rgbf000061-resize-original.jpg,6110,1133237,1436379,40
986805,DepthScenes,duration_discrimination,discrim_jsons/shuffled_g0_dr.json,http://54.89.209.186/DepthDuration/depth_discrimination_MTurk/DepthDiscrim_HTML.html#1,1,1350,618,1367,768,7-20-2021,8-19-15,45,,,,,,,2567,500,1000,1000,1000,500,,3,4,depth_discrimination_stimuli/001724_2014-06-26_19-28-50_260595134347_rgbf000037-resize_7/001724_2014-06-26_19-28-50_260595134347_rgbf000037-resize-original.jpg,8691,1133237,1436379,40
986805,DepthScenes,duration_discrimination,discrim_jsons/shuffled_g0_dr.json,http://54.89.209.186/DepthDuration/depth_discrimination_MTurk/DepthDiscrim_HTML.html#1,1,1350,618,1367,768,7-20-2021,8-19-15,46,,,,,,,2567,500,1000,1000,1000,500,,5,3,depth_discrimination_stimuli/003338_2014-05-20_11-01-23_094959634447_rgbf000051-resize_6/003338_2014-05-20_11-01-23_094959634447_rgbf000051-resize-original.jpg,2917,1133237,1436379,40
986805,DepthScenes,duration_discrimination,discrim_jsons/shuffled_g0_dr.json,http://54.89.209.186/DepthDuration/depth_discrimination_MTurk/DepthDiscrim_HTML.html#1,1,1350,618,1367,768,7-20-2021,8-19-15,47,,,,,,,2567,500,1000,1000,1000,500,,2,3,depth_discrimination_stimuli/000788_2014-06-08_22-34-36_260595134347_rgbf000131-resize_1/000788_2014-06-08_22-34-36_260595134347_rgbf000131-resize-original.jpg,1840,1133237,1436379,40
986805,DepthScenes,duration_discrimination,discrim_jsons/shuffled_g0_dr.json,http://54.89.209.186/DepthDuration/depth_discrimination_MTurk/DepthDiscrim_HTML.html#1,1,1350,618,1367,768,7-20-2021,8-19-15,48,,,,,,,2567,500,1000,1000,1000,500,,4,3,depth_discrimination_stimuli/000929_2014-06-09_16-33-19_260595134347_rgbf000139-resize_0/000929_2014-06-09_16-33-19_260595134347_rgbf000139-resize-original.jpg,1755,1133237,1436379,40
986805,DepthScenes,duration_discrimination,discrim_jsons/shuffled_g0_dr.json,http://54.89.209.186/DepthDuration/depth_discrimination_MTurk/DepthDiscrim_HTML.html#1,1,1350,618,1367,768,7-20-2021,8-19-15,49,,,,,,,2567,500,1000,1000,1000,500,,5,3,depth_discrimination_stimuli/002549_2014-06-24_13-41-39_094959634447_rgbf000022-resize_3/002549_2014-06-24_13-41-39_094959634447_rgbf000022-resize-original.jpg,2340,1133237,1436379,40
986805,DepthScenes,duration_discrimination,discrim_jsons/shuffled_g0_dr.json,http://54.89.209.186/DepthDuration/depth_discrimination_MTurk/DepthDiscrim_HTML.html#1,1,1350,618,1367,768,7-20-2021,8-19-15,50,,,,,,,2567,500,1000,1000,1000,500,,2,4,depth_discrimination_stimuli/000636_2014-06-08_16-39-02_260595134347_rgbf000108-resize_4/000636_2014-06-08_16-39-02_260595134347_rgbf000108-resize-original.jpg,1815,1133237,1436379,40
986805,DepthScenes,duration_discrimination,discrim_jsons/shuffled_g0_dr.json,http://54.89.209.186/DepthDuration/depth_discrimination_MTurk/DepthDiscrim_HTML.html#1,1,1350,618,1367,768,7-20-2021,8-19-15,51,,,,,,,2567,500,1000,1000,1000,500,,3,3,depth_discrimination_stimuli/000749_2014-06-08_21-55-06_260595134347_rgbf000070-resize_2/000749_2014-06-08_21-55-06_260595134347_rgbf000070-resize-original.jpg,5210,1133237,1436379,40
986805,DepthScenes,duration_discrimination,discrim_jsons/shuffled_g0_dr.json,http://54.89.209.186/DepthDuration/depth_discrimination_MTurk/DepthDiscrim_HTML.html#1,1,1350,618,1367,768,7-20-2021,8-19-15,52,,,,,,,2567,500,1000,1000,1000,500,,5,4,depth_discrimination_stimuli/002570_2014-06-24_13-59-54_094959634447_rgbf000059-resize_0/002570_2014-06-24_13-59-54_094959634447_rgbf000059-resize-original.jpg,2879,1133237,1436379,40
986805,DepthScenes,duration_discrimination,discrim_jsons/shuffled_g0_dr.json,http://54.89.209.186/DepthDuration/depth_discrimination_MTurk/DepthDiscrim_HTML.html#1,1,1350,618,1367,768,7-20-2021,8-19-15,53,,,,,,,2567,500,1000,1000,1000,500,,3,4,depth_discrimination_stimuli/001199_2014-06-17_16-03-48_260595134347_rgbf000077-resize_0/001199_2014-06-17_16-03-48_260595134347_rgbf000077-resize-original.jpg,2330,1133237,1436379,40
986805,DepthScenes,duration_discrimination,discrim_jsons/shuffled_g0_dr.json,http://54.89.209.186/DepthDuration/depth_discrimination_MTurk/DepthDiscrim_HTML.html#1,1,1350,618,1367,768,7-20-2021,8-19-15,54,,,,,,,2567,500,1000,1000,1000,500,,4,3,depth_discrimination_stimuli/001806_2014-06-26_20-50-20_260595134347_rgbf000091-resize_1/001806_2014-06-26_20-50-20_260595134347_rgbf000091-resize-original.jpg,2518,1133237,1436379,40
986805,DepthScenes,duration_discrimination,discrim_jsons/shuffled_g0_dr.json,http://54.89.209.186/DepthDuration/depth_discrimination_MTurk/DepthDiscrim_HTML.html#1,1,1350,618,1367,768,7-20-2021,8-19-15,55,,,,,,,2567,500,1000,1000,1000,500,,3,5,depth_discrimination_stimuli/002579_2014-06-24_14-08-03_094959634447_rgbf000061-resize_2/002579_2014-06-24_14-08-03_094959634447_rgbf000061-resize-original.jpg,3230,1133237,1436379,40
986805,DepthScenes,duration_discrimination,discrim_jsons/shuffled_g0_dr.json,http://54.89.209.186/DepthDuration/depth_discrimination_MTurk/DepthDiscrim_HTML.html#1,1,1350,618,1367,768,7-20-2021,8-19-15,56,,,,,,,2567,500,1000,1000,1000,500,,3,4,depth_discrimination_stimuli/002103_2014-06-25_20-00-40_260595134347_rgbf000049-resize_0/002103_2014-06-25_20-00-40_260595134347_rgbf000049-resize-original.jpg,3080,1133237,1436379,40
986805,DepthScenes,duration_discrimination,discrim_jsons/shuffled_g0_dr.json,http://54.89.209.186/DepthDuration/depth_discrimination_MTurk/DepthDiscrim_HTML.html#1,1,1350,618,1367,768,7-20-2021,8-19-15,57,,,,,,,2567,500,1000,1000,1000,500,,5,4,depth_discrimination_stimuli/003048_2014-06-15_13-49-43_094959634447_rgbf000150-resize_1/003048_2014-06-15_13-49-43_094959634447_rgbf000150-resize-original.jpg,2550,1133237,1436379,40
986805,DepthScenes,duration_discrimination,discrim_jsons/shuffled_g0_dr.json,http://54.89.209.186/DepthDuration/depth_discrimination_MTurk/DepthDiscrim_HTML.html#1,1,1350,618,1367,768,7-20-2021,8-19-15,58,,,,,,,2567,500,1000,1000,1000,500,,4,3,depth_discrimination_stimuli/003534_2014-05-22_15-06-10_094959634447_rgbf000102-resize_4/003534_2014-05-22_15-06-10_094959634447_rgbf000102-resize-original.jpg,2129,1133237,1436379,40
986805,DepthScenes,duration_discrimination,discrim_jsons/shuffled_g0_dr.json,http://54.89.209.186/DepthDuration/depth_discrimination_MTurk/DepthDiscrim_HTML.html#1,1,1350,618,1367,768,7-20-2021,8-19-15,59,,,,,,,2567,500,1000,1000,1000,500,,3,5,scene_property_catch_stimuli/sun_bpzzatthlcapxzol.jpg,2140,1133237,1436379,40
986805,DepthScenes,duration_discrimination,discrim_jsons/shuffled_g0_dr.json,http://54.89.209.186/DepthDuration/depth_discrimination_MTurk/DepthDiscrim_HTML.html#1,1,1350,618,1367,768,7-20-2021,8-19-15,60,,,,,,,2567,500,1000,1000,1000,500,,3,4,depth_discrimination_stimuli/002467_2014-06-28_20-38-07_260595134347_rgbf000026-resize_2/002467_2014-06-28_20-38-07_260595134347_rgbf000026-resize-original.jpg,2100,1133237,1436379,40
986805,DepthScenes,duration_discrimination,discrim_jsons/shuffled_g0_dr.json,http://54.89.209.186/DepthDuration/depth_discrimination_MTurk/DepthDiscrim_HTML.html#1,1,1350,618,1367,768,7-20-2021,8-19-15,61,,,,,,,2567,500,1000,1000,1000,500,,3,4,depth_discrimination_stimuli/002905_2014-06-03_18-04-43_094959634447_rgbf000151-resize_2/002905_2014-06-03_18-04-43_094959634447_rgbf000151-resize-original.jpg,37009,1133237,1436379,40
986805,DepthScenes,duration_discrimination,discrim_jsons/shuffled_g0_dr.json,http://54.89.209.186/DepthDuration/depth_discrimination_MTurk/DepthDiscrim_HTML.html#1,1,1350,618,1367,768,7-20-2021,8-19-15,62,,,,,,,2567,500,1000,1000,1000,500,,3,5,depth_discrimination_stimuli/001133_2014-06-17_14-49-16_260595134347_rgbf000100-resize_0/001133_2014-06-17_14-49-16_260595134347_rgbf000100-resize-original.jpg,1670,1133237,1436379,40
986805,DepthScenes,duration_discrimination,discrim_jsons/shuffled_g0_dr.json,http://54.89.209.186/DepthDuration/depth_discrimination_MTurk/DepthDiscrim_HTML.html#1,1,1350,618,1367,768,7-20-2021,8-19-15,63,,,,,,,2567,500,1000,1000,1000,500,,3,4,depth_discrimination_stimuli/001150_2014-06-17_15-27-34_260595134347_rgbf000108-resize_2/001150_2014-06-17_15-27-34_260595134347_rgbf000108-resize-original.jpg,1538,1133237,1436379,40
986805,DepthScenes,duration_discrimination,discrim_jsons/shuffled_g0_dr.json,http://54.89.209.186/DepthDuration/depth_discrimination_MTurk/DepthDiscrim_HTML.html#1,1,1350,618,1367,768,7-20-2021,8-19-15,64,,,,,,,2567,500,1000,1000,1000,500,,4,5,depth_discrimination_stimuli/001808_2014-06-26_20-50-58_260595134347_rgbf000029-resize_1/001808_2014-06-26_20-50-58_260595134347_rgbf000029-resize-original.jpg,1590,1133237,1436379,40
986805,DepthScenes,duration_discrimination,discrim_jsons/shuffled_g0_dr.json,http://54.89.209.186/DepthDuration/depth_discrimination_MTurk/DepthDiscrim_HTML.html#1,1,1350,618,1367,768,7-20-2021,8-19-15,65,,,,,,,2567,500,1000,1000,1000,500,,5,3,depth_discrimination_stimuli/002545_2014-06-24_13-38-53_094959634447_rgbf000080-resize_4/002545_2014-06-24_13-38-53_094959634447_rgbf000080-resize-original.jpg,1671,1133237,1436379,40
986805,DepthScenes,duration_discrimination,discrim_jsons/shuffled_g0_dr.json,http://54.89.209.186/DepthDuration/depth_discrimination_MTurk/DepthDiscrim_HTML.html#1,1,1350,618,1367,768,7-20-2021,8-19-15,66,,,,,,,2567,500,1000,1000,1000,500,,3,4,depth_discrimination_stimuli/000682_2014-06-08_23-14-58_260595134347_rgbf000041-resize_5/000682_2014-06-08_23-14-58_260595134347_rgbf000041-resize-original.jpg,1315,1133237,1436379,40
986805,DepthScenes,duration_discrimination,discrim_jsons/shuffled_g0_dr.json,http://54.89.209.186/DepthDuration/depth_discrimination_MTurk/DepthDiscrim_HTML.html#1,1,1350,618,1367,768,7-20-2021,8-19-15,67,,,,,,,2567,500,1000,1000,1000,500,,3,4,depth_discrimination_stimuli/001571_2014-06-20_17-21-32_260595134347_rgbf000089-resize_1/001571_2014-06-20_17-21-32_260595134347_rgbf000089-resize-original.jpg,20634,1133237,1436379,40
986805,DepthScenes,duration_discrimination,discrim_jsons/shuffled_g0_dr.json,http://54.89.209.186/DepthDuration/depth_discrimination_MTurk/DepthDiscrim_HTML.html#1,1,1350,618,1367,768,7-20-2021,8-19-15,68,,,,,,,2567,500,1000,1000,1000,500,,4,5,depth_discrimination_stimuli/001584_2014-06-20_11-07-43_260595134347_rgbf000002-resize_1/001584_2014-06-20_11-07-43_260595134347_rgbf000002-resize-original.jpg,1611,1133237,1436379,40
986805,DepthScenes,duration_discrimination,discrim_jsons/shuffled_g0_dr.json,http://54.89.209.186/DepthDuration/depth_discrimination_MTurk/DepthDiscrim_HTML.html#1,1,1350,618,1367,768,7-20-2021,8-19-15,69,,,,,,,2567,500,1000,1000,1000,500,,5,3,depth_discrimination_stimuli/002987_2014-06-08_18-48-20_094959634447_rgbf000022-resize_0/002987_2014-06-08_18-48-20_094959634447_rgbf000022-resize-original.jpg,1638,1133237,1436379,40
986805,DepthScenes,duration_discrimination,discrim_jsons/shuffled_g0_dr.json,http://54.89.209.186/DepthDuration/depth_discrimination_MTurk/DepthDiscrim_HTML.html#1,1,1350,618,1367,768,7-20-2021,8-19-15,70,,,,,,,2567,500,1000,1000,1000,500,,3,2,depth_discrimination_stimuli/000542_2014-06-08_18-27-08_260595134347_rgbf000118-resize_1/000542_2014-06-08_18-27-08_260595134347_rgbf000118-resize-original.jpg,2009,1133237,1436379,40
986805,DepthScenes,duration_discrimination,discrim_jsons/shuffled_g0_dr.json,http://54.89.209.186/DepthDuration/depth_discrimination_MTurk/DepthDiscrim_HTML.html#1,1,1350,618,1367,768,7-20-2021,8-19-15,71,,,,,,,2567,500,1000,1000,1000,500,,4,2,depth_discrimination_stimuli/000878_2014-06-08_22-52-45_260595134347_rgbf000045-resize_2/000878_2014-06-08_22-52-45_260595134347_rgbf000045-resize-original.jpg,1440,1133237,1436379,40
986805,DepthScenes,duration_discrimination,discrim_jsons/shuffled_g0_dr.json,http://54.89.209.186/DepthDuration/depth_discrimination_MTurk/DepthDiscrim_HTML.html#1,1,1350,768,1367,768,7-20-2021,8-19-15,72,,,,,,,2567,500,1000,1000,1000,500,,3,5,depth_discrimination_stimuli/001092_2014-06-15_17-34-58_260595134347_rgbf000171-resize_3/001092_2014-06-15_17-34-58_260595134347_rgbf000171-resize-original.jpg,8880,1133237,1436379,40
986805,DepthScenes,duration_discrimination,discrim_jsons/shuffled_g0_dr.json,http://54.89.209.186/DepthDuration/depth_discrimination_MTurk/DepthDiscrim_HTML.html#1,1,1350,768,1367,768,7-20-2021,8-19-15,73,,,,,,,2567,500,1000,1000,1000,500,,5,4,depth_discrimination_stimuli/000736_2014-06-08_18-24-15_260595134347_rgbf000206-resize_3/000736_2014-06-08_18-24-15_260595134347_rgbf000206-resize-original.jpg,1758,1133237,1436379,40
986805,DepthScenes,duration_discrimination,discrim_jsons/shuffled_g0_dr.json,http://54.89.209.186/DepthDuration/depth_discrimination_MTurk/DepthDiscrim_HTML.html#1,1,1350,768,1367,768,7-20-2021,8-19-15,74,,,,,,,2567,500,1000,1000,1000,500,,3,4,depth_discrimination_stimuli/002964_2014-06-08_17-46-11_094959634447_rgbf000091-resize_4/002964_2014-06-08_17-46-11_094959634447_rgbf000091-resize-original.jpg,1530,1133237,1436379,40
986805,DepthScenes,duration_discrimination,discrim_jsons/shuffled_g0_dr.json,http://54.89.209.186/DepthDuration/depth_discrimination_MTurk/DepthDiscrim_HTML.html#1,1,1350,768,1367,768,7-20-2021,8-19-15,75,,,,,,,2567,500,1000,1000,1000,500,,5,4,depth_discrimination_stimuli/002468_2014-06-28_20-38-39_260595134347_rgbf000045-resize_1/002468_2014-06-28_20-38-39_260595134347_rgbf000045-resize-original.jpg,1688,1133237,1436379,40
986805,DepthScenes,duration_discrimination,discrim_jsons/shuffled_g0_dr.json,http://54.89.209.186/DepthDuration/depth_discrimination_MTurk/DepthDiscrim_HTML.html#1,1,1350,768,1367,768,7-20-2021,8-19-15,76,,,,,,,2567,500,1000,1000,1000,500,,3,2,depth_discrimination_stimuli/000906_2014-06-08_13-35-43_260595134347_rgbf000155-resize_1/000906_2014-06-08_13-35-43_260595134347_rgbf000155-resize-original.jpg,1641,1133237,1436379,40
986805,DepthScenes,duration_discrimination,discrim_jsons/shuffled_g0_dr.json,http://54.89.209.186/DepthDuration/depth_discrimination_MTurk/DepthDiscrim_HTML.html#1,1,1350,768,1367,768,7-20-2021,8-19-15,77,,,,,,,2567,500,1000,1000,1000,500,,5,4,depth_discrimination_stimuli/002953_2014-06-08_17-32-18_094959634447_rgbf000059-resize_5/002953_2014-06-08_17-32-18_094959634447_rgbf000059-resize-original.jpg,1849,1133237,1436379,40
986805,DepthScenes,duration_discrimination,discrim_jsons/shuffled_g0_dr.json,http://54.89.209.186/DepthDuration/depth_discrimination_MTurk/DepthDiscrim_HTML.html#1,1,1350,768,1367,768,7-20-2021,8-19-15,78,,,,,,,2567,500,1000,1000,1000,500,,4,3,depth_discrimination_stimuli/000522_2014-06-08_13-35-06_260595134347_rgbf000244-resize_1/000522_2014-06-08_13-35-06_260595134347_rgbf000244-resize-original.jpg,3689,1133237,1436379,40
986805,DepthScenes,duration_discrimination,discrim_jsons/shuffled_g0_dr.json,http://54.89.209.186/DepthDuration/depth_discrimination_MTurk/DepthDiscrim_HTML.html#1,1,1350,768,1367,768,7-20-2021,8-19-15,79,,,,,,,2567,500,1000,1000,1000,500,,5,3,scene_property_catch_stimuli/000675_2014-06-08_22-59-18_260595134347_rgbf000096-resize.jpg,1484,1133237,1436379,40
986805,DepthScenes,duration_discrimination,discrim_jsons/shuffled_g0_dr.json,http://54.89.209.186/DepthDuration/depth_discrimination_MTurk/DepthDiscrim_HTML.html#1,1,1350,768,1367,768,7-20-2021,8-19-15,80,,,,,,,2567,500,1000,1000,1000,500,,2,4,depth_discrimination_stimuli/001100_2014-06-15_17-46-26_260595134347_rgbf000225-resize_2/001100_2014-06-15_17-46-26_260595134347_rgbf000225-resize-original.jpg,1674,1133237,1436379,40
986805,DepthScenes,duration_discrimination,discrim_jsons/shuffled_g0_dr.json,http://54.89.209.186/DepthDuration/depth_discrimination_MTurk/DepthDiscrim_HTML.html#1,1,1350,768,1367,768,7-20-2021,8-19-15,81,,,,,,,2567,500,1000,1000,1000,500,,3,4,depth_discrimination_stimuli/000780_2014-06-08_22-28-29_260595134347_rgbf000126-resize_1/000780_2014-06-08_22-28-29_260595134347_rgbf000126-resize-original.jpg,1349,1133237,1436379,40
986805,DepthScenes,duration_discrimination,discrim_jsons/shuffled_g0_dr.json,http://54.89.209.186/DepthDuration/depth_discrimination_MTurk/DepthDiscrim_HTML.html#1,1,1350,768,1367,768,7-20-2021,8-19-15,82,,,,,,,2567,500,1000,1000,1000,500,,3,5,depth_discrimination_stimuli/000505_2014-06-08_23-03-23_260595134347_rgbf000091-resize_0/000505_2014-06-08_23-03-23_260595134347_rgbf000091-resize-original.jpg,1450,1133237,1436379,40
986805,DepthScenes,duration_discrimination,discrim_jsons/shuffled_g0_dr.json,http://54.89.209.186/DepthDuration/depth_discrimination_MTurk/DepthDiscrim_HTML.html#1,1,1350,768,1367,768,7-20-2021,8-19-15,83,,,,,,,2567,500,1000,1000,1000,500,,2,4,depth_discrimination_stimuli/003587_2014-05-23_16-48-02_094959634447_rgbf002384-resize_2/003587_2014-05-23_16-48-02_094959634447_rgbf002384-resize-original.jpg,1438,1133237,1436379,40
986805,DepthScenes,duration_discrimination,discrim_jsons/shuffled_g0_dr.json,http://54.89.209.186/DepthDuration/depth_discrimination_MTurk/DepthDiscrim_HTML.html#1,1,1350,768,1367,768,7-20-2021,8-19-15,84,,,,,,,2567,500,1000,1000,1000,500,,4,5,depth_discrimination_stimuli/002748_2014-06-22_19-07-22_094959634447_rgbf000078-resize_1/002748_2014-06-22_19-07-22_094959634447_rgbf000078-resize-original.jpg,2171,1133237,1436379,40
986805,DepthScenes,duration_discrimination,discrim_jsons/shuffled_g0_dr.json,http://54.89.209.186/DepthDuration/depth_discrimination_MTurk/DepthDiscrim_HTML.html#1,1,1350,768,1367,768,7-20-2021,8-19-15,85,,,,,,,2567,500,1000,1000,1000,500,,5,3,depth_discrimination_stimuli/001175_2014-06-17_15-45-55_260595134347_rgbf000129-resize_4/001175_2014-06-17_15-45-55_260595134347_rgbf000129-resize-original.jpg,1363,1133237,1436379,40
986805,DepthScenes,duration_discrimination,discrim_jsons/shuffled_g0_dr.json,http://54.89.209.186/DepthDuration/depth_discrimination_MTurk/DepthDiscrim_HTML.html#1,1,1350,768,1367,768,7-20-2021,8-19-15,86,,,,,,,2567,500,1000,1000,1000,500,,2,4,depth_discrimination_stimuli/002444_2014-06-28_20-32-08_260595134347_rgbf000027-resize_0/002444_2014-06-28_20-32-08_260595134347_rgbf000027-resize-original.jpg,1376,1133237,1436379,40
986805,DepthScenes,duration_discrimination,discrim_jsons/shuffled_g0_dr.json,http://54.89.209.186/DepthDuration/depth_discrimination_MTurk/DepthDiscrim_HTML.html#1,1,1350,768,1367,768,7-20-2021,8-19-15,87,,,,,,,2567,500,1000,1000,1000,500,,4,3,depth_discrimination_stimuli/001052_2014-06-08_18-24-54_260595134347_rgbf000130-resize_1/001052_2014-06-08_18-24-54_260595134347_rgbf000130-resize-original.jpg,1369,1133237,1436379,40
986805,DepthScenes,duration_discrimination,discrim_jsons/shuffled_g0_dr.json,http://54.89.209.186/DepthDuration/depth_discrimination_MTurk/DepthDiscrim_HTML.html#1,1,1350,768,1367,768,7-20-2021,8-19-15,88,,,,,,,2567,500,1000,1000,1000,500,,2,5,depth_discrimination_stimuli/002323_2014-06-28_20-01-54_260595134347_rgbf000051-resize_4/002323_2014-06-28_20-01-54_260595134347_rgbf000051-resize-original.jpg,1499,1133237,1436379,40
986805,DepthScenes,duration_discrimination,discrim_jsons/shuffled_g0_dr.json,http://54.89.209.186/DepthDuration/depth_discrimination_MTurk/DepthDiscrim_HTML.html#1,1,1350,768,1367,768,7-20-2021,8-19-15,89,,,,,,,2567,500,1000,1000,1000,500,,5,4,depth_discrimination_stimuli/001181_2014-06-17_15-50-57_260595134347_rgbf000106-resize_4/001181_2014-06-17_15-50-57_260595134347_rgbf000106-resize-original.jpg,2101,1133237,1436379,40
986805,DepthScenes,duration_discrimination,discrim_jsons/shuffled_g0_dr.json,http://54.89.209.186/DepthDuration/depth_discrimination_MTurk/DepthDiscrim_HTML.html#1,1,1350,768,1367,768,7-20-2021,8-19-15,90,,,,,,,2567,500,1000,1000,1000,500,,4,3,depth_discrimination_stimuli/002139_2014-06-25_21-19-37_260595134347_rgbf000124-resize_2/002139_2014-06-25_21-19-37_260595134347_rgbf000124-resize-original.jpg,1180,1133237,1436379,40
986805,DepthScenes,duration_discrimination,discrim_jsons/shuffled_g0_dr.json,http://54.89.209.186/DepthDuration/depth_discrimination_MTurk/DepthDiscrim_HTML.html#1,1,1350,768,1367,768,7-20-2021,8-19-15,91,,,,,,,2567,500,1000,1000,1000,500,,3,2,depth_discrimination_stimuli/000709_2014-06-08_13-51-55_260595134347_rgbf000068-resize_3/000709_2014-06-08_13-51-55_260595134347_rgbf000068-resize-original.jpg,1329,1133237,1436379,40
986805,DepthScenes,duration_discrimination,discrim_jsons/shuffled_g0_dr.json,http://54.89.209.186/DepthDuration/depth_discrimination_MTurk/DepthDiscrim_HTML.html#1,1,1350,768,1367,768,7-20-2021,8-19-15,92,,,,,,,2567,500,1000,1000,1000,500,,5,4,depth_discrimination_stimuli/002057_2014-06-24_21-00-13_260595134347_rgbf000120-resize_1/002057_2014-06-24_21-00-13_260595134347_rgbf000120-resize-original.jpg,1461,1133237,1436379,40
986805,DepthScenes,duration_discrimination,discrim_jsons/shuffled_g0_dr.json,http://54.89.209.186/DepthDuration/depth_discrimination_MTurk/DepthDiscrim_HTML.html#1,1,1350,768,1367,768,7-20-2021,8-19-15,93,,,,,,,2567,500,1000,1000,1000,500,,4,3,depth_discrimination_stimuli/000109_2014-05-14_23-41-52_260595134347_rgbf000035-resize_9/000109_2014-05-14_23-41-52_260595134347_rgbf000035-resize-original.jpg,1459,1133237,1436379,40
986805,DepthScenes,duration_discrimination,discrim_jsons/shuffled_g0_dr.json,http://54.89.209.186/DepthDuration/depth_discrimination_MTurk/DepthDiscrim_HTML.html#1,1,1350,768,1367,768,7-20-2021,8-19-15,94,,,,,,,2567,500,1000,1000,1000,500,,4,5,depth_discrimination_stimuli/001056_2014-06-08_18-46-44_260595134347_rgbf000068-resize_0/001056_2014-06-08_18-46-44_260595134347_rgbf000068-resize-original.jpg,2790,1133237,1436379,40
986805,DepthScenes,duration_discrimination,discrim_jsons/shuffled_g0_dr.json,http://54.89.209.186/DepthDuration/depth_discrimination_MTurk/DepthDiscrim_HTML.html#1,1,1350,768,1367,768,7-20-2021,8-19-15,95,,,,,,,2567,500,1000,1000,1000,500,,5,4,depth_discrimination_stimuli/000103_2014-05-14_22-01-17_260595134347_rgbf000152-resize_5/000103_2014-05-14_22-01-17_260595134347_rgbf000152-resize-original.jpg,2270,1133237,1436379,40
986805,DepthScenes,duration_discrimination,discrim_jsons/shuffled_g0_dr.json,http://54.89.209.186/DepthDuration/depth_discrimination_MTurk/DepthDiscrim_HTML.html#1,1,1350,768,1367,768,7-20-2021,8-19-15,96,,,,,,,2567,500,1000,1000,1000,500,,4,3,depth_discrimination_stimuli/001016_2014-06-09_16-16-10_260595134347_rgbf000112-resize_5/001016_2014-06-09_16-16-10_260595134347_rgbf000112-resize-original.jpg,2009,1133237,1436379,40
986805,DepthScenes,duration_discrimination,discrim_jsons/shuffled_g0_dr.json,http://54.89.209.186/DepthDuration/depth_discrimination_MTurk/DepthDiscrim_HTML.html#1,1,1350,768,1367,768,7-20-2021,8-19-15,97,,,,,,,2567,500,1000,1000,1000,500,,2,5,depth_discrimination_stimuli/002043_2014-06-24_20-29-38_260595134347_rgbf000039-resize_4/002043_2014-06-24_20-29-38_260595134347_rgbf000039-resize-original.jpg,1979,1133237,1436379,40
986805,DepthScenes,duration_discrimination,discrim_jsons/shuffled_g0_dr.json,http://54.89.209.186/DepthDuration/depth_discrimination_MTurk/DepthDiscrim_HTML.html#1,1,1350,768,1367,768,7-20-2021,8-19-15,98,,,,,,,2567,500,1000,1000,1000,500,,4,3,depth_discrimination_stimuli/002989_2014-06-15_12-25-03_094959634447_rgbf000150-resize_3/002989_2014-06-15_12-25-03_094959634447_rgbf000150-resize-original.jpg,1789,1133237,1436379,40
986805,DepthScenes,duration_discrimination,discrim_jsons/shuffled_g0_dr.json,http://54.89.209.186/DepthDuration/depth_discrimination_MTurk/DepthDiscrim_HTML.html#1,1,1350,768,1367,768,7-20-2021,8-19-15,99,,,,,,,2567,500,1000,1000,1000,500,,3,5,depth_discrimination_stimuli/003083_2014-06-15_15-21-03_094959634447_rgbf000063-resize_1/003083_2014-06-15_15-21-03_094959634447_rgbf000063-resize-original.jpg,11331,1133237,1436379,40
986805,DepthScenes,duration_discrimination,discrim_jsons/shuffled_g0_dr.json,http://54.89.209.186/DepthDuration/depth_discrimination_MTurk/DepthDiscrim_HTML.html#1,1,1350,768,1367,768,7-20-2021,8-19-15,100,,,,,,,2567,500,1000,1000,1000,500,,5,4,depth_discrimination_stimuli/003492_2014-05-21_15-50-55_094959634447_rgbf000828-resize_1/003492_2014-05-21_15-50-55_094959634447_rgbf000828-resize-original.jpg,1719,1133237,1436379,40
986805,DepthScenes,duration_discrimination,discrim_jsons/shuffled_g0_dr.json,http://54.89.209.186/DepthDuration/depth_discrimination_MTurk/DepthDiscrim_HTML.html#1,1,1350,768,1367,768,7-20-2021,8-19-15,101,,,,,,,2567,500,1000,1000,1000,500,,3,2,depth_discrimination_stimuli/001244_2014-06-17_16-47-45_260595134347_rgbf000030-resize_4/001244_2014-06-17_16-47-45_260595134347_rgbf000030-resize-original.jpg,1392,1133237,1436379,40
986805,DepthScenes,duration_discrimination,discrim_jsons/shuffled_g0_dr.json,http://54.89.209.186/DepthDuration/depth_discrimination_MTurk/DepthDiscrim_HTML.html#1,1,1350,768,1367,768,7-20-2021,8-19-15,102,,,,,,,2567,500,1000,1000,1000,500,,3,4,depth_discrimination_stimuli/000740_2014-06-08_18-46-23_260595134347_rgbf000049-resize_6/000740_2014-06-08_18-46-23_260595134347_rgbf000049-resize-original.jpg,1898,1133237,1436379,40
986805,DepthScenes,duration_discrimination,discrim_jsons/shuffled_g0_dr.json,http://54.89.209.186/DepthDuration/depth_discrimination_MTurk/DepthDiscrim_HTML.html#1,1,1350,768,1367,768,7-20-2021,8-19-15,103,,,,,,,2567,500,1000,1000,1000,500,,3,5,depth_discrimination_stimuli/003079_2014-06-15_15-18-20_094959634447_rgbf000152-resize_8/003079_2014-06-15_15-18-20_094959634447_rgbf000152-resize-original.jpg,1730,1133237,1436379,40
986805,DepthScenes,duration_discrimination,discrim_jsons/shuffled_g0_dr.json,http://54.89.209.186/DepthDuration/depth_discrimination_MTurk/DepthDiscrim_HTML.html#1,1,1350,768,1367,768,7-20-2021,8-19-15,104,,,,,,,2567,500,1000,1000,1000,500,,5,4,depth_discrimination_stimuli/001235_2014-06-17_16-37-36_260595134347_rgbf000084-resize_4/001235_2014-06-17_16-37-36_260595134347_rgbf000084-resize-original.jpg,1309,1133237,1436379,40
986805,DepthScenes,duration_discrimination,discrim_jsons/shuffled_g0_dr.json,http://54.89.209.186/DepthDuration/depth_discrimination_MTurk/DepthDiscrim_HTML.html#1,1,1350,768,1367,768,7-20-2021,8-19-15,105,,,,,,,2567,500,1000,1000,1000,500,,4,3,depth_discrimination_stimuli/001617_2014-06-20_11-35-32_260595134347_rgbf000066-resize_1/001617_2014-06-20_11-35-32_260595134347_rgbf000066-resize-original.jpg,1071,1133237,1436379,40
986805,DepthScenes,duration_discrimination,discrim_jsons/shuffled_g0_dr.json,http://54.89.209.186/DepthDuration/depth_discrimination_MTurk/DepthDiscrim_HTML.html#1,1,1350,768,1367,768,7-20-2021,8-19-15,106,,,,,,,2567,500,1000,1000,1000,500,,4,5,depth_discrimination_stimuli/002763_2014-06-22_19-13-10_094959634447_rgbf000075-resize_4/002763_2014-06-22_19-13-10_094959634447_rgbf000075-resize-original.jpg,1893,1133237,1436379,40
986805,DepthScenes,duration_discrimination,discrim_jsons/shuffled_g0_dr.json,http://54.89.209.186/DepthDuration/depth_discrimination_MTurk/DepthDiscrim_HTML.html#1,1,1350,768,1367,768,7-20-2021,8-19-15,107,,,,,,,2567,500,1000,1000,1000,500,,3,5,depth_discrimination_stimuli/001158_2014-06-17_15-32-16_260595134347_rgbf000138-resize_2/001158_2014-06-17_15-32-16_260595134347_rgbf000138-resize-original.jpg,1955,1133237,1436379,40
986805,DepthScenes,duration_discrimination,discrim_jsons/shuffled_g0_dr.json,http://54.89.209.186/DepthDuration/depth_discrimination_MTurk/DepthDiscrim_HTML.html#1,1,1350,768,1367,768,7-20-2021,8-19-15,108,,,,,,,2567,500,1000,1000,1000,500,,5,4,depth_discrimination_stimuli/000555_2014-06-09_22-42-23_260595134347_rgbf000037-resize_4/000555_2014-06-09_22-42-23_260595134347_rgbf000037-resize-original.jpg,1959,1133237,1436379,40
986805,DepthScenes,duration_discrimination,discrim_jsons/shuffled_g0_dr.json,http://54.89.209.186/DepthDuration/depth_discrimination_MTurk/DepthDiscrim_HTML.html#1,1,1350,768,1367,768,7-20-2021,8-19-15,109,,,,,,,2567,500,1000,1000,1000,500,,4,3,depth_discrimination_stimuli/000469_2014-06-09_19-42-10_260595134347_rgbf000081-resize_1/000469_2014-06-09_19-42-10_260595134347_rgbf000081-resize-original.jpg,1489,1133237,1436379,40
986805,DepthScenes,duration_discrimination,discrim_jsons/shuffled_g0_dr.json,http://54.89.209.186/DepthDuration/depth_discrimination_MTurk/DepthDiscrim_HTML.html#1,1,1350,768,1367,768,7-20-2021,8-19-15,110,,,,,,,2567,500,1000,1000,1000,500,,2,5,depth_discrimination_stimuli/000414_2014-06-04_19-49-13_260595134347_rgbf000044-resize_0/000414_2014-06-04_19-49-13_260595134347_rgbf000044-resize-original.jpg,2329,1133237,1436379,40
986805,DepthScenes,duration_discrimination,discrim_jsons/shuffled_g0_dr.json,http://54.89.209.186/DepthDuration/depth_discrimination_MTurk/DepthDiscrim_HTML.html#1,1,1350,768,1367,768,7-20-2021,8-19-15,111,,,,,,,2567,500,1000,1000,1000,500,,4,3,depth_discrimination_stimuli/000810_2014-06-08_17-20-01_260595134347_rgbf000105-resize_0/000810_2014-06-08_17-20-01_260595134347_rgbf000105-resize-original.jpg,1610,1133237,1436379,40
986805,DepthScenes,duration_discrimination,discrim_jsons/shuffled_g0_dr.json,http://54.89.209.186/DepthDuration/depth_discrimination_MTurk/DepthDiscrim_HTML.html#1,1,1350,768,1367,768,7-20-2021,8-19-15,112,,,,,,,2567,500,1000,1000,1000,500,,3,5,depth_discrimination_stimuli/002118_2014-06-25_20-32-08_260595134347_rgbf000078-resize_1/002118_2014-06-25_20-32-08_260595134347_rgbf000078-resize-original.jpg,2588,1133237,1436379,40
986805,DepthScenes,duration_discrimination,discrim_jsons/shuffled_g0_dr.json,http://54.89.209.186/DepthDuration/depth_discrimination_MTurk/DepthDiscrim_HTML.html#1,1,1350,768,1367,768,7-20-2021,8-19-15,113,,,,,,,2567,500,1000,1000,1000,500,,5,4,depth_discrimination_stimuli/002375_2014-06-28_20-13-44_260595134347_rgbf000032-resize_1/002375_2014-06-28_20-13-44_260595134347_rgbf000032-resize-original.jpg,2580,1133237,1436379,40
986805,DepthScenes,duration_discrimination,discrim_jsons/shuffled_g0_dr.json,http://54.89.209.186/DepthDuration/depth_discrimination_MTurk/DepthDiscrim_HTML.html#1,1,1350,768,1367,768,7-20-2021,8-19-15,114,,,,,,,2567,500,1000,1000,1000,500,,4,5,depth_discrimination_stimuli/002272_2014-06-28_18-53-56_260595134347_rgbf000067-resize_2/002272_2014-06-28_18-53-56_260595134347_rgbf000067-resize-original.jpg,3541,1133237,1436379,40
986805,DepthScenes,duration_discrimination,discrim_jsons/shuffled_g0_dr.json,http://54.89.209.186/DepthDuration/depth_discrimination_MTurk/DepthDiscrim_HTML.html#1,1,1350,768,1367,768,7-20-2021,8-19-15,115,,,,,,,2567,500,1000,1000,1000,500,,4,3,depth_discrimination_stimuli/002784_2014-06-22_19-26-30_094959634447_rgbf000083-resize_3/002784_2014-06-22_19-26-30_094959634447_rgbf000083-resize-original.jpg,3939,1133237,1436379,40
986805,DepthScenes,duration_discrimination,discrim_jsons/shuffled_g0_dr.json,http://54.89.209.186/DepthDuration/depth_discrimination_MTurk/DepthDiscrim_HTML.html#1,1,1350,768,1367,768,7-20-2021,8-19-15,116,,,,,,,2567,500,1000,1000,1000,500,,5,3,depth_discrimination_stimuli/001029_2014-06-08_13-17-57_260595134347_rgbf000065-resize_1/001029_2014-06-08_13-17-57_260595134347_rgbf000065-resize-original.jpg,2541,1133237,1436379,40
986805,DepthScenes,duration_discrimination,discrim_jsons/shuffled_g0_dr.json,http://54.89.209.186/DepthDuration/depth_discrimination_MTurk/DepthDiscrim_HTML.html#1,1,1350,768,1367,768,7-20-2021,8-19-15,117,,,,,,,2567,500,1000,1000,1000,500,,3,4,depth_discrimination_stimuli/001450_2014-06-19_17-02-03_260595134347_rgbf000203-resize_4/001450_2014-06-19_17-02-03_260595134347_rgbf000203-resize-original.jpg,2018,1133237,1436379,40
986805,DepthScenes,duration_discrimination,discrim_jsons/shuffled_g0_dr.json,http://54.89.209.186/DepthDuration/depth_discrimination_MTurk/DepthDiscrim_HTML.html#1,1,1350,768,1367,768,7-20-2021,8-19-15,118,,,,,,,2567,500,1000,1000,1000,500,,5,4,depth_discrimination_stimuli/000917_2014-06-09_22-45-29_260595134347_rgbf000149-resize_3/000917_2014-06-09_22-45-29_260595134347_rgbf000149-resize-original.jpg,1870,1133237,1436379,40
986805,DepthScenes,duration_discrimination,discrim_jsons/shuffled_g0_dr.json,http://54.89.209.186/DepthDuration/depth_discrimination_MTurk/DepthDiscrim_HTML.html#1,1,1350,768,1367,768,7-20-2021,8-19-15,119,,,,,,,2567,500,1000,1000,1000,500,,4,3,depth_discrimination_stimuli/002131_2014-06-25_21-12-01_260595134347_rgbf000083-resize_0/002131_2014-06-25_21-12-01_260595134347_rgbf000083-resize-original.jpg,2639,1133237,1436379,40
986805,DepthScenes,duration_discrimination,discrim_jsons/shuffled_g0_dr.json,http://54.89.209.186/DepthDuration/depth_discrimination_MTurk/DepthDiscrim_HTML.html#1,1,1350,768,1367,768,7-20-2021,8-19-15,120,,,,,,,2567,500,1000,1000,1000,500,,4,5,depth_discrimination_stimuli/000409_2014-06-04_19-23-33_260595134347_rgbf000067-resize_0/000409_2014-06-04_19-23-33_260595134347_rgbf000067-resize-original.jpg,2640,1133237,1436379,40
986805,DepthScenes,duration_discrimination,discrim_jsons/shuffled_g0_dr.json,http://54.89.209.186/DepthDuration/depth_discrimination_MTurk/DepthDiscrim_HTML.html#1,1,1350,768,1367,768,7-20-2021,8-19-15,121,,,,,,,2567,500,1000,1000,1000,500,,4,3,depth_discrimination_stimuli/002988_2014-06-15_12-24-20_094959634447_rgbf000150-resize_1/002988_2014-06-15_12-24-20_094959634447_rgbf000150-resize-original.jpg,2999,1133237,1436379,40
986805,DepthScenes,duration_discrimination,discrim_jsons/shuffled_g0_dr.json,http://54.89.209.186/DepthDuration/depth_discrimination_MTurk/DepthDiscrim_HTML.html#1,1,1350,768,1367,768,7-20-2021,8-19-15,122,,,,,,,2567,500,1000,1000,1000,500,,3,5,depth_discrimination_stimuli/002213_2014-06-28_18-37-58_260595134347_rgbf000055-resize_1/002213_2014-06-28_18-37-58_260595134347_rgbf000055-resize-original.jpg,2960,1133237,1436379,40
986805,DepthScenes,duration_discrimination,discrim_jsons/shuffled_g0_dr.json,http://54.89.209.186/DepthDuration/depth_discrimination_MTurk/DepthDiscrim_HTML.html#1,1,1350,768,1367,768,7-20-2021,8-19-15,123,,,,,,,2567,500,1000,1000,1000,500,,5,4,depth_discrimination_stimuli/002464_2014-06-28_20-36-57_260595134347_rgbf000029-resize_0/002464_2014-06-28_20-36-57_260595134347_rgbf000029-resize-original.jpg,2260,1133237,1436379,40
986805,DepthScenes,duration_discrimination,discrim_jsons/shuffled_g0_dr.json,http://54.89.209.186/DepthDuration/depth_discrimination_MTurk/DepthDiscrim_HTML.html#1,1,1350,768,1367,768,7-20-2021,8-19-15,124,,,,,,,2567,500,1000,1000,1000,500,,5,4,depth_discrimination_stimuli/002365_2014-06-28_20-11-21_260595134347_rgbf000102-resize_1/002365_2014-06-28_20-11-21_260595134347_rgbf000102-resize-original.jpg,2000,1133237,1436379,40
986805,DepthScenes,duration_discrimination,discrim_jsons/shuffled_g0_dr.json,http://54.89.209.186/DepthDuration/depth_discrimination_MTurk/DepthDiscrim_HTML.html#1,1,1350,768,1367,768,7-20-2021,8-19-15,125,,,,,,,2567,500,1000,1000,1000,500,,4,3,depth_discrimination_stimuli/003129_2014-05-12_10-48-10_094959634447_rgbf000100-resize_0/003129_2014-05-12_10-48-10_094959634447_rgbf000100-resize-original.jpg,2320,1133237,1436379,40
986805,DepthScenes,duration_discrimination,discrim_jsons/shuffled_g0_dr.json,http://54.89.209.186/DepthDuration/depth_discrimination_MTurk/DepthDiscrim_HTML.html#1,1,1350,768,1367,768,7-20-2021,8-19-15,126,,,,,,,2567,500,1000,1000,1000,500,,3,5,depth_discrimination_stimuli/001516_2014-06-20_16-25-09_260595134347_rgbf000076-resize_2/001516_2014-06-20_16-25-09_260595134347_rgbf000076-resize-original.jpg,5700,1133237,1436379,40
986805,DepthScenes,duration_discrimination,discrim_jsons/shuffled_g0_dr.json,http://54.89.209.186/DepthDuration/depth_discrimination_MTurk/DepthDiscrim_HTML.html#1,1,1350,768,1367,768,7-20-2021,8-19-15,127,,,,,,,2567,500,1000,1000,1000,500,,5,4,depth_discrimination_stimuli/001815_2014-06-26_20-52-55_260595134347_rgbf000020-resize_0/001815_2014-06-26_20-52-55_260595134347_rgbf000020-resize-original.jpg,1734,1133237,1436379,40
986805,DepthScenes,duration_discrimination,discrim_jsons/shuffled_g0_dr.json,http://54.89.209.186/DepthDuration/depth_discrimination_MTurk/DepthDiscrim_HTML.html#1,1,1350,768,1367,768,7-20-2021,8-19-15,128,,,,,,,2567,500,1000,1000,1000,500,,3,2,depth_discrimination_stimuli/000470_2014-06-09_19-42-40_260595134347_rgbf000094-resize_1/000470_2014-06-09_19-42-40_260595134347_rgbf000094-resize-original.jpg,1710,1133237,1436379,40
986805,DepthScenes,duration_discrimination,discrim_jsons/shuffled_g0_dr.json,http://54.89.209.186/DepthDuration/depth_discrimination_MTurk/DepthDiscrim_HTML.html#1,1,1350,768,1367,768,7-20-2021,8-19-15,129,,,,,,,2567,500,1000,1000,1000,500,,5,4,depth_discrimination_stimuli/000436_2014-06-09_22-25-11_260595134347_rgbf000137-resize_1/000436_2014-06-09_22-25-11_260595134347_rgbf000137-resize-original.jpg,1643,1133237,1436379,40
986805,DepthScenes,duration_discrimination,discrim_jsons/shuffled_g0_dr.json,http://54.89.209.186/DepthDuration/depth_discrimination_MTurk/DepthDiscrim_HTML.html#1,1,1350,768,1367,768,7-20-2021,8-19-15,130,,,,,,,2567,500,1000,1000,1000,500,,4,3,depth_discrimination_stimuli/000506_2014-06-08_23-21-00_260595134347_rgbf000070-resize_7/000506_2014-06-08_23-21-00_260595134347_rgbf000070-resize-original.jpg,1289,1133237,1436379,40
986805,DepthScenes,duration_discrimination,discrim_jsons/shuffled_g0_dr.json,http://54.89.209.186/DepthDuration/depth_discrimination_MTurk/DepthDiscrim_HTML.html#1,1,1350,768,1367,768,7-20-2021,8-19-15,131,,,,,,,2567,500,1000,1000,1000,500,,2,5,depth_discrimination_stimuli/001392_2014-06-19_16-07-59_260595134347_rgbf000046-resize_1/001392_2014-06-19_16-07-59_260595134347_rgbf000046-resize-original.jpg,1749,1133237,1436379,40
986805,DepthScenes,duration_discrimination,discrim_jsons/shuffled_g0_dr.json,http://54.89.209.186/DepthDuration/depth_discrimination_MTurk/DepthDiscrim_HTML.html#1,1,1350,768,1367,768,7-20-2021,8-19-15,132,,,,,,,2567,500,1000,1000,1000,500,,4,3,scene_property_catch_stimuli/sun_aoquhiddlfqapdlz.jpg,2560,1133237,1436379,40
986805,DepthScenes,duration_discrimination,discrim_jsons/shuffled_g0_dr.json,http://54.89.209.186/DepthDuration/depth_discrimination_MTurk/DepthDiscrim_HTML.html#1,1,1350,768,1367,768,7-20-2021,8-19-15,133,,,,,,,2567,500,1000,1000,1000,500,,4,5,depth_discrimination_stimuli/000486_2014-06-09_20-47-20_260595134347_rgbf000143-resize_2/000486_2014-06-09_20-47-20_260595134347_rgbf000143-resize-original.jpg,3570,1133237,1436379,40
986805,DepthScenes,duration_discrimination,discrim_jsons/shuffled_g0_dr.json,http://54.89.209.186/DepthDuration/depth_discrimination_MTurk/DepthDiscrim_HTML.html#1,1,1350,768,1367,768,7-20-2021,8-19-15,134,,,,,,,2567,500,1000,1000,1000,500,,4,3,depth_discrimination_stimuli/000720_2014-06-08_18-37-27_260595134347_rgbf000203-resize_4/000720_2014-06-08_18-37-27_260595134347_rgbf000203-resize-original.jpg,1630,1133237,1436379,40
986805,DepthScenes,duration_discrimination,discrim_jsons/shuffled_g0_dr.json,http://54.89.209.186/DepthDuration/depth_discrimination_MTurk/DepthDiscrim_HTML.html#1,1,1350,768,1367,768,7-20-2021,8-19-15,135,,,,,,,2567,500,1000,1000,1000,500,,3,5,depth_discrimination_stimuli/002750_2014-06-22_19-08-03_094959634447_rgbf000094-resize_4/002750_2014-06-22_19-08-03_094959634447_rgbf000094-resize-original.jpg,1980,1133237,1436379,40
986805,DepthScenes,duration_discrimination,discrim_jsons/shuffled_g0_dr.json,http://54.89.209.186/DepthDuration/depth_discrimination_MTurk/DepthDiscrim_HTML.html#1,1,1350,768,1367,768,7-20-2021,8-19-15,136,,,,,,,2567,500,1000,1000,1000,500,,5,4,depth_discrimination_stimuli/001136_2014-06-17_15-19-41_260595134347_rgbf000076-resize_3/001136_2014-06-17_15-19-41_260595134347_rgbf000076-resize-original.jpg,2210,1133237,1436379,40
986805,DepthScenes,duration_discrimination,discrim_jsons/shuffled_g0_dr.json,http://54.89.209.186/DepthDuration/depth_discrimination_MTurk/DepthDiscrim_HTML.html#1,1,1350,768,1367,768,7-20-2021,8-19-15,137,,,,,,,2567,500,1000,1000,1000,500,,3,2,depth_discrimination_stimuli/002657_2014-06-13_15-29-54_094959634447_rgbf000150-resize_1/002657_2014-06-13_15-29-54_094959634447_rgbf000150-resize-original.jpg,1700,1133237,1436379,40
986805,DepthScenes,duration_discrimination,discrim_jsons/shuffled_g0_dr.json,http://54.89.209.186/DepthDuration/depth_discrimination_MTurk/DepthDiscrim_HTML.html#1,1,1350,768,1367,768,7-20-2021,8-19-15,138,,,,,,,2567,500,1000,1000,1000,500,,5,4,depth_discrimination_stimuli/000800_2014-06-08_22-42-09_260595134347_rgbf000095-resize_3/000800_2014-06-08_22-42-09_260595134347_rgbf000095-resize-original.jpg,2129,1133237,1436379,40
986805,DepthScenes,duration_discrimination,discrim_jsons/shuffled_g0_dr.json,http://54.89.209.186/DepthDuration/depth_discrimination_MTurk/DepthDiscrim_HTML.html#1,1,1350,768,1367,768,7-20-2021,8-19-15,139,,,,,,,2567,500,1000,1000,1000,500,,4,3,depth_discrimination_stimuli/002700_2014-06-22_11-27-02_094959634447_rgbf000124-resize_3/002700_2014-06-22_11-27-02_094959634447_rgbf000124-resize-original.jpg,1120,1133237,1436379,40
986805,DepthScenes,duration_discrimination,discrim_jsons/shuffled_g0_dr.json,http://54.89.209.186/DepthDuration/depth_discrimination_MTurk/DepthDiscrim_HTML.html#1,1,1350,768,1367,768,7-20-2021,8-19-15,140,,,,,,,2567,500,1000,1000,1000,500,,3,5,depth_discrimination_stimuli/000927_2014-06-09_16-32-30_260595134347_rgbf000123-resize_3/000927_2014-06-09_16-32-30_260595134347_rgbf000123-resize-original.jpg,1318,1133237,1436379,40
986805,DepthScenes,duration_discrimination,discrim_jsons/shuffled_g0_dr.json,http://54.89.209.186/DepthDuration/depth_discrimination_MTurk/DepthDiscrim_HTML.html#1,1,1350,768,1367,768,7-20-2021,8-19-15,141,,,,,,,2567,500,1000,1000,1000,500,,5,4,depth_discrimination_stimuli/002344_2014-06-28_20-06-29_260595134347_rgbf000030-resize_1/002344_2014-06-28_20-06-29_260595134347_rgbf000030-resize-original.jpg,2030,1133237,1436379,40
986805,DepthScenes,duration_discrimination,discrim_jsons/shuffled_g0_dr.json,http://54.89.209.186/DepthDuration/depth_discrimination_MTurk/DepthDiscrim_HTML.html#1,1,1350,768,1367,768,7-20-2021,8-19-15,142,,,,,,,2567,500,1000,1000,1000,500,,2,3,depth_discrimination_stimuli/001167_2014-06-17_15-38-07_260595134347_rgbf000108-resize_0/001167_2014-06-17_15-38-07_260595134347_rgbf000108-resize-original.jpg,1702,1133237,1436379,40
986805,DepthScenes,duration_discrimination,discrim_jsons/shuffled_g0_dr.json,http://54.89.209.186/DepthDuration/depth_discrimination_MTurk/DepthDiscrim_HTML.html#1,1,1350,768,1367,768,7-20-2021,8-19-15,143,,,,,,,2567,500,1000,1000,1000,500,,5,4,depth_discrimination_stimuli/002445_2014-06-28_20-32-16_260595134347_rgbf000029-resize_4/002445_2014-06-28_20-32-16_260595134347_rgbf000029-resize-original.jpg,1243,1133237,1436379,40
986805,DepthScenes,duration_discrimination,discrim_jsons/shuffled_g0_dr.json,http://54.89.209.186/DepthDuration/depth_discrimination_MTurk/DepthDiscrim_HTML.html#1,1,1350,768,1367,768,7-20-2021,8-19-15,144,,,,,,,2567,500,1000,1000,1000,500,,3,2,depth_discrimination_stimuli/001132_2014-06-17_14-48-54_260595134347_rgbf000100-resize_2/001132_2014-06-17_14-48-54_260595134347_rgbf000100-resize-original.jpg,1775,1133237,1436379,40
986805,DepthScenes,duration_discrimination,discrim_jsons/shuffled_g0_dr.json,http://54.89.209.186/DepthDuration/depth_discrimination_MTurk/DepthDiscrim_HTML.html#1,1,1350,768,1367,768,7-20-2021,8-19-15,145,,,,,,,2567,500,1000,1000,1000,500,,5,4,depth_discrimination_stimuli/003081_2014-06-15_15-19-16_094959634447_rgbf000150-resize_1/003081_2014-06-15_15-19-16_094959634447_rgbf000150-resize-original.jpg,1640,1133237,1436379,40
986805,DepthScenes,duration_discrimination,discrim_jsons/shuffled_g0_dr.json,http://54.89.209.186/DepthDuration/depth_discrimination_MTurk/DepthDiscrim_HTML.html#1,1,1350,768,1367,768,7-20-2021,8-19-15,146,,,,,,,2567,500,1000,1000,1000,500,,3,2,depth_discrimination_stimuli/001447_2014-06-19_17-00-32_260595134347_rgbf000082-resize_5/001447_2014-06-19_17-00-32_260595134347_rgbf000082-resize-original.jpg,1309,1133237,1436379,40
986805,DepthScenes,duration_discrimination,discrim_jsons/shuffled_g0_dr.json,http://54.89.209.186/DepthDuration/depth_discrimination_MTurk/DepthDiscrim_HTML.html#1,1,1350,768,1367,768,7-20-2021,8-19-15,147,,,,,,,2567,500,1000,1000,1000,500,,5,4,depth_discrimination_stimuli/002995_2014-06-15_12-31-26_094959634447_rgbf000150-resize_1/002995_2014-06-15_12-31-26_094959634447_rgbf000150-resize-original.jpg,1460,1133237,1436379,40
986805,DepthScenes,duration_discrimination,discrim_jsons/shuffled_g0_dr.json,http://54.89.209.186/DepthDuration/depth_discrimination_MTurk/DepthDiscrim_HTML.html#1,1,1350,768,1367,768,7-20-2021,8-19-15,148,,,,,,,2567,500,1000,1000,1000,500,,2,3,depth_discrimination_stimuli/003292_2014-05-14_21-53-49_094959634447_rgbf000100-resize_2/003292_2014-05-14_21-53-49_094959634447_rgbf000100-resize-original.jpg,1570,1133237,1436379,40
986805,DepthScenes,duration_discrimination,discrim_jsons/shuffled_g0_dr.json,http://54.89.209.186/DepthDuration/depth_discrimination_MTurk/DepthDiscrim_HTML.html#1,1,1350,768,1367,768,7-20-2021,8-19-15,149,,,,,,,2567,500,1000,1000,1000,500,,1,4,depth_discrimination_stimuli/002660_2014-06-13_15-44-18_094959634447_rgbf001878-resize_2/002660_2014-06-13_15-44-18_094959634447_rgbf001878-resize-original.jpg,1822,1133237,1436379,40
986805,DepthScenes,duration_discrimination,discrim_jsons/shuffled_g0_dr.json,http://54.89.209.186/DepthDuration/depth_discrimination_MTurk/DepthDiscrim_HTML.html#1,1,1350,768,1367,768,7-20-2021,8-19-15,150,,,,,,,2567,500,1000,1000,1000,500,,4,3,depth_discrimination_stimuli/003010_2014-06-15_12-54-35_094959634447_rgbf000112-resize_0/003010_2014-06-15_12-54-35_094959634447_rgbf000112-resize-original.jpg,1428,1133237,1436379,40
986805,DepthScenes,duration_discrimination,discrim_jsons/shuffled_g0_dr.json,http://54.89.209.186/DepthDuration/depth_discrimination_MTurk/DepthDiscrim_HTML.html#1,1,1350,768,1367,768,7-20-2021,8-19-15,151,,,,,,,2567,500,1000,1000,1000,500,,2,5,depth_discrimination_stimuli/001011_2014-06-08_23-18-54_260595134347_rgbf000044-resize_4/001011_2014-06-08_23-18-54_260595134347_rgbf000044-resize-original.jpg,1509,1133237,1436379,40
986805,DepthScenes,duration_discrimination,discrim_jsons/shuffled_g0_dr.json,http://54.89.209.186/DepthDuration/depth_discrimination_MTurk/DepthDiscrim_HTML.html#1,1,1350,768,1367,768,7-20-2021,8-19-15,152,,,,,,,2567,500,1000,1000,1000,500,,4,3,depth_discrimination_stimuli/003092_2014-06-24_21-01-49_094959634447_rgbf000049-resize_2/003092_2014-06-24_21-01-49_094959634447_rgbf000049-resize-original.jpg,1388,1133237,1436379,40
986805,DepthScenes,duration_discrimination,discrim_jsons/shuffled_g0_dr.json,http://54.89.209.186/DepthDuration/depth_discrimination_MTurk/DepthDiscrim_HTML.html#1,1,1350,768,1367,768,7-20-2021,8-19-15,153,,,,,,,2567,500,1000,1000,1000,500,,2,5,depth_discrimination_stimuli/003495_2014-05-21_16-01-51_094959634447_rgbf000100-resize_3/003495_2014-05-21_16-01-51_094959634447_rgbf000100-resize-original.jpg,1630,1133237,1436379,40
986805,DepthScenes,duration_discrimination,discrim_jsons/shuffled_g0_dr.json,http://54.89.209.186/DepthDuration/depth_discrimination_MTurk/DepthDiscrim_HTML.html#1,1,1350,768,1367,768,7-20-2021,8-19-15,154,,,,,,,2567,500,1000,1000,1000,500,,4,3,depth_discrimination_stimuli/001032_2014-06-08_13-23-17_260595134347_rgbf000021-resize_3/001032_2014-06-08_13-23-17_260595134347_rgbf000021-resize-original.jpg,1325,1133237,1436379,40
986805,DepthScenes,duration_discrimination,discrim_jsons/shuffled_g0_dr.json,http://54.89.209.186/DepthDuration/depth_discrimination_MTurk/DepthDiscrim_HTML.html#1,1,1350,768,1367,768,7-20-2021,8-19-15,155,,,,,,,2567,500,1000,1000,1000,500,,3,1,depth_discrimination_stimuli/000556_2014-06-09_22-42-56_260595134347_rgbf000214-resize_1/000556_2014-06-09_22-42-56_260595134347_rgbf000214-resize-original.jpg,1736,1133237,1436379,40
986805,DepthScenes,duration_discrimination,discrim_jsons/shuffled_g0_dr.json,http://54.89.209.186/DepthDuration/depth_discrimination_MTurk/DepthDiscrim_HTML.html#1,1,1350,768,1367,768,7-20-2021,8-19-15,156,,,,,,,2567,500,1000,1000,1000,500,,2,5,depth_discrimination_stimuli/000758_2014-06-08_22-05-08_260595134347_rgbf000085-resize_0/000758_2014-06-08_22-05-08_260595134347_rgbf000085-resize-original.jpg,1928,1133237,1436379,40
986805,DepthScenes,duration_discrimination,discrim_jsons/shuffled_g0_dr.json,http://54.89.209.186/DepthDuration/depth_discrimination_MTurk/DepthDiscrim_HTML.html#1,1,1350,768,1367,768,7-20-2021,8-19-15,157,,,,,,,2567,500,1000,1000,1000,500,,3,4,depth_discrimination_stimuli/001148_2014-06-17_15-26-42_260595134347_rgbf000129-resize_0/001148_2014-06-17_15-26-42_260595134347_rgbf000129-resize-original.jpg,1599,1133237,1436379,40
986805,DepthScenes,duration_discrimination,discrim_jsons/shuffled_g0_dr.json,http://54.89.209.186/DepthDuration/depth_discrimination_MTurk/DepthDiscrim_HTML.html#1,1,1350,768,1367,768,7-20-2021,8-19-15,158,,,,,,,2567,500,1000,1000,1000,500,,3,5,depth_discrimination_stimuli/003490_2014-05-21_15-50-11_094959634447_rgbf000101-resize_3/003490_2014-05-21_15-50-11_094959634447_rgbf000101-resize-original.jpg,1499,1133237,1436379,40
986805,DepthScenes,duration_discrimination,discrim_jsons/shuffled_g0_dr.json,http://54.89.209.186/DepthDuration/depth_discrimination_MTurk/DepthDiscrim_HTML.html#1,1,1350,768,1367,768,7-20-2021,8-19-15,159,,,,,,,2567,500,1000,1000,1000,500,,2,1,depth_discrimination_stimuli/001188_2014-06-17_15-54-10_260595134347_rgbf000090-resize_2/001188_2014-06-17_15-54-10_260595134347_rgbf000090-resize-original.jpg,1901,1133237,1436379,40
986805,DepthScenes,duration_discrimination,discrim_jsons/shuffled_g0_dr.json,http://54.89.209.186/DepthDuration/depth_discrimination_MTurk/DepthDiscrim_HTML.html#1,1,1350,768,1367,768,7-20-2021,8-19-15,160,,,,,,,2567,500,1000,1000,1000,500,,4,3,depth_discrimination_stimuli/000735_2014-06-08_18-23-50_260595134347_rgbf000163-resize_2/000735_2014-06-08_18-23-50_260595134347_rgbf000163-resize-original.jpg,1590,1133237,1436379,40
986805,DepthScenes,duration_discrimination,discrim_jsons/shuffled_g0_dr.json,http://54.89.209.186/DepthDuration/depth_discrimination_MTurk/DepthDiscrim_HTML.html#1,1,1350,768,1367,768,7-20-2021,8-19-15,161,,,,,,,2567,500,1000,1000,1000,500,,3,5,depth_discrimination_stimuli/001264_2014-06-16_16-10-23_260595134347_rgbf000109-resize_1/001264_2014-06-16_16-10-23_260595134347_rgbf000109-resize-original.jpg,2090,1133237,1436379,40
986805,DepthScenes,duration_discrimination,discrim_jsons/shuffled_g0_dr.json,http://54.89.209.186/DepthDuration/depth_discrimination_MTurk/DepthDiscrim_HTML.html#1,1,1350,768,1367,768,7-20-2021,8-19-15,162,,,,,,,2567,500,1000,1000,1000,500,,5,4,depth_discrimination_stimuli/001828_2014-06-26_21-40-03_260595134347_rgbf000024-resize_0/001828_2014-06-26_21-40-03_260595134347_rgbf000024-resize-original.jpg,1254,1133237,1436379,40
986805,DepthScenes,duration_discrimination,discrim_jsons/shuffled_g0_dr.json,http://54.89.209.186/DepthDuration/depth_discrimination_MTurk/DepthDiscrim_HTML.html#1,1,1350,768,1367,768,7-20-2021,8-19-15,163,,,,,,,2567,500,1000,1000,1000,500,,1,2,depth_discrimination_stimuli/001066_2014-06-08_22-03-20_260595134347_rgbf000066-resize_4/001066_2014-06-08_22-03-20_260595134347_rgbf000066-resize-original.jpg,1544,1133237,1436379,40
986805,DepthScenes,duration_discrimination,discrim_jsons/shuffled_g0_dr.json,http://54.89.209.186/DepthDuration/depth_discrimination_MTurk/DepthDiscrim_HTML.html#1,1,1350,768,1367,768,7-20-2021,8-19-15,164,,,,,,,2567,500,1000,1000,1000,500,,4,3,depth_discrimination_stimuli/002725_2014-06-22_11-47-51_094959634447_rgbf000070-resize_1/002725_2014-06-22_11-47-51_094959634447_rgbf000070-resize-original.jpg,1389,1133237,1436379,40
986805,DepthScenes,duration_discrimination,discrim_jsons/shuffled_g0_dr.json,http://54.89.209.186/DepthDuration/depth_discrimination_MTurk/DepthDiscrim_HTML.html#1,1,1350,768,1367,768,7-20-2021,8-19-15,165,,,,,,,2567,500,1000,1000,1000,500,,3,5,depth_discrimination_stimuli/001164_2014-06-17_15-35-46_260595134347_rgbf000085-resize_3/001164_2014-06-17_15-35-46_260595134347_rgbf000085-resize-original.jpg,1621,1133237,1436379,40
986805,DepthScenes,duration_discrimination,discrim_jsons/shuffled_g0_dr.json,http://54.89.209.186/DepthDuration/depth_discrimination_MTurk/DepthDiscrim_HTML.html#1,1,1350,768,1367,768,7-20-2021,8-19-15,166,,,,,,,2567,500,1000,1000,1000,500,,4,2,depth_discrimination_stimuli/000447_2014-06-08_16-15-46_260595134347_rgbf000130-resize_1/000447_2014-06-08_16-15-46_260595134347_rgbf000130-resize-original.jpg,1700,1133237,1436379,40
986805,DepthScenes,duration_discrimination,discrim_jsons/shuffled_g0_dr.json,http://54.89.209.186/DepthDuration/depth_discrimination_MTurk/DepthDiscrim_HTML.html#1,1,1350,768,1367,768,7-20-2021,8-19-15,167,,,,,,,2567,500,1000,1000,1000,500,,5,3,depth_discrimination_stimuli/001449_2014-06-19_17-01-27_260595134347_rgbf000116-resize_2/001449_2014-06-19_17-01-27_260595134347_rgbf000116-resize-original.jpg,1570,1133237,1436379,40
986805,DepthScenes,duration_discrimination,discrim_jsons/shuffled_g0_dr.json,http://54.89.209.186/DepthDuration/depth_discrimination_MTurk/DepthDiscrim_HTML.html#1,1,1350,768,1367,768,7-20-2021,8-19-15,168,,,,,,,2567,500,1000,1000,1000,500,,4,3,scene_property_catch_stimuli/sun_aatxlublfjchvvzu.jpg,1436,1133237,1436379,40
986805,DepthScenes,duration_discrimination,discrim_jsons/shuffled_g0_dr.json,http://54.89.209.186/DepthDuration/depth_discrimination_MTurk/DepthDiscrim_HTML.html#1,1,1350,768,1367,768,7-20-2021,8-19-15,169,,,,,,,2567,500,1000,1000,1000,500,,3,5,depth_discrimination_stimuli/002663_2014-06-13_15-50-26_094959634447_rgbf000075-resize_1/002663_2014-06-13_15-50-26_094959634447_rgbf000075-resize-original.jpg,1159,1133237,1436379,40
986805,DepthScenes,duration_discrimination,discrim_jsons/shuffled_g0_dr.json,http://54.89.209.186/DepthDuration/depth_discrimination_MTurk/DepthDiscrim_HTML.html#1,1,1350,768,1367,768,7-20-2021,8-19-15,170,,,,,,,2567,500,1000,1000,1000,500,,1,2,depth_discrimination_stimuli/000483_2014-06-09_20-41-45_260595134347_rgbf000116-resize_4/000483_2014-06-09_20-41-45_260595134347_rgbf000116-resize-original.jpg,1474,1133237,1436379,40
986805,DepthScenes,duration_discrimination,discrim_jsons/shuffled_g0_dr.json,http://54.89.209.186/DepthDuration/depth_discrimination_MTurk/DepthDiscrim_HTML.html#1,1,1350,768,1367,768,7-20-2021,8-19-15,171,,,,,,,2567,500,1000,1000,1000,500,,3,2,depth_discrimination_stimuli/001055_2014-06-08_18-45-35_260595134347_rgbf000111-resize_4/001055_2014-06-08_18-45-35_260595134347_rgbf000111-resize-original.jpg,1541,1133237,1436379,40
986805,DepthScenes,duration_discrimination,discrim_jsons/shuffled_g0_dr.json,http://54.89.209.186/DepthDuration/depth_discrimination_MTurk/DepthDiscrim_HTML.html#1,1,1350,768,1367,768,7-20-2021,8-19-15,172,,,,,,,2567,500,1000,1000,1000,500,,3,4,depth_discrimination_stimuli/002875_2014-06-01_15-19-00_094959634447_rgbf000151-resize_1/002875_2014-06-01_15-19-00_094959634447_rgbf000151-resize-original.jpg,1265,1133237,1436379,40
986805,DepthScenes,duration_discrimination,discrim_jsons/shuffled_g0_dr.json,http://54.89.209.186/DepthDuration/depth_discrimination_MTurk/DepthDiscrim_HTML.html#1,1,1350,768,1367,768,7-20-2021,8-19-15,173,,,,,,,2567,500,1000,1000,1000,500,,4,5,depth_discrimination_stimuli/000753_2014-06-08_21-57-44_260595134347_rgbf000123-resize_3/000753_2014-06-08_21-57-44_260595134347_rgbf000123-resize-original.jpg,2425,1133237,1436379,40
986805,DepthScenes,duration_discrimination,discrim_jsons/shuffled_g0_dr.json,http://54.89.209.186/DepthDuration/depth_discrimination_MTurk/DepthDiscrim_HTML.html#1,1,1350,768,1367,768,7-20-2021,8-19-15,174,,,,,,,2567,500,1000,1000,1000,500,,4,3,depth_discrimination_stimuli/002340_2014-06-28_20-05-46_260595134347_rgbf000113-resize_0/002340_2014-06-28_20-05-46_260595134347_rgbf000113-resize-original.jpg,1910,1133237,1436379,40
986805,DepthScenes,duration_discrimination,discrim_jsons/shuffled_g0_dr.json,http://54.89.209.186/DepthDuration/depth_discrimination_MTurk/DepthDiscrim_HTML.html#1,1,1350,768,1367,768,7-20-2021,8-19-15,175,,,,,,,2567,500,1000,1000,1000,500,,3,5,depth_discrimination_stimuli/002414_2014-06-28_20-24-58_260595134347_rgbf000067-resize_4/002414_2014-06-28_20-24-58_260595134347_rgbf000067-resize-original.jpg,57451,1133237,1436379,40
986805,DepthScenes,duration_discrimination,discrim_jsons/shuffled_g0_dr.json,http://54.89.209.186/DepthDuration/depth_discrimination_MTurk/DepthDiscrim_HTML.html#1,1,1350,768,1367,768,7-20-2021,8-19-15,176,,,,,,,2567,500,1000,1000,1000,500,,5,4,depth_discrimination_stimuli/003228_2014-05-14_13-42-35_094959634447_rgbf000101-resize_1/003228_2014-05-14_13-42-35_094959634447_rgbf000101-resize-original.jpg,1657,1133237,1436379,40
986805,DepthScenes,duration_discrimination,discrim_jsons/shuffled_g0_dr.json,http://54.89.209.186/DepthDuration/depth_discrimination_MTurk/DepthDiscrim_HTML.html#1,1,1350,768,1367,768,7-20-2021,8-19-15,177,,,,,,,2567,500,1000,1000,1000,500,,3,5,depth_discrimination_stimuli/001532_2014-06-20_16-50-41_260595134347_rgbf000081-resize_4/001532_2014-06-20_16-50-41_260595134347_rgbf000081-resize-original.jpg,2410,1133237,1436379,40
986805,DepthScenes,duration_discrimination,discrim_jsons/shuffled_g0_dr.json,http://54.89.209.186/DepthDuration/depth_discrimination_MTurk/DepthDiscrim_HTML.html#1,1,1350,768,1367,768,7-20-2021,8-19-15,178,,,,,,,2567,500,1000,1000,1000,500,,5,4,depth_discrimination_stimuli/000665_2014-06-09_20-42-35_260595134347_rgbf000110-resize_1/000665_2014-06-09_20-42-35_260595134347_rgbf000110-resize-original.jpg,1169,1133237,1436379,40
986805,DepthScenes,duration_discrimination,discrim_jsons/shuffled_g0_dr.json,http://54.89.209.186/DepthDuration/depth_discrimination_MTurk/DepthDiscrim_HTML.html#1,1,1350,768,1367,768,7-20-2021,8-19-15,179,,,,,,,2567,500,1000,1000,1000,500,,4,3,depth_discrimination_stimuli/000830_2014-06-04_19-49-31_260595134347_rgbf000096-resize_2/000830_2014-06-04_19-49-31_260595134347_rgbf000096-resize-original.jpg,1741,1133237,1436379,40
986805,DepthScenes,duration_discrimination,discrim_jsons/shuffled_g0_dr.json,http://54.89.209.186/DepthDuration/depth_discrimination_MTurk/DepthDiscrim_HTML.html#1,1,1350,768,1367,768,7-20-2021,8-19-15,180,,,,,,,2567,500,1000,1000,1000,500,,3,4,depth_discrimination_stimuli/000742_2014-06-08_18-48-09_260595134347_rgbf000164-resize_4/000742_2014-06-08_18-48-09_260595134347_rgbf000164-resize-original.jpg,6781,1133237,1436379,40
986805,DepthScenes,duration_discrimination,discrim_jsons/shuffled_g0_dr.json,http://54.89.209.186/DepthDuration/depth_discrimination_MTurk/DepthDiscrim_HTML.html#1,1,1350,768,1367,768,7-20-2021,8-19-15,181,,,,,,,2567,500,1000,1000,1000,500,,5,4,depth_discrimination_stimuli/000943_2014-06-09_19-31-07_260595134347_rgbf000128-resize_1/000943_2014-06-09_19-31-07_260595134347_rgbf000128-resize-original.jpg,1808,1133237,1436379,40
986805,DepthScenes,duration_discrimination,discrim_jsons/shuffled_g0_dr.json,http://54.89.209.186/DepthDuration/depth_discrimination_MTurk/DepthDiscrim_HTML.html#1,1,1350,768,1367,768,7-20-2021,8-19-15,182,,,,,,,2567,500,1000,1000,1000,500,,4,3,depth_discrimination_stimuli/002509_2014-06-24_13-19-22_094959634447_rgbf000077-resize_0/002509_2014-06-24_13-19-22_094959634447_rgbf000077-resize-original.jpg,1348,1133237,1436379,40
986805,DepthScenes,duration_discrimination,discrim_jsons/shuffled_g0_dr.json,http://54.89.209.186/DepthDuration/depth_discrimination_MTurk/DepthDiscrim_HTML.html#1,1,1350,768,1367,768,7-20-2021,8-19-15,183,,,,,,,2567,500,1000,1000,1000,500,,3,4,depth_discrimination_stimuli/000734_2014-06-08_17-39-11_260595134347_rgbf000128-resize_2/000734_2014-06-08_17-39-11_260595134347_rgbf000128-resize-original.jpg,2020,1133237,1436379,40
986805,DepthScenes,duration_discrimination,discrim_jsons/shuffled_g0_dr.json,http://54.89.209.186/DepthDuration/depth_discrimination_MTurk/DepthDiscrim_HTML.html#1,1,1350,768,1367,768,7-20-2021,8-19-15,184,,,,,,,2567,500,1000,1000,1000,500,,4,5,depth_discrimination_stimuli/001618_2014-06-20_11-37-31_260595134347_rgbf000027-resize_3/001618_2014-06-20_11-37-31_260595134347_rgbf000027-resize-original.jpg,1301,1133237,1436379,40
986805,DepthScenes,duration_discrimination,discrim_jsons/shuffled_g0_dr.json,http://54.89.209.186/DepthDuration/depth_discrimination_MTurk/DepthDiscrim_HTML.html#1,1,1350,768,1367,768,7-20-2021,8-19-15,185,,,,,,,2567,500,1000,1000,1000,500,,3,5,depth_discrimination_stimuli/002678_2014-06-13_16-15-32_094959634447_rgbf000151-resize_6/002678_2014-06-13_16-15-32_094959634447_rgbf000151-resize-original.jpg,1179,1133237,1436379,40
986805,DepthScenes,duration_discrimination,discrim_jsons/shuffled_g0_dr.json,http://54.89.209.186/DepthDuration/depth_discrimination_MTurk/DepthDiscrim_HTML.html#1,1,1350,768,1367,768,7-20-2021,8-19-15,186,,,,,,,2567,500,1000,1000,1000,500,,5,4,depth_discrimination_stimuli/001094_2014-06-15_17-36-00_260595134347_rgbf000205-resize_0/001094_2014-06-15_17-36-00_260595134347_rgbf000205-resize-original.jpg,1810,1133237,1436379,40
986805,DepthScenes,duration_discrimination,discrim_jsons/shuffled_g0_dr.json,http://54.89.209.186/DepthDuration/depth_discrimination_MTurk/DepthDiscrim_HTML.html#1,1,1350,768,1367,768,7-20-2021,8-19-15,187,,,,,,,2567,500,1000,1000,1000,500,,4,3,depth_discrimination_stimuli/000854_2014-06-09_19-43-13_260595134347_rgbf000066-resize_0/000854_2014-06-09_19-43-13_260595134347_rgbf000066-resize-original.jpg,969,1133237,1436379,40
986805,DepthScenes,duration_discrimination,discrim_jsons/shuffled_g0_dr.json,http://54.89.209.186/DepthDuration/depth_discrimination_MTurk/DepthDiscrim_HTML.html#1,1,1350,768,1367,768,7-20-2021,8-19-15,188,,,,,,,2567,500,1000,1000,1000,500,,2,5,depth_discrimination_stimuli/000691_2014-06-08_13-08-50_260595134347_rgbf000132-resize_3/000691_2014-06-08_13-08-50_260595134347_rgbf000132-resize-original.jpg,1711,1133237,1436379,40
986805,DepthScenes,duration_discrimination,discrim_jsons/shuffled_g0_dr.json,http://54.89.209.186/DepthDuration/depth_discrimination_MTurk/DepthDiscrim_HTML.html#1,1,1350,768,1367,768,7-20-2021,8-19-15,189,,,,,,,2567,500,1000,1000,1000,500,,4,3,depth_discrimination_stimuli/002279_2014-06-28_18-55-32_260595134347_rgbf000040-resize_5/002279_2014-06-28_18-55-32_260595134347_rgbf000040-resize-original.jpg,1039,1133237,1436379,40
986805,DepthScenes,duration_discrimination,discrim_jsons/shuffled_g0_dr.json,http://54.89.209.186/DepthDuration/depth_discrimination_MTurk/DepthDiscrim_HTML.html#1,1,1350,768,1367,768,7-20-2021,8-19-15,190,,,,,,,2567,500,1000,1000,1000,500,,3,5,depth_discrimination_stimuli/003288_2014-05-14_21-50-30_094959634447_rgbf000028-resize_3/003288_2014-05-14_21-50-30_094959634447_rgbf000028-resize-original.jpg,1433,1133237,1436379,40
986805,DepthScenes,duration_discrimination,discrim_jsons/shuffled_g0_dr.json,http://54.89.209.186/DepthDuration/depth_discrimination_MTurk/DepthDiscrim_HTML.html#1,1,1350,768,1367,768,7-20-2021,8-19-15,191,,,,,,,2567,500,1000,1000,1000,500,,5,4,depth_discrimination_stimuli/001555_2014-06-20_17-12-10_260595134347_rgbf000065-resize_4/001555_2014-06-20_17-12-10_260595134347_rgbf000065-resize-original.jpg,1066,1133237,1436379,40
986805,DepthScenes,duration_discrimination,discrim_jsons/shuffled_g0_dr.json,http://54.89.209.186/DepthDuration/depth_discrimination_MTurk/DepthDiscrim_HTML.html#1,1,1350,768,1367,768,7-20-2021,8-19-15,192,,,,,,,2567,500,1000,1000,1000,500,,3,4,depth_discrimination_stimuli/002460_2014-06-28_20-35-43_260595134347_rgbf000028-resize_4/002460_2014-06-28_20-35-43_260595134347_rgbf000028-resize-original.jpg,1008,1133237,1436379,40
986805,DepthScenes,duration_discrimination,discrim_jsons/shuffled_g0_dr.json,http://54.89.209.186/DepthDuration/depth_discrimination_MTurk/DepthDiscrim_HTML.html#1,1,1350,768,1367,768,7-20-2021,8-19-15,193,,,,,,,2567,500,1000,1000,1000,500,,5,4,depth_discrimination_stimuli/000009_2014-05-26_14-32-05_260595134347_rgbf000034-resize_3/000009_2014-05-26_14-32-05_260595134347_rgbf000034-resize-original.jpg,1390,1133237,1436379,40
986805,DepthScenes,duration_discrimination,discrim_jsons/shuffled_g0_dr.json,http://54.89.209.186/DepthDuration/depth_discrimination_MTurk/DepthDiscrim_HTML.html#1,1,1350,768,1367,768,7-20-2021,8-19-15,194,,,,,,,2567,500,1000,1000,1000,500,,5,4,depth_discrimination_stimuli/002949_2014-06-26_15-57-42_094959634447_rgbf000079-resize_1/002949_2014-06-26_15-57-42_094959634447_rgbf000079-resize-original.jpg,4851,1133237,1436379,40
986805,DepthScenes,duration_discrimination,discrim_jsons/shuffled_g0_dr.json,http://54.89.209.186/DepthDuration/depth_discrimination_MTurk/DepthDiscrim_HTML.html#1,1,1350,768,1367,768,7-20-2021,8-19-15,195,,,,,,,2567,500,1000,1000,1000,500,,4,3,depth_discrimination_stimuli/001110_2014-06-15_17-25-28_260595134347_rgbf000150-resize_1/001110_2014-06-15_17-25-28_260595134347_rgbf000150-resize-original.jpg,1339,1133237,1436379,40
986805,DepthScenes,duration_discrimination,discrim_jsons/shuffled_g0_dr.json,http://54.89.209.186/DepthDuration/depth_discrimination_MTurk/DepthDiscrim_HTML.html#1,1,1350,768,1367,768,7-20-2021,8-19-15,196,,,,,,,2567,500,1000,1000,1000,500,,3,5,depth_discrimination_stimuli/003069_2014-06-15_14-57-50_094959634447_rgbf000150-resize_4/003069_2014-06-15_14-57-50_094959634447_rgbf000150-resize-original.jpg,1250,1133237,1436379,40
986805,DepthScenes,duration_discrimination,discrim_jsons/shuffled_g0_dr.json,http://54.89.209.186/DepthDuration/depth_discrimination_MTurk/DepthDiscrim_HTML.html#1,1,1350,768,1367,768,7-20-2021,8-19-15,197,,,,,,,2567,500,1000,1000,1000,500,,5,4,depth_discrimination_stimuli/002209_2014-06-28_18-36-10_260595134347_rgbf000051-resize_1/002209_2014-06-28_18-36-10_260595134347_rgbf000051-resize-original.jpg,1090,1133237,1436379,40
986805,DepthScenes,duration_discrimination,discrim_jsons/shuffled_g0_dr.json,http://54.89.209.186/DepthDuration/depth_discrimination_MTurk/DepthDiscrim_HTML.html#1,1,1350,768,1367,768,7-20-2021,8-19-15,198,,,,,,,2567,500,1000,1000,1000,500,,4,3,depth_discrimination_stimuli/002790_2014-06-22_19-36-35_094959634447_rgbf000074-resize_4/002790_2014-06-22_19-36-35_094959634447_rgbf000074-resize-original.jpg,2040,1133237,1436379,40
986805,DepthScenes,duration_discrimination,discrim_jsons/shuffled_g0_dr.json,http://54.89.209.186/DepthDuration/depth_discrimination_MTurk/DepthDiscrim_HTML.html#1,1,1350,768,1367,768,7-20-2021,8-19-15,199,,,,,,,2567,500,1000,1000,1000,500,,3,5,depth_discrimination_stimuli/000677_2014-06-08_23-10-32_260595134347_rgbf000158-resize_6/000677_2014-06-08_23-10-32_260595134347_rgbf000158-resize-original.jpg,1789,1133237,1436379,40
986805,DepthScenes,duration_discrimination,discrim_jsons/shuffled_g0_dr.json,http://54.89.209.186/DepthDuration/depth_discrimination_MTurk/DepthDiscrim_HTML.html#1,1,1350,768,1367,768,7-20-2021,8-19-15,200,,,,,,,2567,500,1000,1000,1000,500,,3,3,depth_discrimination_stimuli/001197_2014-06-17_16-01-50_260595134347_rgbf000103-resize_4/001197_2014-06-17_16-01-50_260595134347_rgbf000103-resize-original.jpg,382,1133237,1436379,40
986805,DepthScenes,duration_discrimination,discrim_jsons/shuffled_g0_dr.json,http://54.89.209.186/DepthDuration/depth_discrimination_MTurk/DepthDiscrim_HTML.html#1,1,1350,768,1367,768,7-20-2021,8-19-15,201,,,,,,,2567,500,1000,1000,1000,500,,4,4,depth_discrimination_stimuli/002199_2014-06-28_18-33-56_260595134347_rgbf000074-resize_0/002199_2014-06-28_18-33-56_260595134347_rgbf000074-resize-original.jpg,522,1133237,1436379,40
986805,DepthScenes,duration_discrimination,discrim_jsons/shuffled_g0_dr.json,http://54.89.209.186/DepthDuration/depth_discrimination_MTurk/DepthDiscrim_HTML.html#1,1,1350,768,1367,768,7-20-2021,8-19-15,202,,,,,,,2567,500,1000,1000,1000,500,,5,4,depth_discrimination_stimuli/001417_2014-06-19_16-25-36_260595134347_rgbf000115-resize_5/001417_2014-06-19_16-25-36_260595134347_rgbf000115-resize-original.jpg,835,1133237,1436379,40
986805,DepthScenes,duration_discrimination,discrim_jsons/shuffled_g0_dr.json,http://54.89.209.186/DepthDuration/depth_discrimination_MTurk/DepthDiscrim_HTML.html#1,1,1350,768,1367,768,7-20-2021,8-19-15,203,,,,,,,2567,500,1000,1000,1000,500,,5,4,depth_discrimination_stimuli/002153_2014-06-25_21-27-18_260595134347_rgbf000038-resize_5/002153_2014-06-25_21-27-18_260595134347_rgbf000038-resize-original.jpg,1150,1133237,1436379,40
986805,DepthScenes,duration_discrimination,discrim_jsons/shuffled_g0_dr.json,http://54.89.209.186/DepthDuration/depth_discrimination_MTurk/DepthDiscrim_HTML.html#1,1,1350,768,1367,768,7-20-2021,8-19-15,204,,,,,,,2567,500,1000,1000,1000,500,,5,4,depth_discrimination_stimuli/002568_2014-06-24_13-59-21_094959634447_rgbf000062-resize_4/002568_2014-06-24_13-59-21_094959634447_rgbf000062-resize-original.jpg,1130,1133237,1436379,40
986805,DepthScenes,duration_discrimination,discrim_jsons/shuffled_g0_dr.json,http://54.89.209.186/DepthDuration/depth_discrimination_MTurk/DepthDiscrim_HTML.html#1,1,1350,768,1367,768,7-20-2021,8-19-15,205,,,,,,,2567,500,1000,1000,1000,500,,3,4,depth_discrimination_stimuli/002788_2014-06-22_19-36-03_094959634447_rgbf000088-resize_2/002788_2014-06-22_19-36-03_094959634447_rgbf000088-resize-original.jpg,8590,1133237,1436379,40
986805,DepthScenes,duration_discrimination,discrim_jsons/shuffled_g0_dr.json,http://54.89.209.186/DepthDuration/depth_discrimination_MTurk/DepthDiscrim_HTML.html#1,1,1350,768,1367,768,7-20-2021,8-19-15,206,,,,,,,2567,500,1000,1000,1000,500,,5,4,depth_discrimination_stimuli/002136_2014-06-25_21-18-03_260595134347_rgbf000109-resize_3/002136_2014-06-25_21-18-03_260595134347_rgbf000109-resize-original.jpg,1059,1133237,1436379,40
986805,DepthScenes,duration_discrimination,discrim_jsons/shuffled_g0_dr.json,http://54.89.209.186/DepthDuration/depth_discrimination_MTurk/DepthDiscrim_HTML.html#1,1,1350,768,1367,768,7-20-2021,8-19-15,207,,,,,,,2567,500,1000,1000,1000,500,,5,4,depth_discrimination_stimuli/001570_2014-06-20_17-21-09_260595134347_rgbf000135-resize_4/001570_2014-06-20_17-21-09_260595134347_rgbf000135-resize-original.jpg,4020,1133237,1436379,40
986805,DepthScenes,duration_discrimination,discrim_jsons/shuffled_g0_dr.json,http://54.89.209.186/DepthDuration/depth_discrimination_MTurk/DepthDiscrim_HTML.html#1,1,1350,768,1367,768,7-20-2021,8-19-15,208,,,,,,,2567,500,1000,1000,1000,500,,3,4,depth_discrimination_stimuli/000692_2014-06-08_13-09-42_260595134347_rgbf000199-resize_2/000692_2014-06-08_13-09-42_260595134347_rgbf000199-resize-original.jpg,979,1133237,1436379,40
986805,DepthScenes,duration_discrimination,discrim_jsons/shuffled_g0_dr.json,http://54.89.209.186/DepthDuration/depth_discrimination_MTurk/DepthDiscrim_HTML.html#1,1,1350,768,1367,768,7-20-2021,8-19-15,209,,,,,,,2567,500,1000,1000,1000,500,,3,4,depth_discrimination_stimuli/000635_2014-06-08_16-38-42_260595134347_rgbf000106-resize_1/000635_2014-06-08_16-38-42_260595134347_rgbf000106-resize-original.jpg,3049,1133237,1436379,40
986805,DepthScenes,duration_discrimination,discrim_jsons/shuffled_g0_dr.json,http://54.89.209.186/DepthDuration/depth_discrimination_MTurk/DepthDiscrim_HTML.html#1,1,1350,768,1367,768,7-20-2021,8-19-15,210,,,,,,,2567,500,1000,1000,1000,500,,4,5,depth_discrimination_stimuli/003423_2014-05-21_10-23-26_094959634447_rgbf002665-resize_2/003423_2014-05-21_10-23-26_094959634447_rgbf002665-resize-original.jpg,1745,1133237,1436379,40
986805,DepthScenes,duration_discrimination,discrim_jsons/shuffled_g0_dr.json,http://54.89.209.186/DepthDuration/depth_discrimination_MTurk/DepthDiscrim_HTML.html#1,1,1350,768,1367,768,7-20-2021,8-19-15,211,,,,,,,2567,500,1000,1000,1000,500,,3,5,depth_discrimination_stimuli/000866_2014-06-09_20-45-42_260595134347_rgbf000139-resize_1/000866_2014-06-09_20-45-42_260595134347_rgbf000139-resize-original.jpg,1109,1133237,1436379,40
986805,DepthScenes,duration_discrimination,discrim_jsons/shuffled_g0_dr.json,http://54.89.209.186/DepthDuration/depth_discrimination_MTurk/DepthDiscrim_HTML.html#1,1,1350,768,1367,768,7-20-2021,8-19-15,212,,,,,,,2567,500,1000,1000,1000,500,,2,4,depth_discrimination_stimuli/000457_2014-06-08_16-52-43_260595134347_rgbf000199-resize_1/000457_2014-06-08_16-52-43_260595134347_rgbf000199-resize-original.jpg,1065,1133237,1436379,40
986805,DepthScenes,duration_discrimination,discrim_jsons/shuffled_g0_dr.json,http://54.89.209.186/DepthDuration/depth_discrimination_MTurk/DepthDiscrim_HTML.html#1,1,1350,768,1367,768,7-20-2021,8-19-15,213,,,,,,,2567,500,1000,1000,1000,500,,3,4,depth_discrimination_stimuli/002039_2014-06-24_20-22-38_260595134347_rgbf000084-resize_1/002039_2014-06-24_20-22-38_260595134347_rgbf000084-resize-original.jpg,1118,1133237,1436379,40
986805,DepthScenes,duration_discrimination,discrim_jsons/shuffled_g0_dr.json,http://54.89.209.186/DepthDuration/depth_discrimination_MTurk/DepthDiscrim_HTML.html#1,1,1350,768,1367,768,7-20-2021,8-19-15,214,,,,,,,2567,500,1000,1000,1000,500,,4,5,depth_discrimination_stimuli/000521_2014-06-08_13-34-35_260595134347_rgbf000191-resize_2/000521_2014-06-08_13-34-35_260595134347_rgbf000191-resize-original.jpg,1421,1133237,1436379,40
986805,DepthScenes,duration_discrimination,discrim_jsons/shuffled_g0_dr.json,http://54.89.209.186/DepthDuration/depth_discrimination_MTurk/DepthDiscrim_HTML.html#1,1,1350,768,1367,768,7-20-2021,8-19-15,215,,,,,,,2567,500,1000,1000,1000,500,,3,5,depth_discrimination_stimuli/002805_2014-06-22_19-54-03_094959634447_rgbf000079-resize_1/002805_2014-06-22_19-54-03_094959634447_rgbf000079-resize-original.jpg,1100,1133237,1436379,40
986805,DepthScenes,duration_discrimination,discrim_jsons/shuffled_g0_dr.json,http://54.89.209.186/DepthDuration/depth_discrimination_MTurk/DepthDiscrim_HTML.html#1,1,1350,768,1367,768,7-20-2021,8-19-15,216,,,,,,,2567,500,1000,1000,1000,500,,2,4,depth_discrimination_stimuli/000773_2014-06-08_22-24-54_260595134347_rgbf000093-resize_1/000773_2014-06-08_22-24-54_260595134347_rgbf000093-resize-original.jpg,2329,1133237,1436379,40
986805,DepthScenes,duration_discrimination,discrim_jsons/shuffled_g0_dr.json,http://54.89.209.186/DepthDuration/depth_discrimination_MTurk/DepthDiscrim_HTML.html#1,1,1350,768,1367,768,7-20-2021,8-19-15,217,,,,,,,2567,500,1000,1000,1000,500,,4,3,depth_discrimination_stimuli/001810_2014-06-26_20-51-35_260595134347_rgbf000040-resize_3/001810_2014-06-26_20-51-35_260595134347_rgbf000040-resize-original.jpg,978,1133237,1436379,40
