subjID,experimentName,versionName,sequenceName,url,selected_row,windowWidth,windowHeight,screenWidth,screenHeight,startDate,startTime,trial,stimulus_0,stimulus_1,duration,actual_depth_0,actual_depth_1,discrim_choice,trial_RT,log_fixation,log_sceneDuration1,log_mask1,log_sceneDuration2,log_mask2,unitSelection,meanDepth_rating,navigability_rating,rated_stimulus,rating_RT,experimentTime,totalTime,age
151736,DepthScenes,duration_discrimination,discrim_jsons/shuffled_g0_dr.json,http://54.89.209.186/DepthDuration/depth_discrimination_MTurk/DepthDiscrim_HTML.html#1,1,2560,1240,2560,1440,7-20-2021,10-37-17,1,depth_discrimination_stimuli/001618_2014-06-20_11-37-31_260595134347_rgbf000027-resize_3/001618_2014-06-20_11-37-31_260595134347_rgbf000027-resize_3-target.png,depth_discrimination_stimuli/000109_2014-05-14_23-41-52_260595134347_rgbf000035-resize_9/000109_2014-05-14_23-41-52_260595134347_rgbf000035-resize_9-target.png,1000,1.8725,1.3545,1,1871,501,1014,986,1000,500,,,,,,1989973,2127706,36
151736,DepthScenes,duration_discrimination,discrim_jsons/shuffled_g0_dr.json,http://54.89.209.186/DepthDuration/depth_discrimination_MTurk/DepthDiscrim_HTML.html#1,1,2560,1240,2560,1440,7-20-2021,10-37-17,2,depth_discrimination_stimuli/002103_2014-06-25_20-00-40_260595134347_rgbf000049-resize_0/002103_2014-06-25_20-00-40_260595134347_rgbf000049-resize_0-target.png,depth_discrimination_stimuli/002444_2014-06-28_20-32-08_260595134347_rgbf000027-resize_0/002444_2014-06-28_20-32-08_260595134347_rgbf000027-resize_0-target.png,1000,4.105,4.389,0,1792,513,991,1007,1000,491,,,,,,1989973,2127706,36
151736,DepthScenes,duration_discrimination,discrim_jsons/shuffled_g0_dr.json,http://54.89.209.186/DepthDuration/depth_discrimination_MTurk/DepthDiscrim_HTML.html#1,1,2560,1240,2560,1440,7-20-2021,10-37-17,3,depth_discrimination_stimuli/000800_2014-06-08_22-42-09_260595134347_rgbf000095-resize_3/000800_2014-06-08_22-42-09_260595134347_rgbf000095-resize_3-target.png,depth_discrimination_stimuli/000869_2014-06-09_20-50-18_260595134347_rgbf000060-resize_3/000869_2014-06-09_20-50-18_260595134347_rgbf000060-resize_3-target.png,250,2.8,2.266,1,1033,502,262,987,250,506,,,,,,1989973,2127706,36
151736,DepthScenes,duration_discrimination,discrim_jsons/shuffled_g0_dr.json,http://54.89.209.186/DepthDuration/depth_discrimination_MTurk/DepthDiscrim_HTML.html#1,1,2560,1240,2560,1440,7-20-2021,10-37-17,4,depth_discrimination_stimuli/001092_2014-06-15_17-34-58_260595134347_rgbf000171-resize_3/001092_2014-06-15_17-34-58_260595134347_rgbf000171-resize_3-target.png,depth_discrimination_stimuli/000502_2014-06-08_23-02-32_260595134347_rgbf000063-resize_4/000502_2014-06-08_23-02-32_260595134347_rgbf000063-resize_4-target.png,250,2.6935,2.431,0,965,510,245,1000,249,507,,,,,,1989973,2127706,36
151736,DepthScenes,duration_discrimination,discrim_jsons/shuffled_g0_dr.json,http://54.89.209.186/DepthDuration/depth_discrimination_MTurk/DepthDiscrim_HTML.html#1,1,2560,1240,2560,1440,7-20-2021,10-37-17,5,depth_discrimination_stimuli/000953_2014-06-08_11-42-19_260595134347_rgbf000083-resize_0/000953_2014-06-08_11-42-19_260595134347_rgbf000083-resize_0-target.png,depth_discrimination_stimuli/000787_2014-06-08_22-33-53_260595134347_rgbf000175-resize_1/000787_2014-06-08_22-33-53_260595134347_rgbf000175-resize_1-target.png,250,1.369,4.784,0,3351,505,246,1002,258,493,,,,,,1989973,2127706,36
151736,DepthScenes,duration_discrimination,discrim_jsons/shuffled_g0_dr.json,http://54.89.209.186/DepthDuration/depth_discrimination_MTurk/DepthDiscrim_HTML.html#1,1,2560,1240,2560,1440,7-20-2021,10-37-17,6,depth_discrimination_stimuli/003083_2014-06-15_15-21-03_094959634447_rgbf000063-resize_1/003083_2014-06-15_15-21-03_094959634447_rgbf000063-resize_1-target.png,depth_discrimination_stimuli/000742_2014-06-08_18-48-09_260595134347_rgbf000164-resize_4/000742_2014-06-08_18-48-09_260595134347_rgbf000164-resize_4-target.png,1000,4.1405,4.632,1,2531,509,1000,992,1006,494,,,,,,1989973,2127706,36
151736,DepthScenes,duration_discrimination,discrim_jsons/shuffled_g0_dr.json,http://54.89.209.186/DepthDuration/depth_discrimination_MTurk/DepthDiscrim_HTML.html#1,1,2560,1240,2560,1440,7-20-2021,10-37-17,7,depth_discrimination_stimuli/000749_2014-06-08_21-55-06_260595134347_rgbf000070-resize_2/000749_2014-06-08_21-55-06_260595134347_rgbf000070-resize_2-target.png,depth_discrimination_stimuli/001056_2014-06-08_18-46-44_260595134347_rgbf000068-resize_0/001056_2014-06-08_18-46-44_260595134347_rgbf000068-resize_0-target.png,250,2.331,2.6625,1,1224,508,243,1001,249,506,,,,,,1989973,2127706,36
151736,DepthScenes,duration_discrimination,discrim_jsons/shuffled_g0_dr.json,http://54.89.209.186/DepthDuration/depth_discrimination_MTurk/DepthDiscrim_HTML.html#1,1,2560,1240,2560,1440,7-20-2021,10-37-17,8,depth_discrimination_stimuli/002043_2014-06-24_20-29-38_260595134347_rgbf000039-resize_4/002043_2014-06-24_20-29-38_260595134347_rgbf000039-resize_4-target.png,depth_discrimination_stimuli/001011_2014-06-08_23-18-54_260595134347_rgbf000044-resize_4/001011_2014-06-08_23-18-54_260595134347_rgbf000044-resize_4-target.png,1000,2.8435,2.473,0,2327,511,1002,1000,1001,487,,,,,,1989973,2127706,36
151736,DepthScenes,duration_discrimination,discrim_jsons/shuffled_g0_dr.json,http://54.89.209.186/DepthDuration/depth_discrimination_MTurk/DepthDiscrim_HTML.html#1,1,2560,1240,2560,1440,7-20-2021,10-37-17,9,depth_discrimination_stimuli/000454_2014-06-08_16-37-28_260595134347_rgbf000048-resize_2/000454_2014-06-08_16-37-28_260595134347_rgbf000048-resize_2-target.png,depth_discrimination_stimuli/000375_2014-06-08_11-17-29_260595134347_rgbf000133-resize_2/000375_2014-06-08_11-17-29_260595134347_rgbf000133-resize_2-target.png,1000,1.213,4.718,0,1771,506,1000,1002,1003,495,,,,,,1989973,2127706,36
151736,DepthScenes,duration_discrimination,discrim_jsons/shuffled_g0_dr.json,http://54.89.209.186/DepthDuration/depth_discrimination_MTurk/DepthDiscrim_HTML.html#1,1,2560,1240,2560,1440,7-20-2021,10-37-17,10,depth_discrimination_stimuli/001532_2014-06-20_16-50-41_260595134347_rgbf000081-resize_4/001532_2014-06-20_16-50-41_260595134347_rgbf000081-resize_4-target.png,depth_discrimination_stimuli/000943_2014-06-09_19-31-07_260595134347_rgbf000128-resize_1/000943_2014-06-09_19-31-07_260595134347_rgbf000128-resize_1-target.png,250,1.5758333333333,1.9765,0,987,501,262,1002,247,493,,,,,,1989973,2127706,36
151736,DepthScenes,duration_discrimination,discrim_jsons/shuffled_g0_dr.json,http://54.89.209.186/DepthDuration/depth_discrimination_MTurk/DepthDiscrim_HTML.html#1,1,2560,1240,2560,1440,7-20-2021,10-37-17,11,depth_discrimination_stimuli/002340_2014-06-28_20-05-46_260595134347_rgbf000113-resize_0/002340_2014-06-28_20-05-46_260595134347_rgbf000113-resize_0-target.png,depth_discrimination_stimuli/002905_2014-06-03_18-04-43_094959634447_rgbf000151-resize_2/002905_2014-06-03_18-04-43_094959634447_rgbf000151-resize_2-target.png,250,2.4735,2.0295,1,988,506,260,998,245,506,,,,,,1989973,2127706,36
151736,DepthScenes,duration_discrimination,discrim_jsons/shuffled_g0_dr.json,http://54.89.209.186/DepthDuration/depth_discrimination_MTurk/DepthDiscrim_HTML.html#1,1,2560,1240,2560,1440,7-20-2021,10-37-17,12,depth_discrimination_stimuli/000691_2014-06-08_13-08-50_260595134347_rgbf000132-resize_3/000691_2014-06-08_13-08-50_260595134347_rgbf000132-resize_3-target.png,depth_discrimination_stimuli/002039_2014-06-24_20-22-38_260595134347_rgbf000084-resize_1/002039_2014-06-24_20-22-38_260595134347_rgbf000084-resize_1-target.png,250,4.153,4.408,0,1161,513,248,998,247,496,,,,,,1989973,2127706,36
151736,DepthScenes,duration_discrimination,discrim_jsons/shuffled_g0_dr.json,http://54.89.209.186/DepthDuration/depth_discrimination_MTurk/DepthDiscrim_HTML.html#1,1,2560,1240,2560,1440,7-20-2021,10-37-17,13,depth_discrimination_stimuli/000569_2014-06-09_22-51-47_260595134347_rgbf000141-resize_3/000569_2014-06-09_22-51-47_260595134347_rgbf000141-resize_3-target.png,depth_discrimination_stimuli/000868_2014-06-09_20-49-52_260595134347_rgbf000064-resize_4/000868_2014-06-09_20-49-52_260595134347_rgbf000064-resize_4-target.png,250,4.512,1.2815,1,1058,509,249,1000,246,507,,,,,,1989973,2127706,36
151736,DepthScenes,duration_discrimination,discrim_jsons/shuffled_g0_dr.json,http://54.89.209.186/DepthDuration/depth_discrimination_MTurk/DepthDiscrim_HTML.html#1,1,2560,1240,2560,1440,7-20-2021,10-37-17,14,depth_discrimination_stimuli/003587_2014-05-23_16-48-02_094959634447_rgbf002384-resize_2/003587_2014-05-23_16-48-02_094959634447_rgbf002384-resize_2-target.png,depth_discrimination_stimuli/000709_2014-06-08_13-51-55_260595134347_rgbf000068-resize_3/000709_2014-06-08_13-51-55_260595134347_rgbf000068-resize_3-target.png,250,1.357,1.803,0,1032,509,245,998,261,494,,,,,,1989973,2127706,36
151736,DepthScenes,duration_discrimination,discrim_jsons/shuffled_g0_dr.json,http://54.89.209.186/DepthDuration/depth_discrimination_MTurk/DepthDiscrim_HTML.html#1,1,2560,1240,2560,1440,7-20-2021,10-37-17,15,depth_discrimination_stimuli/002199_2014-06-28_18-33-56_260595134347_rgbf000074-resize_0/002199_2014-06-28_18-33-56_260595134347_rgbf000074-resize_0-target.png,depth_discrimination_stimuli/001016_2014-06-09_16-16-10_260595134347_rgbf000112-resize_5/001016_2014-06-09_16-16-10_260595134347_rgbf000112-resize_5-target.png,1000,1.996,1.6565,0,1830,508,1001,997,997,506,,,,,,1989973,2127706,36
151736,DepthScenes,duration_discrimination,discrim_jsons/shuffled_g0_dr.json,http://54.89.209.186/DepthDuration/depth_discrimination_MTurk/DepthDiscrim_HTML.html#1,1,2560,1240,2560,1440,7-20-2021,10-37-17,16,depth_discrimination_stimuli/000493_2014-06-09_21-01-18_260595134347_rgbf000196-resize_3/000493_2014-06-09_21-01-18_260595134347_rgbf000196-resize_3-target.png,depth_discrimination_stimuli/000409_2014-06-04_19-23-33_260595134347_rgbf000067-resize_0/000409_2014-06-04_19-23-33_260595134347_rgbf000067-resize_0-target.png,1000,3.44,3.7335,1,1778,508,1001,993,1000,508,,,,,,1989973,2127706,36
151736,DepthScenes,duration_discrimination,discrim_jsons/shuffled_g0_dr.json,http://54.89.209.186/DepthDuration/depth_discrimination_MTurk/DepthDiscrim_HTML.html#1,1,2560,1240,2560,1440,7-20-2021,10-37-17,17,depth_discrimination_stimuli/002953_2014-06-08_17-32-18_094959634447_rgbf000059-resize_5/002953_2014-06-08_17-32-18_094959634447_rgbf000059-resize_5-target.png,depth_discrimination_stimuli/000470_2014-06-09_19-42-40_260595134347_rgbf000094-resize_1/000470_2014-06-09_19-42-40_260595134347_rgbf000094-resize_1-target.png,1000,1.551,1.831,1,1603,501,1004,1004,999,493,,,,,,1989973,2127706,36
151736,DepthScenes,duration_discrimination,discrim_jsons/shuffled_g0_dr.json,http://54.89.209.186/DepthDuration/depth_discrimination_MTurk/DepthDiscrim_HTML.html#1,1,2560,1240,2560,1440,7-20-2021,10-37-17,18,depth_discrimination_stimuli/000929_2014-06-09_16-33-19_260595134347_rgbf000139-resize_0/000929_2014-06-09_16-33-19_260595134347_rgbf000139-resize_0-target.png,depth_discrimination_stimuli/001055_2014-06-08_18-45-35_260595134347_rgbf000111-resize_4/001055_2014-06-08_18-45-35_260595134347_rgbf000111-resize_4-target.png,250,2.868,2.429,0,1059,505,247,1013,236,503,,,,,,1989973,2127706,36
151736,DepthScenes,duration_discrimination,discrim_jsons/shuffled_g0_dr.json,http://54.89.209.186/DepthDuration/depth_discrimination_MTurk/DepthDiscrim_HTML.html#1,1,2560,1240,2560,1440,7-20-2021,10-37-17,19,depth_discrimination_stimuli/002118_2014-06-25_20-32-08_260595134347_rgbf000078-resize_1/002118_2014-06-25_20-32-08_260595134347_rgbf000078-resize_1-target.png,depth_discrimination_stimuli/001164_2014-06-17_15-35-46_260595134347_rgbf000085-resize_3/001164_2014-06-17_15-35-46_260595134347_rgbf000085-resize_3-target.png,250,2.646,2.354,0,954,516,248,1002,235,502,,,,,,1989973,2127706,36
151736,DepthScenes,duration_discrimination,discrim_jsons/shuffled_g0_dr.json,http://54.89.209.186/DepthDuration/depth_discrimination_MTurk/DepthDiscrim_HTML.html#1,1,2560,1240,2560,1440,7-20-2021,10-37-17,20,depth_discrimination_stimuli/002675_2014-06-13_16-08-49_094959634447_rgbf000151-resize_2/002675_2014-06-13_16-08-49_094959634447_rgbf000151-resize_2-target.png,depth_discrimination_stimuli/001222_2014-06-17_16-24-06_260595134347_rgbf000073-resize_0/001222_2014-06-17_16-24-06_260595134347_rgbf000073-resize_0-target.png,1000,4.5065,1.4385,1,4107,510,997,1002,1002,491,,,,,,1989973,2127706,36
151736,DepthScenes,duration_discrimination,discrim_jsons/shuffled_g0_dr.json,http://54.89.209.186/DepthDuration/depth_discrimination_MTurk/DepthDiscrim_HTML.html#1,1,2560,1240,2560,1440,7-20-2021,10-37-17,21,depth_discrimination_stimuli/000556_2014-06-09_22-42-56_260595134347_rgbf000214-resize_1/000556_2014-06-09_22-42-56_260595134347_rgbf000214-resize_1-target.png,depth_discrimination_stimuli/001148_2014-06-17_15-26-42_260595134347_rgbf000129-resize_0/001148_2014-06-17_15-26-42_260595134347_rgbf000129-resize_0-target.png,250,4.8415,4.368,0,1073,510,241,1000,255,508,,,,,,1989973,2127706,36
151736,DepthScenes,duration_discrimination,discrim_jsons/shuffled_g0_dr.json,http://54.89.209.186/DepthDuration/depth_discrimination_MTurk/DepthDiscrim_HTML.html#1,1,2560,1240,2560,1440,7-20-2021,10-37-17,22,depth_discrimination_stimuli/002805_2014-06-22_19-54-03_094959634447_rgbf000079-resize_1/002805_2014-06-22_19-54-03_094959634447_rgbf000079-resize_1-target.png,depth_discrimination_stimuli/001584_2014-06-20_11-07-43_260595134347_rgbf000002-resize_1/001584_2014-06-20_11-07-43_260595134347_rgbf000002-resize_1-target.png,1000,3.144,3.53,1,3815,508,999,1006,988,507,,,,,,1989973,2127706,36
151736,DepthScenes,duration_discrimination,discrim_jsons/shuffled_g0_dr.json,http://54.89.209.186/DepthDuration/depth_discrimination_MTurk/DepthDiscrim_HTML.html#1,1,2560,1240,2560,1440,7-20-2021,10-37-17,23,depth_discrimination_stimuli/000549_2014-06-08_22-10-24_260595134347_rgbf000247-resize_3/000549_2014-06-08_22-10-24_260595134347_rgbf000247-resize_3-target.png,depth_discrimination_stimuli/002509_2014-06-24_13-19-22_094959634447_rgbf000077-resize_0/002509_2014-06-24_13-19-22_094959634447_rgbf000077-resize_0-target.png,250,1.841,1.3065,0,977,500,251,1000,257,505,,,,,,1989973,2127706,36
151736,DepthScenes,duration_discrimination,discrim_jsons/shuffled_g0_dr.json,http://54.89.209.186/DepthDuration/depth_discrimination_MTurk/DepthDiscrim_HTML.html#1,1,2560,1240,2560,1440,7-20-2021,10-37-17,24,depth_discrimination_stimuli/001450_2014-06-19_17-02-03_260595134347_rgbf000203-resize_4/001450_2014-06-19_17-02-03_260595134347_rgbf000203-resize_4-target.png,depth_discrimination_stimuli/002414_2014-06-28_20-24-58_260595134347_rgbf000067-resize_4/002414_2014-06-28_20-24-58_260595134347_rgbf000067-resize_4-target.png,1000,4.0106666666667,4.363,0,1985,507,1002,1002,1005,492,,,,,,1989973,2127706,36
151736,DepthScenes,duration_discrimination,discrim_jsons/shuffled_g0_dr.json,http://54.89.209.186/DepthDuration/depth_discrimination_MTurk/DepthDiscrim_HTML.html#1,1,2560,1240,2560,1440,7-20-2021,10-37-17,25,depth_discrimination_stimuli/003495_2014-05-21_16-01-51_094959634447_rgbf000100-resize_3/003495_2014-05-21_16-01-51_094959634447_rgbf000100-resize_3-target.png,depth_discrimination_stimuli/002949_2014-06-26_15-57-42_094959634447_rgbf000079-resize_1/002949_2014-06-26_15-57-42_094959634447_rgbf000079-resize_1-target.png,1000,1.6255,1.8915,1,2243,514,987,1000,1013,498,,,,,,1989973,2127706,36
151736,DepthScenes,duration_discrimination,discrim_jsons/shuffled_g0_dr.json,http://54.89.209.186/DepthDuration/depth_discrimination_MTurk/DepthDiscrim_HTML.html#1,1,2560,1240,2560,1440,7-20-2021,10-37-17,26,depth_discrimination_stimuli/001498_2014-06-19_17-45-14_260595134347_rgbf000129-resize_4/001498_2014-06-19_17-45-14_260595134347_rgbf000129-resize_4-target.png,depth_discrimination_stimuli/003125_2014-05-12_10-39-22_094959634447_rgbf000100-resize_0/003125_2014-05-12_10-39-22_094959634447_rgbf000100-resize_0-target.png,1000,1.4075,4.8655,0,1742,501,1005,1000,999,508,,,,,,1989973,2127706,36
151736,DepthScenes,duration_discrimination,discrim_jsons/shuffled_g0_dr.json,http://54.89.209.186/DepthDuration/depth_discrimination_MTurk/DepthDiscrim_HTML.html#1,1,2560,1240,2560,1440,7-20-2021,10-37-17,27,depth_discrimination_stimuli/002549_2014-06-24_13-41-39_094959634447_rgbf000022-resize_3/002549_2014-06-24_13-41-39_094959634447_rgbf000022-resize_3-target.png,depth_discrimination_stimuli/001136_2014-06-17_15-19-41_260595134347_rgbf000076-resize_3/001136_2014-06-17_15-19-41_260595134347_rgbf000076-resize_3-target.png,250,1.476,1.8655,0,1283,506,245,1006,245,499,,,,,,1989973,2127706,36
151736,DepthScenes,duration_discrimination,discrim_jsons/shuffled_g0_dr.json,http://54.89.209.186/DepthDuration/depth_discrimination_MTurk/DepthDiscrim_HTML.html#1,1,2560,1240,2560,1440,7-20-2021,10-37-17,28,depth_discrimination_stimuli/003490_2014-05-21_15-50-11_094959634447_rgbf000101-resize_3/003490_2014-05-21_15-50-11_094959634447_rgbf000101-resize_3-target.png,depth_discrimination_stimuli/000866_2014-06-09_20-45-42_260595134347_rgbf000139-resize_1/000866_2014-06-09_20-45-42_260595134347_rgbf000139-resize_1-target.png,250,3.6445,3.2155,0,1033,515,245,991,257,505,,,,,,1989973,2127706,36
151736,DepthScenes,duration_discrimination,discrim_jsons/shuffled_g0_dr.json,http://54.89.209.186/DepthDuration/depth_discrimination_MTurk/DepthDiscrim_HTML.html#1,1,2560,1240,2560,1440,7-20-2021,10-37-17,29,depth_discrimination_stimuli/003292_2014-05-14_21-53-49_094959634447_rgbf000100-resize_2/003292_2014-05-14_21-53-49_094959634447_rgbf000100-resize_2-target.png,depth_discrimination_stimuli/000542_2014-06-08_18-27-08_260595134347_rgbf000118-resize_1/000542_2014-06-08_18-27-08_260595134347_rgbf000118-resize_1-target.png,250,3.4815,3,0,1224,515,247,990,256,505,,,,,,1989973,2127706,36
151736,DepthScenes,duration_discrimination,discrim_jsons/shuffled_g0_dr.json,http://54.89.209.186/DepthDuration/depth_discrimination_MTurk/DepthDiscrim_HTML.html#1,1,2560,1240,2560,1440,7-20-2021,10-37-17,30,depth_discrimination_stimuli/002072_2014-06-24_21-48-06_260595134347_rgbf000115-resize_0/002072_2014-06-24_21-48-06_260595134347_rgbf000115-resize_0-target.png,depth_discrimination_stimuli/001012_2014-06-08_23-19-38_260595134347_rgbf000057-resize_0/001012_2014-06-08_23-19-38_260595134347_rgbf000057-resize_0-target.png,250,4.702,1.38325,1,1118,511,248,1003,248,493,,,,,,1989973,2127706,36
151736,DepthScenes,duration_discrimination,discrim_jsons/shuffled_g0_dr.json,http://54.89.209.186/DepthDuration/depth_discrimination_MTurk/DepthDiscrim_HTML.html#1,1,2560,1240,2560,1440,7-20-2021,10-37-17,31,depth_discrimination_stimuli/000927_2014-06-09_16-32-30_260595134347_rgbf000123-resize_3/000927_2014-06-09_16-32-30_260595134347_rgbf000123-resize_3-target.png,depth_discrimination_stimuli/002678_2014-06-13_16-15-32_094959634447_rgbf000151-resize_6/002678_2014-06-13_16-15-32_094959634447_rgbf000151-resize_6-target.png,1000,2.6785,2.183,1,1958,504,1002,1000,1003,494,,,,,,1989973,2127706,36
151736,DepthScenes,duration_discrimination,discrim_jsons/shuffled_g0_dr.json,http://54.89.209.186/DepthDuration/depth_discrimination_MTurk/DepthDiscrim_HTML.html#1,1,2560,1240,2560,1440,7-20-2021,10-37-17,32,depth_discrimination_stimuli/002660_2014-06-13_15-44-18_094959634447_rgbf001878-resize_2/002660_2014-06-13_15-44-18_094959634447_rgbf001878-resize_2-target.png,depth_discrimination_stimuli/003081_2014-06-15_15-19-16_094959634447_rgbf000150-resize_1/003081_2014-06-15_15-19-16_094959634447_rgbf000150-resize_1-target.png,250,3.576,3.9125,0,1405,512,239,1012,246,495,,,,,,1989973,2127706,36
151736,DepthScenes,duration_discrimination,discrim_jsons/shuffled_g0_dr.json,http://54.89.209.186/DepthDuration/depth_discrimination_MTurk/DepthDiscrim_HTML.html#1,1,2560,1240,2560,1440,7-20-2021,10-37-17,33,depth_discrimination_stimuli/001158_2014-06-17_15-32-16_260595134347_rgbf000138-resize_2/001158_2014-06-17_15-32-16_260595134347_rgbf000138-resize_2-target.png,depth_discrimination_stimuli/001181_2014-06-17_15-50-57_260595134347_rgbf000106-resize_4/001181_2014-06-17_15-50-57_260595134347_rgbf000106-resize_4-target.png,1000,4.5315,4.149,1,1887,510,1004,999,996,495,,,,,,1989973,2127706,36
151736,DepthScenes,duration_discrimination,discrim_jsons/shuffled_g0_dr.json,http://54.89.209.186/DepthDuration/depth_discrimination_MTurk/DepthDiscrim_HTML.html#1,1,2560,1240,2560,1440,7-20-2021,10-37-17,34,depth_discrimination_stimuli/002467_2014-06-28_20-38-07_260595134347_rgbf000026-resize_2/002467_2014-06-28_20-38-07_260595134347_rgbf000026-resize_2-target.png,depth_discrimination_stimuli/001133_2014-06-17_14-49-16_260595134347_rgbf000100-resize_0/001133_2014-06-17_14-49-16_260595134347_rgbf000100-resize_0-target.png,1000,4.742,4.2115,1,1893,508,1002,997,1008,494,,,,,,1989973,2127706,36
151736,DepthScenes,duration_discrimination,discrim_jsons/shuffled_g0_dr.json,http://54.89.209.186/DepthDuration/depth_discrimination_MTurk/DepthDiscrim_HTML.html#1,1,2560,1240,2560,1440,7-20-2021,10-37-17,35,depth_discrimination_stimuli/001170_2014-06-17_15-43-44_260595134347_rgbf000096-resize_6/001170_2014-06-17_15-43-44_260595134347_rgbf000096-resize_6-target.png,depth_discrimination_stimuli/002364_2014-06-28_20-11-05_260595134347_rgbf000042-resize_0/002364_2014-06-28_20-11-05_260595134347_rgbf000042-resize_0-target.png,250,1.191,4.682,0,970,515,242,1001,246,501,,,,,,1989973,2127706,36
151736,DepthScenes,duration_discrimination,discrim_jsons/shuffled_g0_dr.json,http://54.89.209.186/DepthDuration/depth_discrimination_MTurk/DepthDiscrim_HTML.html#1,1,2560,1240,2560,1440,7-20-2021,10-37-17,36,depth_discrimination_stimuli/003423_2014-05-21_10-23-26_094959634447_rgbf002665-resize_2/003423_2014-05-21_10-23-26_094959634447_rgbf002665-resize_2-target.png,depth_discrimination_stimuli/000137_2014-05-20_17-04-49_260595134347_rgbf000120-resize_1/000137_2014-05-20_17-04-49_260595134347_rgbf000120-resize_1-target.png,1000,3.2575,3.786,0,1949,514,988,1013,1000,486,,,,,,1989973,2127706,36
151736,DepthScenes,duration_discrimination,discrim_jsons/shuffled_g0_dr.json,http://54.89.209.186/DepthDuration/depth_discrimination_MTurk/DepthDiscrim_HTML.html#1,1,2560,1240,2560,1440,7-20-2021,10-37-17,37,depth_discrimination_stimuli/001197_2014-06-17_16-01-50_260595134347_rgbf000103-resize_4/001197_2014-06-17_16-01-50_260595134347_rgbf000103-resize_4-target.png,depth_discrimination_stimuli/001235_2014-06-17_16-37-36_260595134347_rgbf000084-resize_4/001235_2014-06-17_16-37-36_260595134347_rgbf000084-resize_4-target.png,1000,3.4025,3.6605,0,1894,512,990,1004,1002,506,,,,,,1989973,2127706,36
151736,DepthScenes,duration_discrimination,discrim_jsons/shuffled_g0_dr.json,http://54.89.209.186/DepthDuration/depth_discrimination_MTurk/DepthDiscrim_HTML.html#1,1,2560,1240,2560,1440,7-20-2021,10-37-17,38,depth_discrimination_stimuli/003395_2014-05-20_15-39-18_094959634447_rgbf000101-resize_0/003395_2014-05-20_15-39-18_094959634447_rgbf000101-resize_0-target.png,depth_discrimination_stimuli/001540_2014-06-20_17-01-05_260595134347_rgbf000086-resize_2/001540_2014-06-20_17-01-05_260595134347_rgbf000086-resize_2-target.png,1000,4.835,1.459,1,1756,508,1005,1003,999,495,,,,,,1989973,2127706,36
151736,DepthScenes,duration_discrimination,discrim_jsons/shuffled_g0_dr.json,http://54.89.209.186/DepthDuration/depth_discrimination_MTurk/DepthDiscrim_HTML.html#1,1,2560,1240,2560,1440,7-20-2021,10-37-17,39,depth_discrimination_stimuli/001808_2014-06-26_20-50-58_260595134347_rgbf000029-resize_1/001808_2014-06-26_20-50-58_260595134347_rgbf000029-resize_1-target.png,depth_discrimination_stimuli/002748_2014-06-22_19-07-22_094959634447_rgbf000078-resize_1/002748_2014-06-22_19-07-22_094959634447_rgbf000078-resize_1-target.png,1000,4.249,4.6705,0,1759,501,1002,1010,991,496,,,,,,1989973,2127706,36
151736,DepthScenes,duration_discrimination,discrim_jsons/shuffled_g0_dr.json,http://54.89.209.186/DepthDuration/depth_discrimination_MTurk/DepthDiscrim_HTML.html#1,1,2560,1240,2560,1440,7-20-2021,10-37-17,40,depth_discrimination_stimuli/002323_2014-06-28_20-01-54_260595134347_rgbf000051-resize_4/002323_2014-06-28_20-01-54_260595134347_rgbf000051-resize_4-target.png,depth_discrimination_stimuli/001032_2014-06-08_13-23-17_260595134347_rgbf000021-resize_3/001032_2014-06-08_13-23-17_260595134347_rgbf000021-resize_3-target.png,1000,3.731,3.2725,1,1733,510,1001,1003,988,509,,,,,,1989973,2127706,36
151736,DepthScenes,duration_discrimination,discrim_jsons/shuffled_g0_dr.json,http://54.89.209.186/DepthDuration/depth_discrimination_MTurk/DepthDiscrim_HTML.html#1,1,2560,1240,2560,1440,7-20-2021,10-37-17,40,,,,,,,1733,510,1001,1003,988,509,,,,,,1989973,2127706,36
151736,DepthScenes,duration_discrimination,discrim_jsons/shuffled_g0_dr.json,http://54.89.209.186/DepthDuration/depth_discrimination_MTurk/DepthDiscrim_HTML.html#1,1,2560,1240,2560,1440,7-20-2021,10-37-17,42,,,,,,,1733,510,1001,1003,988,509,,4,4,depth_discrimination_stimuli/000493_2014-06-09_21-01-18_260595134347_rgbf000196-resize_3/000493_2014-06-09_21-01-18_260595134347_rgbf000196-resize-original.jpg,78690,1989973,2127706,36
151736,DepthScenes,duration_discrimination,discrim_jsons/shuffled_g0_dr.json,http://54.89.209.186/DepthDuration/depth_discrimination_MTurk/DepthDiscrim_HTML.html#1,1,2560,1240,2560,1440,7-20-2021,10-37-17,43,,,,,,,1733,510,1001,1003,988,509,,2,3,depth_discrimination_stimuli/002750_2014-06-22_19-08-03_094959634447_rgbf000094-resize_4/002750_2014-06-22_19-08-03_094959634447_rgbf000094-resize-original.jpg,20690,1989973,2127706,36
151736,DepthScenes,duration_discrimination,discrim_jsons/shuffled_g0_dr.json,http://54.89.209.186/DepthDuration/depth_discrimination_MTurk/DepthDiscrim_HTML.html#1,1,2560,1240,2560,1440,7-20-2021,10-37-17,44,,,,,,,1733,510,1001,1003,988,509,,3,2,depth_discrimination_stimuli/003288_2014-05-14_21-50-30_094959634447_rgbf000028-resize_3/003288_2014-05-14_21-50-30_094959634447_rgbf000028-resize-original.jpg,5342,1989973,2127706,36
151736,DepthScenes,duration_discrimination,discrim_jsons/shuffled_g0_dr.json,http://54.89.209.186/DepthDuration/depth_discrimination_MTurk/DepthDiscrim_HTML.html#1,1,2560,1240,2560,1440,7-20-2021,10-37-17,45,,,,,,,1733,510,1001,1003,988,509,,3,2,depth_discrimination_stimuli/000549_2014-06-08_22-10-24_260595134347_rgbf000247-resize_3/000549_2014-06-08_22-10-24_260595134347_rgbf000247-resize-original.jpg,6714,1989973,2127706,36
151736,DepthScenes,duration_discrimination,discrim_jsons/shuffled_g0_dr.json,http://54.89.209.186/DepthDuration/depth_discrimination_MTurk/DepthDiscrim_HTML.html#1,1,2560,1240,2560,1440,7-20-2021,10-37-17,46,,,,,,,1733,510,1001,1003,988,509,,2,2,depth_discrimination_stimuli/002323_2014-06-28_20-01-54_260595134347_rgbf000051-resize_4/002323_2014-06-28_20-01-54_260595134347_rgbf000051-resize-original.jpg,40010,1989973,2127706,36
151736,DepthScenes,duration_discrimination,discrim_jsons/shuffled_g0_dr.json,http://54.89.209.186/DepthDuration/depth_discrimination_MTurk/DepthDiscrim_HTML.html#1,1,2560,1240,2560,1440,7-20-2021,10-37-17,47,,,,,,,1733,510,1001,1003,988,509,,2,1,depth_discrimination_stimuli/001450_2014-06-19_17-02-03_260595134347_rgbf000203-resize_4/001450_2014-06-19_17-02-03_260595134347_rgbf000203-resize-original.jpg,16757,1989973,2127706,36
151736,DepthScenes,duration_discrimination,discrim_jsons/shuffled_g0_dr.json,http://54.89.209.186/DepthDuration/depth_discrimination_MTurk/DepthDiscrim_HTML.html#1,1,2560,1240,2560,1440,7-20-2021,10-37-17,48,,,,,,,1733,510,1001,1003,988,509,,1,2,depth_discrimination_stimuli/000677_2014-06-08_23-10-32_260595134347_rgbf000158-resize_6/000677_2014-06-08_23-10-32_260595134347_rgbf000158-resize-original.jpg,16786,1989973,2127706,36
151736,DepthScenes,duration_discrimination,discrim_jsons/shuffled_g0_dr.json,http://54.89.209.186/DepthDuration/depth_discrimination_MTurk/DepthDiscrim_HTML.html#1,1,2560,1240,2560,1440,7-20-2021,10-37-17,49,,,,,,,1733,510,1001,1003,988,509,,2,3,depth_discrimination_stimuli/000470_2014-06-09_19-42-40_260595134347_rgbf000094-resize_1/000470_2014-06-09_19-42-40_260595134347_rgbf000094-resize-original.jpg,4790,1989973,2127706,36
151736,DepthScenes,duration_discrimination,discrim_jsons/shuffled_g0_dr.json,http://54.89.209.186/DepthDuration/depth_discrimination_MTurk/DepthDiscrim_HTML.html#1,1,2560,1240,2560,1440,7-20-2021,10-37-17,50,,,,,,,1733,510,1001,1003,988,509,,3,2,depth_discrimination_stimuli/001235_2014-06-17_16-37-36_260595134347_rgbf000084-resize_4/001235_2014-06-17_16-37-36_260595134347_rgbf000084-resize-original.jpg,7670,1989973,2127706,36
151736,DepthScenes,duration_discrimination,discrim_jsons/shuffled_g0_dr.json,http://54.89.209.186/DepthDuration/depth_discrimination_MTurk/DepthDiscrim_HTML.html#1,1,2560,1240,2560,1440,7-20-2021,10-37-17,51,,,,,,,1733,510,1001,1003,988,509,,2,4,depth_discrimination_stimuli/002748_2014-06-22_19-07-22_094959634447_rgbf000078-resize_1/002748_2014-06-22_19-07-22_094959634447_rgbf000078-resize-original.jpg,3950,1989973,2127706,36
151736,DepthScenes,duration_discrimination,discrim_jsons/shuffled_g0_dr.json,http://54.89.209.186/DepthDuration/depth_discrimination_MTurk/DepthDiscrim_HTML.html#1,1,2560,1240,2560,1440,7-20-2021,10-37-17,52,,,,,,,1733,510,1001,1003,988,509,,2,3,depth_discrimination_stimuli/000742_2014-06-08_18-48-09_260595134347_rgbf000164-resize_4/000742_2014-06-08_18-48-09_260595134347_rgbf000164-resize-original.jpg,3588,1989973,2127706,36
151736,DepthScenes,duration_discrimination,discrim_jsons/shuffled_g0_dr.json,http://54.89.209.186/DepthDuration/depth_discrimination_MTurk/DepthDiscrim_HTML.html#1,1,2560,1240,2560,1440,7-20-2021,10-37-17,53,,,,,,,1733,510,1001,1003,988,509,,4,4,depth_discrimination_stimuli/003292_2014-05-14_21-53-49_094959634447_rgbf000100-resize_2/003292_2014-05-14_21-53-49_094959634447_rgbf000100-resize-original.jpg,7028,1989973,2127706,36
151736,DepthScenes,duration_discrimination,discrim_jsons/shuffled_g0_dr.json,http://54.89.209.186/DepthDuration/depth_discrimination_MTurk/DepthDiscrim_HTML.html#1,1,2560,1240,2560,1440,7-20-2021,10-37-17,54,,,,,,,1733,510,1001,1003,988,509,,2,3,depth_discrimination_stimuli/000505_2014-06-08_23-03-23_260595134347_rgbf000091-resize_0/000505_2014-06-08_23-03-23_260595134347_rgbf000091-resize-original.jpg,8782,1989973,2127706,36
151736,DepthScenes,duration_discrimination,discrim_jsons/shuffled_g0_dr.json,http://54.89.209.186/DepthDuration/depth_discrimination_MTurk/DepthDiscrim_HTML.html#1,1,2560,1240,2560,1440,7-20-2021,10-37-17,55,,,,,,,1733,510,1001,1003,988,509,,3,2,depth_discrimination_stimuli/001011_2014-06-08_23-18-54_260595134347_rgbf000044-resize_4/001011_2014-06-08_23-18-54_260595134347_rgbf000044-resize-original.jpg,3188,1989973,2127706,36
151736,DepthScenes,duration_discrimination,discrim_jsons/shuffled_g0_dr.json,http://54.89.209.186/DepthDuration/depth_discrimination_MTurk/DepthDiscrim_HTML.html#1,1,2560,1240,2560,1440,7-20-2021,10-37-17,56,,,,,,,1733,510,1001,1003,988,509,,2,4,depth_discrimination_stimuli/000906_2014-06-08_13-35-43_260595134347_rgbf000155-resize_1/000906_2014-06-08_13-35-43_260595134347_rgbf000155-resize-original.jpg,5200,1989973,2127706,36
151736,DepthScenes,duration_discrimination,discrim_jsons/shuffled_g0_dr.json,http://54.89.209.186/DepthDuration/depth_discrimination_MTurk/DepthDiscrim_HTML.html#1,1,2560,1240,2560,1440,7-20-2021,10-37-17,57,,,,,,,1733,510,1001,1003,988,509,,2,2,depth_discrimination_stimuli/001417_2014-06-19_16-25-36_260595134347_rgbf000115-resize_5/001417_2014-06-19_16-25-36_260595134347_rgbf000115-resize-original.jpg,6224,1989973,2127706,36
151736,DepthScenes,duration_discrimination,discrim_jsons/shuffled_g0_dr.json,http://54.89.209.186/DepthDuration/depth_discrimination_MTurk/DepthDiscrim_HTML.html#1,1,2560,1240,2560,1440,7-20-2021,10-37-17,58,,,,,,,1733,510,1001,1003,988,509,,2,4,depth_discrimination_stimuli/000854_2014-06-09_19-43-13_260595134347_rgbf000066-resize_0/000854_2014-06-09_19-43-13_260595134347_rgbf000066-resize-original.jpg,5696,1989973,2127706,36
151736,DepthScenes,duration_discrimination,discrim_jsons/shuffled_g0_dr.json,http://54.89.209.186/DepthDuration/depth_discrimination_MTurk/DepthDiscrim_HTML.html#1,1,2560,1240,2560,1440,7-20-2021,10-37-17,59,,,,,,,1733,510,1001,1003,988,509,,4,5,depth_discrimination_stimuli/002805_2014-06-22_19-54-03_094959634447_rgbf000079-resize_1/002805_2014-06-22_19-54-03_094959634447_rgbf000079-resize-original.jpg,5182,1989973,2127706,36
151736,DepthScenes,duration_discrimination,discrim_jsons/shuffled_g0_dr.json,http://54.89.209.186/DepthDuration/depth_discrimination_MTurk/DepthDiscrim_HTML.html#1,1,2560,1240,2560,1440,7-20-2021,10-37-17,60,,,,,,,1733,510,1001,1003,988,509,,2,3,depth_discrimination_stimuli/001059_2014-06-08_21-53-27_260595134347_rgbf000061-resize_4/001059_2014-06-08_21-53-27_260595134347_rgbf000061-resize-original.jpg,3294,1989973,2127706,36
151736,DepthScenes,duration_discrimination,discrim_jsons/shuffled_g0_dr.json,http://54.89.209.186/DepthDuration/depth_discrimination_MTurk/DepthDiscrim_HTML.html#1,1,2560,1240,2560,1440,7-20-2021,10-37-17,61,,,,,,,1733,510,1001,1003,988,509,,2,2,depth_discrimination_stimuli/002725_2014-06-22_11-47-51_094959634447_rgbf000070-resize_1/002725_2014-06-22_11-47-51_094959634447_rgbf000070-resize-original.jpg,2475,1989973,2127706,36
151736,DepthScenes,duration_discrimination,discrim_jsons/shuffled_g0_dr.json,http://54.89.209.186/DepthDuration/depth_discrimination_MTurk/DepthDiscrim_HTML.html#1,1,2560,1240,2560,1440,7-20-2021,10-37-17,62,,,,,,,1733,510,1001,1003,988,509,,2,3,depth_discrimination_stimuli/001056_2014-06-08_18-46-44_260595134347_rgbf000068-resize_0/001056_2014-06-08_18-46-44_260595134347_rgbf000068-resize-original.jpg,2913,1989973,2127706,36
151736,DepthScenes,duration_discrimination,discrim_jsons/shuffled_g0_dr.json,http://54.89.209.186/DepthDuration/depth_discrimination_MTurk/DepthDiscrim_HTML.html#1,1,2560,1240,2560,1440,7-20-2021,10-37-17,63,,,,,,,1733,510,1001,1003,988,509,,2,3,depth_discrimination_stimuli/002279_2014-06-28_18-55-32_260595134347_rgbf000040-resize_5/002279_2014-06-28_18-55-32_260595134347_rgbf000040-resize-original.jpg,4639,1989973,2127706,36
151736,DepthScenes,duration_discrimination,discrim_jsons/shuffled_g0_dr.json,http://54.89.209.186/DepthDuration/depth_discrimination_MTurk/DepthDiscrim_HTML.html#1,1,2560,1240,2560,1440,7-20-2021,10-37-17,64,,,,,,,1733,510,1001,1003,988,509,,2,4,depth_discrimination_stimuli/000780_2014-06-08_22-28-29_260595134347_rgbf000126-resize_1/000780_2014-06-08_22-28-29_260595134347_rgbf000126-resize-original.jpg,3870,1989973,2127706,36
151736,DepthScenes,duration_discrimination,discrim_jsons/shuffled_g0_dr.json,http://54.89.209.186/DepthDuration/depth_discrimination_MTurk/DepthDiscrim_HTML.html#1,1,2560,1240,2560,1440,7-20-2021,10-37-17,65,,,,,,,1733,510,1001,1003,988,509,,2,2,depth_discrimination_stimuli/003228_2014-05-14_13-42-35_094959634447_rgbf000101-resize_1/003228_2014-05-14_13-42-35_094959634447_rgbf000101-resize-original.jpg,8312,1989973,2127706,36
151736,DepthScenes,duration_discrimination,discrim_jsons/shuffled_g0_dr.json,http://54.89.209.186/DepthDuration/depth_discrimination_MTurk/DepthDiscrim_HTML.html#1,1,2560,1240,2560,1440,7-20-2021,10-37-17,66,,,,,,,1733,510,1001,1003,988,509,,3,5,depth_discrimination_stimuli/000788_2014-06-08_22-34-36_260595134347_rgbf000131-resize_1/000788_2014-06-08_22-34-36_260595134347_rgbf000131-resize-original.jpg,5014,1989973,2127706,36
151736,DepthScenes,duration_discrimination,discrim_jsons/shuffled_g0_dr.json,http://54.89.209.186/DepthDuration/depth_discrimination_MTurk/DepthDiscrim_HTML.html#1,1,2560,1240,2560,1440,7-20-2021,10-37-17,67,,,,,,,1733,510,1001,1003,988,509,,2,4,depth_discrimination_stimuli/001150_2014-06-17_15-27-34_260595134347_rgbf000108-resize_2/001150_2014-06-17_15-27-34_260595134347_rgbf000108-resize-original.jpg,3454,1989973,2127706,36
151736,DepthScenes,duration_discrimination,discrim_jsons/shuffled_g0_dr.json,http://54.89.209.186/DepthDuration/depth_discrimination_MTurk/DepthDiscrim_HTML.html#1,1,2560,1240,2560,1440,7-20-2021,10-37-17,68,,,,,,,1733,510,1001,1003,988,509,,2,3,depth_discrimination_stimuli/002131_2014-06-25_21-12-01_260595134347_rgbf000083-resize_0/002131_2014-06-25_21-12-01_260595134347_rgbf000083-resize-original.jpg,21104,1989973,2127706,36
151736,DepthScenes,duration_discrimination,discrim_jsons/shuffled_g0_dr.json,http://54.89.209.186/DepthDuration/depth_discrimination_MTurk/DepthDiscrim_HTML.html#1,1,2560,1240,2560,1440,7-20-2021,10-37-17,69,,,,,,,1733,510,1001,1003,988,509,,3,3,depth_discrimination_stimuli/000009_2014-05-26_14-32-05_260595134347_rgbf000034-resize_3/000009_2014-05-26_14-32-05_260595134347_rgbf000034-resize-original.jpg,6056,1989973,2127706,36
151736,DepthScenes,duration_discrimination,discrim_jsons/shuffled_g0_dr.json,http://54.89.209.186/DepthDuration/depth_discrimination_MTurk/DepthDiscrim_HTML.html#1,1,2560,1240,2560,1440,7-20-2021,10-37-17,70,,,,,,,1733,510,1001,1003,988,509,,3,4,depth_discrimination_stimuli/000447_2014-06-08_16-15-46_260595134347_rgbf000130-resize_1/000447_2014-06-08_16-15-46_260595134347_rgbf000130-resize-original.jpg,3355,1989973,2127706,36
151736,DepthScenes,duration_discrimination,discrim_jsons/shuffled_g0_dr.json,http://54.89.209.186/DepthDuration/depth_discrimination_MTurk/DepthDiscrim_HTML.html#1,1,2560,1240,2560,1440,7-20-2021,10-37-17,71,,,,,,,1733,510,1001,1003,988,509,,3,4,depth_discrimination_stimuli/000665_2014-06-09_20-42-35_260595134347_rgbf000110-resize_1/000665_2014-06-09_20-42-35_260595134347_rgbf000110-resize-original.jpg,4357,1989973,2127706,36
151736,DepthScenes,duration_discrimination,discrim_jsons/shuffled_g0_dr.json,http://54.89.209.186/DepthDuration/depth_discrimination_MTurk/DepthDiscrim_HTML.html#1,1,2560,1240,2560,1440,7-20-2021,10-37-17,72,,,,,,,1733,510,1001,1003,988,509,,2,2,depth_discrimination_stimuli/003092_2014-06-24_21-01-49_094959634447_rgbf000049-resize_2/003092_2014-06-24_21-01-49_094959634447_rgbf000049-resize-original.jpg,2395,1989973,2127706,36
151736,DepthScenes,duration_discrimination,discrim_jsons/shuffled_g0_dr.json,http://54.89.209.186/DepthDuration/depth_discrimination_MTurk/DepthDiscrim_HTML.html#1,1,2560,1240,2560,1440,7-20-2021,10-37-17,73,,,,,,,1733,510,1001,1003,988,509,,3,3,depth_discrimination_stimuli/000436_2014-06-09_22-25-11_260595134347_rgbf000137-resize_1/000436_2014-06-09_22-25-11_260595134347_rgbf000137-resize-original.jpg,3539,1989973,2127706,36
151736,DepthScenes,duration_discrimination,discrim_jsons/shuffled_g0_dr.json,http://54.89.209.186/DepthDuration/depth_discrimination_MTurk/DepthDiscrim_HTML.html#1,1,2560,1240,2560,1440,7-20-2021,10-37-17,74,,,,,,,1733,510,1001,1003,988,509,,3,5,depth_discrimination_stimuli/000749_2014-06-08_21-55-06_260595134347_rgbf000070-resize_2/000749_2014-06-08_21-55-06_260595134347_rgbf000070-resize-original.jpg,3935,1989973,2127706,36
151736,DepthScenes,duration_discrimination,discrim_jsons/shuffled_g0_dr.json,http://54.89.209.186/DepthDuration/depth_discrimination_MTurk/DepthDiscrim_HTML.html#1,1,2560,1240,2560,1440,7-20-2021,10-37-17,75,,,,,,,1733,510,1001,1003,988,509,,2,3,depth_discrimination_stimuli/002209_2014-06-28_18-36-10_260595134347_rgbf000051-resize_1/002209_2014-06-28_18-36-10_260595134347_rgbf000051-resize-original.jpg,2987,1989973,2127706,36
151736,DepthScenes,duration_discrimination,discrim_jsons/shuffled_g0_dr.json,http://54.89.209.186/DepthDuration/depth_discrimination_MTurk/DepthDiscrim_HTML.html#1,1,2560,1240,2560,1440,7-20-2021,10-37-17,76,,,,,,,1733,510,1001,1003,988,509,,2,3,depth_discrimination_stimuli/002425_2014-06-28_20-27-29_260595134347_rgbf000031-resize_8/002425_2014-06-28_20-27-29_260595134347_rgbf000031-resize-original.jpg,6588,1989973,2127706,36
151736,DepthScenes,duration_discrimination,discrim_jsons/shuffled_g0_dr.json,http://54.89.209.186/DepthDuration/depth_discrimination_MTurk/DepthDiscrim_HTML.html#1,1,2560,1240,2560,1440,7-20-2021,10-37-17,77,,,,,,,1733,510,1001,1003,988,509,,2,4,depth_discrimination_stimuli/002784_2014-06-22_19-26-30_094959634447_rgbf000083-resize_3/002784_2014-06-22_19-26-30_094959634447_rgbf000083-resize-original.jpg,3899,1989973,2127706,36
151736,DepthScenes,duration_discrimination,discrim_jsons/shuffled_g0_dr.json,http://54.89.209.186/DepthDuration/depth_discrimination_MTurk/DepthDiscrim_HTML.html#1,1,2560,1240,2560,1440,7-20-2021,10-37-17,78,,,,,,,1733,510,1001,1003,988,509,,2,3,depth_discrimination_stimuli/003338_2014-05-20_11-01-23_094959634447_rgbf000051-resize_6/003338_2014-05-20_11-01-23_094959634447_rgbf000051-resize-original.jpg,12605,1989973,2127706,36
151736,DepthScenes,duration_discrimination,discrim_jsons/shuffled_g0_dr.json,http://54.89.209.186/DepthDuration/depth_discrimination_MTurk/DepthDiscrim_HTML.html#1,1,2560,1240,2560,1440,7-20-2021,10-37-17,79,,,,,,,1733,510,1001,1003,988,509,,2,3,depth_discrimination_stimuli/001100_2014-06-15_17-46-26_260595134347_rgbf000225-resize_2/001100_2014-06-15_17-46-26_260595134347_rgbf000225-resize-original.jpg,2667,1989973,2127706,36
151736,DepthScenes,duration_discrimination,discrim_jsons/shuffled_g0_dr.json,http://54.89.209.186/DepthDuration/depth_discrimination_MTurk/DepthDiscrim_HTML.html#1,1,2560,1240,2560,1440,7-20-2021,10-37-17,80,,,,,,,1733,510,1001,1003,988,509,,3,4,depth_discrimination_stimuli/000758_2014-06-08_22-05-08_260595134347_rgbf000085-resize_0/000758_2014-06-08_22-05-08_260595134347_rgbf000085-resize-original.jpg,2843,1989973,2127706,36
151736,DepthScenes,duration_discrimination,discrim_jsons/shuffled_g0_dr.json,http://54.89.209.186/DepthDuration/depth_discrimination_MTurk/DepthDiscrim_HTML.html#1,1,2560,1240,2560,1440,7-20-2021,10-37-17,81,,,,,,,1733,510,1001,1003,988,509,,2,4,depth_discrimination_stimuli/003534_2014-05-22_15-06-10_094959634447_rgbf000102-resize_4/003534_2014-05-22_15-06-10_094959634447_rgbf000102-resize-original.jpg,8392,1989973,2127706,36
151736,DepthScenes,duration_discrimination,discrim_jsons/shuffled_g0_dr.json,http://54.89.209.186/DepthDuration/depth_discrimination_MTurk/DepthDiscrim_HTML.html#1,1,2560,1240,2560,1440,7-20-2021,10-37-17,82,,,,,,,1733,510,1001,1003,988,509,,3,4,depth_discrimination_stimuli/002657_2014-06-13_15-29-54_094959634447_rgbf000150-resize_1/002657_2014-06-13_15-29-54_094959634447_rgbf000150-resize-original.jpg,2939,1989973,2127706,36
151736,DepthScenes,duration_discrimination,discrim_jsons/shuffled_g0_dr.json,http://54.89.209.186/DepthDuration/depth_discrimination_MTurk/DepthDiscrim_HTML.html#1,1,2560,1240,2560,1440,7-20-2021,10-37-17,83,,,,,,,1733,510,1001,1003,988,509,,2,3,depth_discrimination_stimuli/001199_2014-06-17_16-03-48_260595134347_rgbf000077-resize_0/001199_2014-06-17_16-03-48_260595134347_rgbf000077-resize-original.jpg,2940,1989973,2127706,36
151736,DepthScenes,duration_discrimination,discrim_jsons/shuffled_g0_dr.json,http://54.89.209.186/DepthDuration/depth_discrimination_MTurk/DepthDiscrim_HTML.html#1,1,2560,1240,2560,1440,7-20-2021,10-37-17,84,,,,,,,1733,510,1001,1003,988,509,,4,5,depth_discrimination_stimuli/001264_2014-06-16_16-10-23_260595134347_rgbf000109-resize_1/001264_2014-06-16_16-10-23_260595134347_rgbf000109-resize-original.jpg,3044,1989973,2127706,36
151736,DepthScenes,duration_discrimination,discrim_jsons/shuffled_g0_dr.json,http://54.89.209.186/DepthDuration/depth_discrimination_MTurk/DepthDiscrim_HTML.html#1,1,2560,1240,2560,1440,7-20-2021,10-37-17,85,,,,,,,1733,510,1001,1003,988,509,,3,5,depth_discrimination_stimuli/000486_2014-06-09_20-47-20_260595134347_rgbf000143-resize_2/000486_2014-06-09_20-47-20_260595134347_rgbf000143-resize-original.jpg,2427,1989973,2127706,36
151736,DepthScenes,duration_discrimination,discrim_jsons/shuffled_g0_dr.json,http://54.89.209.186/DepthDuration/depth_discrimination_MTurk/DepthDiscrim_HTML.html#1,1,2560,1240,2560,1440,7-20-2021,10-37-17,86,,,,,,,1733,510,1001,1003,988,509,,2,5,depth_discrimination_stimuli/001132_2014-06-17_14-48-54_260595134347_rgbf000100-resize_2/001132_2014-06-17_14-48-54_260595134347_rgbf000100-resize-original.jpg,6208,1989973,2127706,36
151736,DepthScenes,duration_discrimination,discrim_jsons/shuffled_g0_dr.json,http://54.89.209.186/DepthDuration/depth_discrimination_MTurk/DepthDiscrim_HTML.html#1,1,2560,1240,2560,1440,7-20-2021,10-37-17,87,,,,,,,1733,510,1001,1003,988,509,,4,5,depth_discrimination_stimuli/003079_2014-06-15_15-18-20_094959634447_rgbf000152-resize_8/003079_2014-06-15_15-18-20_094959634447_rgbf000152-resize-original.jpg,8400,1989973,2127706,36
151736,DepthScenes,duration_discrimination,discrim_jsons/shuffled_g0_dr.json,http://54.89.209.186/DepthDuration/depth_discrimination_MTurk/DepthDiscrim_HTML.html#1,1,2560,1240,2560,1440,7-20-2021,10-37-17,88,,,,,,,1733,510,1001,1003,988,509,,3,2,depth_discrimination_stimuli/000109_2014-05-14_23-41-52_260595134347_rgbf000035-resize_9/000109_2014-05-14_23-41-52_260595134347_rgbf000035-resize-original.jpg,2250,1989973,2127706,36
151736,DepthScenes,duration_discrimination,discrim_jsons/shuffled_g0_dr.json,http://54.89.209.186/DepthDuration/depth_discrimination_MTurk/DepthDiscrim_HTML.html#1,1,2560,1240,2560,1440,7-20-2021,10-37-17,89,,,,,,,1733,510,1001,1003,988,509,,3,2,depth_discrimination_stimuli/002953_2014-06-08_17-32-18_094959634447_rgbf000059-resize_5/002953_2014-06-08_17-32-18_094959634447_rgbf000059-resize-original.jpg,2300,1989973,2127706,36
151736,DepthScenes,duration_discrimination,discrim_jsons/shuffled_g0_dr.json,http://54.89.209.186/DepthDuration/depth_discrimination_MTurk/DepthDiscrim_HTML.html#1,1,2560,1240,2560,1440,7-20-2021,10-37-17,90,,,,,,,1733,510,1001,1003,988,509,,3,4,depth_discrimination_stimuli/001806_2014-06-26_20-50-20_260595134347_rgbf000091-resize_1/001806_2014-06-26_20-50-20_260595134347_rgbf000091-resize-original.jpg,2219,1989973,2127706,36
151736,DepthScenes,duration_discrimination,discrim_jsons/shuffled_g0_dr.json,http://54.89.209.186/DepthDuration/depth_discrimination_MTurk/DepthDiscrim_HTML.html#1,1,2560,1240,2560,1440,7-20-2021,10-37-17,91,,,,,,,1733,510,1001,1003,988,509,,3,4,depth_discrimination_stimuli/003495_2014-05-21_16-01-51_094959634447_rgbf000100-resize_3/003495_2014-05-21_16-01-51_094959634447_rgbf000100-resize-original.jpg,3532,1989973,2127706,36
151736,DepthScenes,duration_discrimination,discrim_jsons/shuffled_g0_dr.json,http://54.89.209.186/DepthDuration/depth_discrimination_MTurk/DepthDiscrim_HTML.html#1,1,2560,1240,2560,1440,7-20-2021,10-37-17,92,,,,,,,1733,510,1001,1003,988,509,,3,5,depth_discrimination_stimuli/002663_2014-06-13_15-50-26_094959634447_rgbf000075-resize_1/002663_2014-06-13_15-50-26_094959634447_rgbf000075-resize-original.jpg,14456,1989973,2127706,36
151736,DepthScenes,duration_discrimination,discrim_jsons/shuffled_g0_dr.json,http://54.89.209.186/DepthDuration/depth_discrimination_MTurk/DepthDiscrim_HTML.html#1,1,2560,1240,2560,1440,7-20-2021,10-37-17,93,,,,,,,1733,510,1001,1003,988,509,,3,5,depth_discrimination_stimuli/000878_2014-06-08_22-52-45_260595134347_rgbf000045-resize_2/000878_2014-06-08_22-52-45_260595134347_rgbf000045-resize-original.jpg,7452,1989973,2127706,36
151736,DepthScenes,duration_discrimination,discrim_jsons/shuffled_g0_dr.json,http://54.89.209.186/DepthDuration/depth_discrimination_MTurk/DepthDiscrim_HTML.html#1,1,2560,1240,2560,1440,7-20-2021,10-37-17,94,,,,,,,1733,510,1001,1003,988,509,,3,5,depth_discrimination_stimuli/000103_2014-05-14_22-01-17_260595134347_rgbf000152-resize_5/000103_2014-05-14_22-01-17_260595134347_rgbf000152-resize-original.jpg,2636,1989973,2127706,36
151736,DepthScenes,duration_discrimination,discrim_jsons/shuffled_g0_dr.json,http://54.89.209.186/DepthDuration/depth_discrimination_MTurk/DepthDiscrim_HTML.html#1,1,2560,1240,2560,1440,7-20-2021,10-37-17,95,,,,,,,1733,510,1001,1003,988,509,,2,3,depth_discrimination_stimuli/002989_2014-06-15_12-25-03_094959634447_rgbf000150-resize_3/002989_2014-06-15_12-25-03_094959634447_rgbf000150-resize-original.jpg,3252,1989973,2127706,36
151736,DepthScenes,duration_discrimination,discrim_jsons/shuffled_g0_dr.json,http://54.89.209.186/DepthDuration/depth_discrimination_MTurk/DepthDiscrim_HTML.html#1,1,2560,1240,2560,1440,7-20-2021,10-37-17,96,,,,,,,1733,510,1001,1003,988,509,,3,4,depth_discrimination_stimuli/001724_2014-06-26_19-28-50_260595134347_rgbf000037-resize_7/001724_2014-06-26_19-28-50_260595134347_rgbf000037-resize-original.jpg,2868,1989973,2127706,36
151736,DepthScenes,duration_discrimination,discrim_jsons/shuffled_g0_dr.json,http://54.89.209.186/DepthDuration/depth_discrimination_MTurk/DepthDiscrim_HTML.html#1,1,2560,1240,2560,1440,7-20-2021,10-37-17,97,,,,,,,1733,510,1001,1003,988,509,,3,4,depth_discrimination_stimuli/000917_2014-06-09_22-45-29_260595134347_rgbf000149-resize_3/000917_2014-06-09_22-45-29_260595134347_rgbf000149-resize-original.jpg,2780,1989973,2127706,36
151736,DepthScenes,duration_discrimination,discrim_jsons/shuffled_g0_dr.json,http://54.89.209.186/DepthDuration/depth_discrimination_MTurk/DepthDiscrim_HTML.html#1,1,2560,1240,2560,1440,7-20-2021,10-37-17,98,,,,,,,1733,510,1001,1003,988,509,,3,4,depth_discrimination_stimuli/001016_2014-06-09_16-16-10_260595134347_rgbf000112-resize_5/001016_2014-06-09_16-16-10_260595134347_rgbf000112-resize-original.jpg,2044,1989973,2127706,36
151736,DepthScenes,duration_discrimination,discrim_jsons/shuffled_g0_dr.json,http://54.89.209.186/DepthDuration/depth_discrimination_MTurk/DepthDiscrim_HTML.html#1,1,2560,1240,2560,1440,7-20-2021,10-37-17,99,,,,,,,1733,510,1001,1003,988,509,,4,3,depth_discrimination_stimuli/000709_2014-06-08_13-51-55_260595134347_rgbf000068-resize_3/000709_2014-06-08_13-51-55_260595134347_rgbf000068-resize-original.jpg,2762,1989973,2127706,36
151736,DepthScenes,duration_discrimination,discrim_jsons/shuffled_g0_dr.json,http://54.89.209.186/DepthDuration/depth_discrimination_MTurk/DepthDiscrim_HTML.html#1,1,2560,1240,2560,1440,7-20-2021,10-37-17,100,,,,,,,1733,510,1001,1003,988,509,,5,4,depth_discrimination_stimuli/001175_2014-06-17_15-45-55_260595134347_rgbf000129-resize_4/001175_2014-06-17_15-45-55_260595134347_rgbf000129-resize-original.jpg,2276,1989973,2127706,36
151736,DepthScenes,duration_discrimination,discrim_jsons/shuffled_g0_dr.json,http://54.89.209.186/DepthDuration/depth_discrimination_MTurk/DepthDiscrim_HTML.html#1,1,2560,1240,2560,1440,7-20-2021,10-37-17,101,,,,,,,1733,510,1001,1003,988,509,,3,4,depth_discrimination_stimuli/002043_2014-06-24_20-29-38_260595134347_rgbf000039-resize_4/002043_2014-06-24_20-29-38_260595134347_rgbf000039-resize-original.jpg,1506,1989973,2127706,36
151736,DepthScenes,duration_discrimination,discrim_jsons/shuffled_g0_dr.json,http://54.89.209.186/DepthDuration/depth_discrimination_MTurk/DepthDiscrim_HTML.html#1,1,2560,1240,2560,1440,7-20-2021,10-37-17,102,,,,,,,1733,510,1001,1003,988,509,,2,3,depth_discrimination_stimuli/001392_2014-06-19_16-07-59_260595134347_rgbf000046-resize_1/001392_2014-06-19_16-07-59_260595134347_rgbf000046-resize-original.jpg,1554,1989973,2127706,36
151736,DepthScenes,duration_discrimination,discrim_jsons/shuffled_g0_dr.json,http://54.89.209.186/DepthDuration/depth_discrimination_MTurk/DepthDiscrim_HTML.html#1,1,2560,1240,2560,1440,7-20-2021,10-37-17,103,,,,,,,1733,510,1001,1003,988,509,,4,3,depth_discrimination_stimuli/001571_2014-06-20_17-21-32_260595134347_rgbf000089-resize_1/001571_2014-06-20_17-21-32_260595134347_rgbf000089-resize-original.jpg,1482,1989973,2127706,36
151736,DepthScenes,duration_discrimination,discrim_jsons/shuffled_g0_dr.json,http://54.89.209.186/DepthDuration/depth_discrimination_MTurk/DepthDiscrim_HTML.html#1,1,2560,1240,2560,1440,7-20-2021,10-37-17,104,,,,,,,1733,510,1001,1003,988,509,,3,4,depth_discrimination_stimuli/001110_2014-06-15_17-25-28_260595134347_rgbf000150-resize_1/001110_2014-06-15_17-25-28_260595134347_rgbf000150-resize-original.jpg,2292,1989973,2127706,36
151736,DepthScenes,duration_discrimination,discrim_jsons/shuffled_g0_dr.json,http://54.89.209.186/DepthDuration/depth_discrimination_MTurk/DepthDiscrim_HTML.html#1,1,2560,1240,2560,1440,7-20-2021,10-37-17,105,,,,,,,1733,510,1001,1003,988,509,,2,3,depth_discrimination_stimuli/002949_2014-06-26_15-57-42_094959634447_rgbf000079-resize_1/002949_2014-06-26_15-57-42_094959634447_rgbf000079-resize-original.jpg,1786,1989973,2127706,36
151736,DepthScenes,duration_discrimination,discrim_jsons/shuffled_g0_dr.json,http://54.89.209.186/DepthDuration/depth_discrimination_MTurk/DepthDiscrim_HTML.html#1,1,2560,1240,2560,1440,7-20-2021,10-37-17,106,,,,,,,1733,510,1001,1003,988,509,,2,3,depth_discrimination_stimuli/001570_2014-06-20_17-21-09_260595134347_rgbf000135-resize_4/001570_2014-06-20_17-21-09_260595134347_rgbf000135-resize-original.jpg,2514,1989973,2127706,36
151736,DepthScenes,duration_discrimination,discrim_jsons/shuffled_g0_dr.json,http://54.89.209.186/DepthDuration/depth_discrimination_MTurk/DepthDiscrim_HTML.html#1,1,2560,1240,2560,1440,7-20-2021,10-37-17,107,,,,,,,1733,510,1001,1003,988,509,,2,2,depth_discrimination_stimuli/001808_2014-06-26_20-50-58_260595134347_rgbf000029-resize_1/001808_2014-06-26_20-50-58_260595134347_rgbf000029-resize-original.jpg,2436,1989973,2127706,36
151736,DepthScenes,duration_discrimination,discrim_jsons/shuffled_g0_dr.json,http://54.89.209.186/DepthDuration/depth_discrimination_MTurk/DepthDiscrim_HTML.html#1,1,2560,1240,2560,1440,7-20-2021,10-37-17,108,,,,,,,1733,510,1001,1003,988,509,,3,3,depth_discrimination_stimuli/000734_2014-06-08_17-39-11_260595134347_rgbf000128-resize_2/000734_2014-06-08_17-39-11_260595134347_rgbf000128-resize-original.jpg,2396,1989973,2127706,36
151736,DepthScenes,duration_discrimination,discrim_jsons/shuffled_g0_dr.json,http://54.89.209.186/DepthDuration/depth_discrimination_MTurk/DepthDiscrim_HTML.html#1,1,2560,1240,2560,1440,7-20-2021,10-37-17,109,,,,,,,1733,510,1001,1003,988,509,,2,3,depth_discrimination_stimuli/000929_2014-06-09_16-33-19_260595134347_rgbf000139-resize_0/000929_2014-06-09_16-33-19_260595134347_rgbf000139-resize-original.jpg,1626,1989973,2127706,36
151736,DepthScenes,duration_discrimination,discrim_jsons/shuffled_g0_dr.json,http://54.89.209.186/DepthDuration/depth_discrimination_MTurk/DepthDiscrim_HTML.html#1,1,2560,1240,2560,1440,7-20-2021,10-37-17,110,,,,,,,1733,510,1001,1003,988,509,,4,3,depth_discrimination_stimuli/000682_2014-06-08_23-14-58_260595134347_rgbf000041-resize_5/000682_2014-06-08_23-14-58_260595134347_rgbf000041-resize-original.jpg,1730,1989973,2127706,36
151736,DepthScenes,duration_discrimination,discrim_jsons/shuffled_g0_dr.json,http://54.89.209.186/DepthDuration/depth_discrimination_MTurk/DepthDiscrim_HTML.html#1,1,2560,1240,2560,1440,7-20-2021,10-37-17,111,,,,,,,1733,510,1001,1003,988,509,,2,3,depth_discrimination_stimuli/001197_2014-06-17_16-01-50_260595134347_rgbf000103-resize_4/001197_2014-06-17_16-01-50_260595134347_rgbf000103-resize-original.jpg,1314,1989973,2127706,36
151736,DepthScenes,duration_discrimination,discrim_jsons/shuffled_g0_dr.json,http://54.89.209.186/DepthDuration/depth_discrimination_MTurk/DepthDiscrim_HTML.html#1,1,2560,1240,2560,1440,7-20-2021,10-37-17,112,,,,,,,1733,510,1001,1003,988,509,,2,3,depth_discrimination_stimuli/002139_2014-06-25_21-19-37_260595134347_rgbf000124-resize_2/002139_2014-06-25_21-19-37_260595134347_rgbf000124-resize-original.jpg,1586,1989973,2127706,36
151736,DepthScenes,duration_discrimination,discrim_jsons/shuffled_g0_dr.json,http://54.89.209.186/DepthDuration/depth_discrimination_MTurk/DepthDiscrim_HTML.html#1,1,2560,1240,2560,1440,7-20-2021,10-37-17,113,,,,,,,1733,510,1001,1003,988,509,,2,3,depth_discrimination_stimuli/001158_2014-06-17_15-32-16_260595134347_rgbf000138-resize_2/001158_2014-06-17_15-32-16_260595134347_rgbf000138-resize-original.jpg,3052,1989973,2127706,36
151736,DepthScenes,duration_discrimination,discrim_jsons/shuffled_g0_dr.json,http://54.89.209.186/DepthDuration/depth_discrimination_MTurk/DepthDiscrim_HTML.html#1,1,2560,1240,2560,1440,7-20-2021,10-37-17,114,,,,,,,1733,510,1001,1003,988,509,,3,3,depth_discrimination_stimuli/002995_2014-06-15_12-31-26_094959634447_rgbf000150-resize_1/002995_2014-06-15_12-31-26_094959634447_rgbf000150-resize-original.jpg,2508,1989973,2127706,36
151736,DepthScenes,duration_discrimination,discrim_jsons/shuffled_g0_dr.json,http://54.89.209.186/DepthDuration/depth_discrimination_MTurk/DepthDiscrim_HTML.html#1,1,2560,1240,2560,1440,7-20-2021,10-37-17,115,,,,,,,1733,510,1001,1003,988,509,,3,4,depth_discrimination_stimuli/000635_2014-06-08_16-38-42_260595134347_rgbf000106-resize_1/000635_2014-06-08_16-38-42_260595134347_rgbf000106-resize-original.jpg,2314,1989973,2127706,36
151736,DepthScenes,duration_discrimination,discrim_jsons/shuffled_g0_dr.json,http://54.89.209.186/DepthDuration/depth_discrimination_MTurk/DepthDiscrim_HTML.html#1,1,2560,1240,2560,1440,7-20-2021,10-37-17,116,,,,,,,1733,510,1001,1003,988,509,,2,3,depth_discrimination_stimuli/000522_2014-06-08_13-35-06_260595134347_rgbf000244-resize_1/000522_2014-06-08_13-35-06_260595134347_rgbf000244-resize-original.jpg,2940,1989973,2127706,36
151736,DepthScenes,duration_discrimination,discrim_jsons/shuffled_g0_dr.json,http://54.89.209.186/DepthDuration/depth_discrimination_MTurk/DepthDiscrim_HTML.html#1,1,2560,1240,2560,1440,7-20-2021,10-37-17,117,,,,,,,1733,510,1001,1003,988,509,,3,4,depth_discrimination_stimuli/000368_2014-06-09_15-53-01_260595134347_rgbf000155-resize_2/000368_2014-06-09_15-53-01_260595134347_rgbf000155-resize-original.jpg,2076,1989973,2127706,36
151736,DepthScenes,duration_discrimination,discrim_jsons/shuffled_g0_dr.json,http://54.89.209.186/DepthDuration/depth_discrimination_MTurk/DepthDiscrim_HTML.html#1,1,2560,1240,2560,1440,7-20-2021,10-37-17,118,,,,,,,1733,510,1001,1003,988,509,,2,2,depth_discrimination_stimuli/000869_2014-06-09_20-50-18_260595134347_rgbf000060-resize_3/000869_2014-06-09_20-50-18_260595134347_rgbf000060-resize-original.jpg,2370,1989973,2127706,36
151736,DepthScenes,duration_discrimination,discrim_jsons/shuffled_g0_dr.json,http://54.89.209.186/DepthDuration/depth_discrimination_MTurk/DepthDiscrim_HTML.html#1,1,2560,1240,2560,1440,7-20-2021,10-37-17,119,,,,,,,1733,510,1001,1003,988,509,,2,3,depth_discrimination_stimuli/001828_2014-06-26_21-40-03_260595134347_rgbf000024-resize_0/001828_2014-06-26_21-40-03_260595134347_rgbf000024-resize-original.jpg,4184,1989973,2127706,36
151736,DepthScenes,duration_discrimination,discrim_jsons/shuffled_g0_dr.json,http://54.89.209.186/DepthDuration/depth_discrimination_MTurk/DepthDiscrim_HTML.html#1,1,2560,1240,2560,1440,7-20-2021,10-37-17,120,,,,,,,1733,510,1001,1003,988,509,,2,3,depth_discrimination_stimuli/002758_2014-06-22_19-11-20_094959634447_rgbf000128-resize_1/002758_2014-06-22_19-11-20_094959634447_rgbf000128-resize-original.jpg,2891,1989973,2127706,36
151736,DepthScenes,duration_discrimination,discrim_jsons/shuffled_g0_dr.json,http://54.89.209.186/DepthDuration/depth_discrimination_MTurk/DepthDiscrim_HTML.html#1,1,2560,1240,2560,1440,7-20-2021,10-37-17,121,,,,,,,1733,510,1001,1003,988,509,,2,3,depth_discrimination_stimuli/000810_2014-06-08_17-20-01_260595134347_rgbf000105-resize_0/000810_2014-06-08_17-20-01_260595134347_rgbf000105-resize-original.jpg,2105,1989973,2127706,36
151736,DepthScenes,duration_discrimination,discrim_jsons/shuffled_g0_dr.json,http://54.89.209.186/DepthDuration/depth_discrimination_MTurk/DepthDiscrim_HTML.html#1,1,2560,1240,2560,1440,7-20-2021,10-37-17,122,,,,,,,1733,510,1001,1003,988,509,,3,4,depth_discrimination_stimuli/003129_2014-05-12_10-48-10_094959634447_rgbf000100-resize_0/003129_2014-05-12_10-48-10_094959634447_rgbf000100-resize-original.jpg,1971,1989973,2127706,36
151736,DepthScenes,duration_discrimination,discrim_jsons/shuffled_g0_dr.json,http://54.89.209.186/DepthDuration/depth_discrimination_MTurk/DepthDiscrim_HTML.html#1,1,2560,1240,2560,1440,7-20-2021,10-37-17,123,,,,,,,1733,510,1001,1003,988,509,,2,3,depth_discrimination_stimuli/001244_2014-06-17_16-47-45_260595134347_rgbf000030-resize_4/001244_2014-06-17_16-47-45_260595134347_rgbf000030-resize-original.jpg,2745,1989973,2127706,36
151736,DepthScenes,duration_discrimination,discrim_jsons/shuffled_g0_dr.json,http://54.89.209.186/DepthDuration/depth_discrimination_MTurk/DepthDiscrim_HTML.html#1,1,2560,1240,2560,1440,7-20-2021,10-37-17,124,,,,,,,1733,510,1001,1003,988,509,,1,2,depth_discrimination_stimuli/001516_2014-06-20_16-25-09_260595134347_rgbf000076-resize_2/001516_2014-06-20_16-25-09_260595134347_rgbf000076-resize-original.jpg,3180,1989973,2127706,36
151736,DepthScenes,duration_discrimination,discrim_jsons/shuffled_g0_dr.json,http://54.89.209.186/DepthDuration/depth_discrimination_MTurk/DepthDiscrim_HTML.html#1,1,2560,1240,2560,1440,7-20-2021,10-37-17,125,,,,,,,1733,510,1001,1003,988,509,,2,3,depth_discrimination_stimuli/002103_2014-06-25_20-00-40_260595134347_rgbf000049-resize_0/002103_2014-06-25_20-00-40_260595134347_rgbf000049-resize-original.jpg,1963,1989973,2127706,36
151736,DepthScenes,duration_discrimination,discrim_jsons/shuffled_g0_dr.json,http://54.89.209.186/DepthDuration/depth_discrimination_MTurk/DepthDiscrim_HTML.html#1,1,2560,1240,2560,1440,7-20-2021,10-37-17,126,,,,,,,1733,510,1001,1003,988,509,,2,3,depth_discrimination_stimuli/000642_2014-06-08_16-59-25_260595134347_rgbf000098-resize_2/000642_2014-06-08_16-59-25_260595134347_rgbf000098-resize-original.jpg,4589,1989973,2127706,36
151736,DepthScenes,duration_discrimination,discrim_jsons/shuffled_g0_dr.json,http://54.89.209.186/DepthDuration/depth_discrimination_MTurk/DepthDiscrim_HTML.html#1,1,2560,1240,2560,1440,7-20-2021,10-37-17,127,,,,,,,1733,510,1001,1003,988,509,,2,3,depth_discrimination_stimuli/002579_2014-06-24_14-08-03_094959634447_rgbf000061-resize_2/002579_2014-06-24_14-08-03_094959634447_rgbf000061-resize-original.jpg,2145,1989973,2127706,36
151736,DepthScenes,duration_discrimination,discrim_jsons/shuffled_g0_dr.json,http://54.89.209.186/DepthDuration/depth_discrimination_MTurk/DepthDiscrim_HTML.html#1,1,2560,1240,2560,1440,7-20-2021,10-37-17,128,,,,,,,1733,510,1001,1003,988,509,,2,3,depth_discrimination_stimuli/001032_2014-06-08_13-23-17_260595134347_rgbf000021-resize_3/001032_2014-06-08_13-23-17_260595134347_rgbf000021-resize-original.jpg,17362,1989973,2127706,36
151736,DepthScenes,duration_discrimination,discrim_jsons/shuffled_g0_dr.json,http://54.89.209.186/DepthDuration/depth_discrimination_MTurk/DepthDiscrim_HTML.html#1,1,2560,1240,2560,1440,7-20-2021,10-37-17,129,,,,,,,1733,510,1001,1003,988,509,,4,5,depth_discrimination_stimuli/002468_2014-06-28_20-38-39_260595134347_rgbf000045-resize_1/002468_2014-06-28_20-38-39_260595134347_rgbf000045-resize-original.jpg,2644,1989973,2127706,36
151736,DepthScenes,duration_discrimination,discrim_jsons/shuffled_g0_dr.json,http://54.89.209.186/DepthDuration/depth_discrimination_MTurk/DepthDiscrim_HTML.html#1,1,2560,1240,2560,1440,7-20-2021,10-37-17,130,,,,,,,1733,510,1001,1003,988,509,,3,4,depth_discrimination_stimuli/000636_2014-06-08_16-39-02_260595134347_rgbf000108-resize_4/000636_2014-06-08_16-39-02_260595134347_rgbf000108-resize-original.jpg,2449,1989973,2127706,36
151736,DepthScenes,duration_discrimination,discrim_jsons/shuffled_g0_dr.json,http://54.89.209.186/DepthDuration/depth_discrimination_MTurk/DepthDiscrim_HTML.html#1,1,2560,1240,2560,1440,7-20-2021,10-37-17,131,,,,,,,1733,510,1001,1003,988,509,,2,3,depth_discrimination_stimuli/000943_2014-06-09_19-31-07_260595134347_rgbf000128-resize_1/000943_2014-06-09_19-31-07_260595134347_rgbf000128-resize-original.jpg,1964,1989973,2127706,36
151736,DepthScenes,duration_discrimination,discrim_jsons/shuffled_g0_dr.json,http://54.89.209.186/DepthDuration/depth_discrimination_MTurk/DepthDiscrim_HTML.html#1,1,2560,1240,2560,1440,7-20-2021,10-37-17,132,,,,,,,1733,510,1001,1003,988,509,,2,3,depth_discrimination_stimuli/002509_2014-06-24_13-19-22_094959634447_rgbf000077-resize_0/002509_2014-06-24_13-19-22_094959634447_rgbf000077-resize-original.jpg,2034,1989973,2127706,36
151736,DepthScenes,duration_discrimination,discrim_jsons/shuffled_g0_dr.json,http://54.89.209.186/DepthDuration/depth_discrimination_MTurk/DepthDiscrim_HTML.html#1,1,2560,1240,2560,1440,7-20-2021,10-37-17,133,,,,,,,1733,510,1001,1003,988,509,,3,4,depth_discrimination_stimuli/001148_2014-06-17_15-26-42_260595134347_rgbf000129-resize_0/001148_2014-06-17_15-26-42_260595134347_rgbf000129-resize-original.jpg,5216,1989973,2127706,36
151736,DepthScenes,duration_discrimination,discrim_jsons/shuffled_g0_dr.json,http://54.89.209.186/DepthDuration/depth_discrimination_MTurk/DepthDiscrim_HTML.html#1,1,2560,1240,2560,1440,7-20-2021,10-37-17,134,,,,,,,1733,510,1001,1003,988,509,,2,3,depth_discrimination_stimuli/000409_2014-06-04_19-23-33_260595134347_rgbf000067-resize_0/000409_2014-06-04_19-23-33_260595134347_rgbf000067-resize-original.jpg,3407,1989973,2127706,36
151736,DepthScenes,duration_discrimination,discrim_jsons/shuffled_g0_dr.json,http://54.89.209.186/DepthDuration/depth_discrimination_MTurk/DepthDiscrim_HTML.html#1,1,2560,1240,2560,1440,7-20-2021,10-37-17,135,,,,,,,1733,510,1001,1003,988,509,,2,3,depth_discrimination_stimuli/000191_2014-05-12_17-07-38_260595134347_rgbf000199-resize_0/000191_2014-05-12_17-07-38_260595134347_rgbf000199-resize-original.jpg,1866,1989973,2127706,36
151736,DepthScenes,duration_discrimination,discrim_jsons/shuffled_g0_dr.json,http://54.89.209.186/DepthDuration/depth_discrimination_MTurk/DepthDiscrim_HTML.html#1,1,2560,1240,2560,1440,7-20-2021,10-37-17,136,,,,,,,1733,510,1001,1003,988,509,,2,3,depth_discrimination_stimuli/000137_2014-05-20_17-04-49_260595134347_rgbf000120-resize_1/000137_2014-05-20_17-04-49_260595134347_rgbf000120-resize-original.jpg,2701,1989973,2127706,36
151736,DepthScenes,duration_discrimination,discrim_jsons/shuffled_g0_dr.json,http://54.89.209.186/DepthDuration/depth_discrimination_MTurk/DepthDiscrim_HTML.html#1,1,2560,1240,2560,1440,7-20-2021,10-37-17,137,,,,,,,1733,510,1001,1003,988,509,,1,2,depth_discrimination_stimuli/002987_2014-06-08_18-48-20_094959634447_rgbf000022-resize_0/002987_2014-06-08_18-48-20_094959634447_rgbf000022-resize-original.jpg,2748,1989973,2127706,36
151736,DepthScenes,duration_discrimination,discrim_jsons/shuffled_g0_dr.json,http://54.89.209.186/DepthDuration/depth_discrimination_MTurk/DepthDiscrim_HTML.html#1,1,2560,1240,2560,1440,7-20-2021,10-37-17,138,,,,,,,1733,510,1001,1003,988,509,,1,2,depth_discrimination_stimuli/002057_2014-06-24_21-00-13_260595134347_rgbf000120-resize_1/002057_2014-06-24_21-00-13_260595134347_rgbf000120-resize-original.jpg,1953,1989973,2127706,36
151736,DepthScenes,duration_discrimination,discrim_jsons/shuffled_g0_dr.json,http://54.89.209.186/DepthDuration/depth_discrimination_MTurk/DepthDiscrim_HTML.html#1,1,2560,1240,2560,1440,7-20-2021,10-37-17,139,,,,,,,1733,510,1001,1003,988,509,,2,4,depth_discrimination_stimuli/002568_2014-06-24_13-59-21_094959634447_rgbf000062-resize_4/002568_2014-06-24_13-59-21_094959634447_rgbf000062-resize-original.jpg,2485,1989973,2127706,36
151736,DepthScenes,duration_discrimination,discrim_jsons/shuffled_g0_dr.json,http://54.89.209.186/DepthDuration/depth_discrimination_MTurk/DepthDiscrim_HTML.html#1,1,2560,1240,2560,1440,7-20-2021,10-37-17,140,,,,,,,1733,510,1001,1003,988,509,,2,3,depth_discrimination_stimuli/002444_2014-06-28_20-32-08_260595134347_rgbf000027-resize_0/002444_2014-06-28_20-32-08_260595134347_rgbf000027-resize-original.jpg,1793,1989973,2127706,36
151736,DepthScenes,duration_discrimination,discrim_jsons/shuffled_g0_dr.json,http://54.89.209.186/DepthDuration/depth_discrimination_MTurk/DepthDiscrim_HTML.html#1,1,2560,1240,2560,1440,7-20-2021,10-37-17,141,,,,,,,1733,510,1001,1003,988,509,,2,3,depth_discrimination_stimuli/002678_2014-06-13_16-15-32_094959634447_rgbf000151-resize_6/002678_2014-06-13_16-15-32_094959634447_rgbf000151-resize-original.jpg,2378,1989973,2127706,36
151736,DepthScenes,duration_discrimination,discrim_jsons/shuffled_g0_dr.json,http://54.89.209.186/DepthDuration/depth_discrimination_MTurk/DepthDiscrim_HTML.html#1,1,2560,1240,2560,1440,7-20-2021,10-37-17,142,,,,,,,1733,510,1001,1003,988,509,,1,2,depth_discrimination_stimuli/001029_2014-06-08_13-17-57_260595134347_rgbf000065-resize_1/001029_2014-06-08_13-17-57_260595134347_rgbf000065-resize-original.jpg,1530,1989973,2127706,36
151736,DepthScenes,duration_discrimination,discrim_jsons/shuffled_g0_dr.json,http://54.89.209.186/DepthDuration/depth_discrimination_MTurk/DepthDiscrim_HTML.html#1,1,2560,1240,2560,1440,7-20-2021,10-37-17,143,,,,,,,1733,510,1001,1003,988,509,,1,2,depth_discrimination_stimuli/000521_2014-06-08_13-34-35_260595134347_rgbf000191-resize_2/000521_2014-06-08_13-34-35_260595134347_rgbf000191-resize-original.jpg,2156,1989973,2127706,36
151736,DepthScenes,duration_discrimination,discrim_jsons/shuffled_g0_dr.json,http://54.89.209.186/DepthDuration/depth_discrimination_MTurk/DepthDiscrim_HTML.html#1,1,2560,1240,2560,1440,7-20-2021,10-37-17,144,,,,,,,1733,510,1001,1003,988,509,,2,4,depth_discrimination_stimuli/002570_2014-06-24_13-59-54_094959634447_rgbf000059-resize_0/002570_2014-06-24_13-59-54_094959634447_rgbf000059-resize-original.jpg,2580,1989973,2127706,36
151736,DepthScenes,duration_discrimination,discrim_jsons/shuffled_g0_dr.json,http://54.89.209.186/DepthDuration/depth_discrimination_MTurk/DepthDiscrim_HTML.html#1,1,2560,1240,2560,1440,7-20-2021,10-37-17,145,,,,,,,1733,510,1001,1003,988,509,,2,3,depth_discrimination_stimuli/000773_2014-06-08_22-24-54_260595134347_rgbf000093-resize_1/000773_2014-06-08_22-24-54_260595134347_rgbf000093-resize-original.jpg,2602,1989973,2127706,36
151736,DepthScenes,duration_discrimination,discrim_jsons/shuffled_g0_dr.json,http://54.89.209.186/DepthDuration/depth_discrimination_MTurk/DepthDiscrim_HTML.html#1,1,2560,1240,2560,1440,7-20-2021,10-37-17,146,,,,,,,1733,510,1001,1003,988,509,,2,3,depth_discrimination_stimuli/002118_2014-06-25_20-32-08_260595134347_rgbf000078-resize_1/002118_2014-06-25_20-32-08_260595134347_rgbf000078-resize-original.jpg,7198,1989973,2127706,36
151736,DepthScenes,duration_discrimination,discrim_jsons/shuffled_g0_dr.json,http://54.89.209.186/DepthDuration/depth_discrimination_MTurk/DepthDiscrim_HTML.html#1,1,2560,1240,2560,1440,7-20-2021,10-37-17,147,,,,,,,1733,510,1001,1003,988,509,,1,3,depth_discrimination_stimuli/000800_2014-06-08_22-42-09_260595134347_rgbf000095-resize_3/000800_2014-06-08_22-42-09_260595134347_rgbf000095-resize-original.jpg,2013,1989973,2127706,36
151736,DepthScenes,duration_discrimination,discrim_jsons/shuffled_g0_dr.json,http://54.89.209.186/DepthDuration/depth_discrimination_MTurk/DepthDiscrim_HTML.html#1,1,2560,1240,2560,1440,7-20-2021,10-37-17,148,,,,,,,1733,510,1001,1003,988,509,,1,2,depth_discrimination_stimuli/002213_2014-06-28_18-37-58_260595134347_rgbf000055-resize_1/002213_2014-06-28_18-37-58_260595134347_rgbf000055-resize-original.jpg,1467,1989973,2127706,36
151736,DepthScenes,duration_discrimination,discrim_jsons/shuffled_g0_dr.json,http://54.89.209.186/DepthDuration/depth_discrimination_MTurk/DepthDiscrim_HTML.html#1,1,2560,1240,2560,1440,7-20-2021,10-37-17,149,,,,,,,1733,510,1001,1003,988,509,,2,3,depth_discrimination_stimuli/001815_2014-06-26_20-52-55_260595134347_rgbf000020-resize_0/001815_2014-06-26_20-52-55_260595134347_rgbf000020-resize-original.jpg,2292,1989973,2127706,36
151736,DepthScenes,duration_discrimination,discrim_jsons/shuffled_g0_dr.json,http://54.89.209.186/DepthDuration/depth_discrimination_MTurk/DepthDiscrim_HTML.html#1,1,2560,1240,2560,1440,7-20-2021,10-37-17,150,,,,,,,1733,510,1001,1003,988,509,,1,2,depth_discrimination_stimuli/000740_2014-06-08_18-46-23_260595134347_rgbf000049-resize_6/000740_2014-06-08_18-46-23_260595134347_rgbf000049-resize-original.jpg,3316,1989973,2127706,36
151736,DepthScenes,duration_discrimination,discrim_jsons/shuffled_g0_dr.json,http://54.89.209.186/DepthDuration/depth_discrimination_MTurk/DepthDiscrim_HTML.html#1,1,2560,1240,2560,1440,7-20-2021,10-37-17,151,,,,,,,1733,510,1001,1003,988,509,,1,2,depth_discrimination_stimuli/001618_2014-06-20_11-37-31_260595134347_rgbf000027-resize_3/001618_2014-06-20_11-37-31_260595134347_rgbf000027-resize-original.jpg,1898,1989973,2127706,36
151736,DepthScenes,duration_discrimination,discrim_jsons/shuffled_g0_dr.json,http://54.89.209.186/DepthDuration/depth_discrimination_MTurk/DepthDiscrim_HTML.html#1,1,2560,1240,2560,1440,7-20-2021,10-37-17,152,,,,,,,1733,510,1001,1003,988,509,,2,3,depth_discrimination_stimuli/002039_2014-06-24_20-22-38_260595134347_rgbf000084-resize_1/002039_2014-06-24_20-22-38_260595134347_rgbf000084-resize-original.jpg,2140,1989973,2127706,36
151736,DepthScenes,duration_discrimination,discrim_jsons/shuffled_g0_dr.json,http://54.89.209.186/DepthDuration/depth_discrimination_MTurk/DepthDiscrim_HTML.html#1,1,2560,1240,2560,1440,7-20-2021,10-37-17,153,,,,,,,1733,510,1001,1003,988,509,,1,2,depth_discrimination_stimuli/001188_2014-06-17_15-54-10_260595134347_rgbf000090-resize_2/001188_2014-06-17_15-54-10_260595134347_rgbf000090-resize-original.jpg,2002,1989973,2127706,36
151736,DepthScenes,duration_discrimination,discrim_jsons/shuffled_g0_dr.json,http://54.89.209.186/DepthDuration/depth_discrimination_MTurk/DepthDiscrim_HTML.html#1,1,2560,1240,2560,1440,7-20-2021,10-37-17,154,,,,,,,1733,510,1001,1003,988,509,,2,4,depth_discrimination_stimuli/001181_2014-06-17_15-50-57_260595134347_rgbf000106-resize_4/001181_2014-06-17_15-50-57_260595134347_rgbf000106-resize-original.jpg,1890,1989973,2127706,36
151736,DepthScenes,duration_discrimination,discrim_jsons/shuffled_g0_dr.json,http://54.89.209.186/DepthDuration/depth_discrimination_MTurk/DepthDiscrim_HTML.html#1,1,2560,1240,2560,1440,7-20-2021,10-37-17,155,,,,,,,1733,510,1001,1003,988,509,,1,3,depth_discrimination_stimuli/001133_2014-06-17_14-49-16_260595134347_rgbf000100-resize_0/001133_2014-06-17_14-49-16_260595134347_rgbf000100-resize-original.jpg,2304,1989973,2127706,36
151736,DepthScenes,duration_discrimination,discrim_jsons/shuffled_g0_dr.json,http://54.89.209.186/DepthDuration/depth_discrimination_MTurk/DepthDiscrim_HTML.html#1,1,2560,1240,2560,1440,7-20-2021,10-37-17,156,,,,,,,1733,510,1001,1003,988,509,,2,3,depth_discrimination_stimuli/003069_2014-06-15_14-57-50_094959634447_rgbf000150-resize_4/003069_2014-06-15_14-57-50_094959634447_rgbf000150-resize-original.jpg,2377,1989973,2127706,36
151736,DepthScenes,duration_discrimination,discrim_jsons/shuffled_g0_dr.json,http://54.89.209.186/DepthDuration/depth_discrimination_MTurk/DepthDiscrim_HTML.html#1,1,2560,1240,2560,1440,7-20-2021,10-37-17,157,,,,,,,1733,510,1001,1003,988,509,,2,4,depth_discrimination_stimuli/002545_2014-06-24_13-38-53_094959634447_rgbf000080-resize_4/002545_2014-06-24_13-38-53_094959634447_rgbf000080-resize-original.jpg,2918,1989973,2127706,36
151736,DepthScenes,duration_discrimination,discrim_jsons/shuffled_g0_dr.json,http://54.89.209.186/DepthDuration/depth_discrimination_MTurk/DepthDiscrim_HTML.html#1,1,2560,1240,2560,1440,7-20-2021,10-37-17,158,,,,,,,1733,510,1001,1003,988,509,,2,3,depth_discrimination_stimuli/002414_2014-06-28_20-24-58_260595134347_rgbf000067-resize_4/002414_2014-06-28_20-24-58_260595134347_rgbf000067-resize-original.jpg,1470,1989973,2127706,36
151736,DepthScenes,duration_discrimination,discrim_jsons/shuffled_g0_dr.json,http://54.89.209.186/DepthDuration/depth_discrimination_MTurk/DepthDiscrim_HTML.html#1,1,2560,1240,2560,1440,7-20-2021,10-37-17,159,,,,,,,1733,510,1001,1003,988,509,,2,3,depth_discrimination_stimuli/000502_2014-06-08_23-02-32_260595134347_rgbf000063-resize_4/000502_2014-06-08_23-02-32_260595134347_rgbf000063-resize-original.jpg,2300,1989973,2127706,36
151736,DepthScenes,duration_discrimination,discrim_jsons/shuffled_g0_dr.json,http://54.89.209.186/DepthDuration/depth_discrimination_MTurk/DepthDiscrim_HTML.html#1,1,2560,1240,2560,1440,7-20-2021,10-37-17,160,,,,,,,1733,510,1001,1003,988,509,,2,3,depth_discrimination_stimuli/002199_2014-06-28_18-33-56_260595134347_rgbf000074-resize_0/002199_2014-06-28_18-33-56_260595134347_rgbf000074-resize-original.jpg,2689,1989973,2127706,36
151736,DepthScenes,duration_discrimination,discrim_jsons/shuffled_g0_dr.json,http://54.89.209.186/DepthDuration/depth_discrimination_MTurk/DepthDiscrim_HTML.html#1,1,2560,1240,2560,1440,7-20-2021,10-37-17,161,,,,,,,1733,510,1001,1003,988,509,,2,4,depth_discrimination_stimuli/002445_2014-06-28_20-32-16_260595134347_rgbf000029-resize_4/002445_2014-06-28_20-32-16_260595134347_rgbf000029-resize-original.jpg,1971,1989973,2127706,36
151736,DepthScenes,duration_discrimination,discrim_jsons/shuffled_g0_dr.json,http://54.89.209.186/DepthDuration/depth_discrimination_MTurk/DepthDiscrim_HTML.html#1,1,2560,1240,2560,1440,7-20-2021,10-37-17,162,,,,,,,1733,510,1001,1003,988,509,,2,3,depth_discrimination_stimuli/003081_2014-06-15_15-19-16_094959634447_rgbf000150-resize_1/003081_2014-06-15_15-19-16_094959634447_rgbf000150-resize-original.jpg,2848,1989973,2127706,36
151736,DepthScenes,duration_discrimination,discrim_jsons/shuffled_g0_dr.json,http://54.89.209.186/DepthDuration/depth_discrimination_MTurk/DepthDiscrim_HTML.html#1,1,2560,1240,2560,1440,7-20-2021,10-37-17,163,,,,,,,1733,510,1001,1003,988,509,,2,3,depth_discrimination_stimuli/002637_2014-06-24_14-51-13_094959634447_rgbf000066-resize_4/002637_2014-06-24_14-51-13_094959634447_rgbf000066-resize-original.jpg,6440,1989973,2127706,36
151736,DepthScenes,duration_discrimination,discrim_jsons/shuffled_g0_dr.json,http://54.89.209.186/DepthDuration/depth_discrimination_MTurk/DepthDiscrim_HTML.html#1,1,2560,1240,2560,1440,7-20-2021,10-37-17,164,,,,,,,1733,510,1001,1003,988,509,,3,5,depth_discrimination_stimuli/002600_2014-06-24_14-27-04_094959634447_rgbf000074-resize_2/002600_2014-06-24_14-27-04_094959634447_rgbf000074-resize-original.jpg,3140,1989973,2127706,36
151736,DepthScenes,duration_discrimination,discrim_jsons/shuffled_g0_dr.json,http://54.89.209.186/DepthDuration/depth_discrimination_MTurk/DepthDiscrim_HTML.html#1,1,2560,1240,2560,1440,7-20-2021,10-37-17,165,,,,,,,1733,510,1001,1003,988,509,,2,3,scene_property_catch_stimuli/sun_bpzzatthlcapxzol.jpg,1950,1989973,2127706,36
151736,DepthScenes,duration_discrimination,discrim_jsons/shuffled_g0_dr.json,http://54.89.209.186/DepthDuration/depth_discrimination_MTurk/DepthDiscrim_HTML.html#1,1,2560,1240,2560,1440,7-20-2021,10-37-17,166,,,,,,,1733,510,1001,1003,988,509,,1,2,depth_discrimination_stimuli/003070_2014-06-15_14-58-27_094959634447_rgbf000150-resize_3/003070_2014-06-15_14-58-27_094959634447_rgbf000150-resize-original.jpg,3036,1989973,2127706,36
151736,DepthScenes,duration_discrimination,discrim_jsons/shuffled_g0_dr.json,http://54.89.209.186/DepthDuration/depth_discrimination_MTurk/DepthDiscrim_HTML.html#1,1,2560,1240,2560,1440,7-20-2021,10-37-17,167,,,,,,,1733,510,1001,1003,988,509,,2,3,depth_discrimination_stimuli/002153_2014-06-25_21-27-18_260595134347_rgbf000038-resize_5/002153_2014-06-25_21-27-18_260595134347_rgbf000038-resize-original.jpg,7066,1989973,2127706,36
151736,DepthScenes,duration_discrimination,discrim_jsons/shuffled_g0_dr.json,http://54.89.209.186/DepthDuration/depth_discrimination_MTurk/DepthDiscrim_HTML.html#1,1,2560,1240,2560,1440,7-20-2021,10-37-17,168,,,,,,,1733,510,1001,1003,988,509,,2,3,depth_discrimination_stimuli/001066_2014-06-08_22-03-20_260595134347_rgbf000066-resize_4/001066_2014-06-08_22-03-20_260595134347_rgbf000066-resize-original.jpg,12212,1989973,2127706,36
151736,DepthScenes,duration_discrimination,discrim_jsons/shuffled_g0_dr.json,http://54.89.209.186/DepthDuration/depth_discrimination_MTurk/DepthDiscrim_HTML.html#1,1,2560,1240,2560,1440,7-20-2021,10-37-17,169,,,,,,,1733,510,1001,1003,988,509,,2,3,depth_discrimination_stimuli/000457_2014-06-08_16-52-43_260595134347_rgbf000199-resize_1/000457_2014-06-08_16-52-43_260595134347_rgbf000199-resize-original.jpg,5494,1989973,2127706,36
151736,DepthScenes,duration_discrimination,discrim_jsons/shuffled_g0_dr.json,http://54.89.209.186/DepthDuration/depth_discrimination_MTurk/DepthDiscrim_HTML.html#1,1,2560,1240,2560,1440,7-20-2021,10-37-17,170,,,,,,,1733,510,1001,1003,988,509,,2,3,depth_discrimination_stimuli/000506_2014-06-08_23-21-00_260595134347_rgbf000070-resize_7/000506_2014-06-08_23-21-00_260595134347_rgbf000070-resize-original.jpg,1792,1989973,2127706,36
151736,DepthScenes,duration_discrimination,discrim_jsons/shuffled_g0_dr.json,http://54.89.209.186/DepthDuration/depth_discrimination_MTurk/DepthDiscrim_HTML.html#1,1,2560,1240,2560,1440,7-20-2021,10-37-17,171,,,,,,,1733,510,1001,1003,988,509,,1,2,depth_discrimination_stimuli/001092_2014-06-15_17-34-58_260595134347_rgbf000171-resize_3/001092_2014-06-15_17-34-58_260595134347_rgbf000171-resize-original.jpg,2706,1989973,2127706,36
151736,DepthScenes,duration_discrimination,discrim_jsons/shuffled_g0_dr.json,http://54.89.209.186/DepthDuration/depth_discrimination_MTurk/DepthDiscrim_HTML.html#1,1,2560,1240,2560,1440,7-20-2021,10-37-17,172,,,,,,,1733,510,1001,1003,988,509,,2,3,depth_discrimination_stimuli/001449_2014-06-19_17-01-27_260595134347_rgbf000116-resize_2/001449_2014-06-19_17-01-27_260595134347_rgbf000116-resize-original.jpg,7406,1989973,2127706,36
151736,DepthScenes,duration_discrimination,discrim_jsons/shuffled_g0_dr.json,http://54.89.209.186/DepthDuration/depth_discrimination_MTurk/DepthDiscrim_HTML.html#1,1,2560,1240,2560,1440,7-20-2021,10-37-17,173,,,,,,,1733,510,1001,1003,988,509,,2,3,depth_discrimination_stimuli/002464_2014-06-28_20-36-57_260595134347_rgbf000029-resize_0/002464_2014-06-28_20-36-57_260595134347_rgbf000029-resize-original.jpg,27181,1989973,2127706,36
151736,DepthScenes,duration_discrimination,discrim_jsons/shuffled_g0_dr.json,http://54.89.209.186/DepthDuration/depth_discrimination_MTurk/DepthDiscrim_HTML.html#1,1,2560,1240,2560,1440,7-20-2021,10-37-17,174,,,,,,,1733,510,1001,1003,988,509,,2,3,depth_discrimination_stimuli/001532_2014-06-20_16-50-41_260595134347_rgbf000081-resize_4/001532_2014-06-20_16-50-41_260595134347_rgbf000081-resize-original.jpg,7946,1989973,2127706,36
151736,DepthScenes,duration_discrimination,discrim_jsons/shuffled_g0_dr.json,http://54.89.209.186/DepthDuration/depth_discrimination_MTurk/DepthDiscrim_HTML.html#1,1,2560,1240,2560,1440,7-20-2021,10-37-17,175,,,,,,,1733,510,1001,1003,988,509,,2,4,depth_discrimination_stimuli/003492_2014-05-21_15-50-55_094959634447_rgbf000828-resize_1/003492_2014-05-21_15-50-55_094959634447_rgbf000828-resize-original.jpg,3067,1989973,2127706,36
151736,DepthScenes,duration_discrimination,discrim_jsons/shuffled_g0_dr.json,http://54.89.209.186/DepthDuration/depth_discrimination_MTurk/DepthDiscrim_HTML.html#1,1,2560,1240,2560,1440,7-20-2021,10-37-17,176,,,,,,,1733,510,1001,1003,988,509,,2,3,depth_discrimination_stimuli/001167_2014-06-17_15-38-07_260595134347_rgbf000108-resize_0/001167_2014-06-17_15-38-07_260595134347_rgbf000108-resize-original.jpg,2690,1989973,2127706,36
151736,DepthScenes,duration_discrimination,discrim_jsons/shuffled_g0_dr.json,http://54.89.209.186/DepthDuration/depth_discrimination_MTurk/DepthDiscrim_HTML.html#1,1,2560,1240,2560,1440,7-20-2021,10-37-17,177,,,,,,,1733,510,1001,1003,988,509,,2,4,depth_discrimination_stimuli/001584_2014-06-20_11-07-43_260595134347_rgbf000002-resize_1/001584_2014-06-20_11-07-43_260595134347_rgbf000002-resize-original.jpg,26016,1989973,2127706,36
151736,DepthScenes,duration_discrimination,discrim_jsons/shuffled_g0_dr.json,http://54.89.209.186/DepthDuration/depth_discrimination_MTurk/DepthDiscrim_HTML.html#1,1,2560,1240,2560,1440,7-20-2021,10-37-17,178,,,,,,,1733,510,1001,1003,988,509,,2,3,depth_discrimination_stimuli/000736_2014-06-08_18-24-15_260595134347_rgbf000206-resize_3/000736_2014-06-08_18-24-15_260595134347_rgbf000206-resize-original.jpg,2242,1989973,2127706,36
151736,DepthScenes,duration_discrimination,discrim_jsons/shuffled_g0_dr.json,http://54.89.209.186/DepthDuration/depth_discrimination_MTurk/DepthDiscrim_HTML.html#1,1,2560,1240,2560,1440,7-20-2021,10-37-17,179,,,,,,,1733,510,1001,1003,988,509,,2,3,depth_discrimination_stimuli/001164_2014-06-17_15-35-46_260595134347_rgbf000085-resize_3/001164_2014-06-17_15-35-46_260595134347_rgbf000085-resize-original.jpg,6650,1989973,2127706,36
151736,DepthScenes,duration_discrimination,discrim_jsons/shuffled_g0_dr.json,http://54.89.209.186/DepthDuration/depth_discrimination_MTurk/DepthDiscrim_HTML.html#1,1,2560,1240,2560,1440,7-20-2021,10-37-17,180,,,,,,,1733,510,1001,1003,988,509,,1,2,depth_discrimination_stimuli/001055_2014-06-08_18-45-35_260595134347_rgbf000111-resize_4/001055_2014-06-08_18-45-35_260595134347_rgbf000111-resize-original.jpg,7262,1989973,2127706,36
151736,DepthScenes,duration_discrimination,discrim_jsons/shuffled_g0_dr.json,http://54.89.209.186/DepthDuration/depth_discrimination_MTurk/DepthDiscrim_HTML.html#1,1,2560,1240,2560,1440,7-20-2021,10-37-17,181,,,,,,,1733,510,1001,1003,988,509,,1,3,depth_discrimination_stimuli/003587_2014-05-23_16-48-02_094959634447_rgbf002384-resize_2/003587_2014-05-23_16-48-02_094959634447_rgbf002384-resize-original.jpg,3612,1989973,2127706,36
151736,DepthScenes,duration_discrimination,discrim_jsons/shuffled_g0_dr.json,http://54.89.209.186/DepthDuration/depth_discrimination_MTurk/DepthDiscrim_HTML.html#1,1,2560,1240,2560,1440,7-20-2021,10-37-17,182,,,,,,,1733,510,1001,1003,988,509,,2,3,depth_discrimination_stimuli/002905_2014-06-03_18-04-43_094959634447_rgbf000151-resize_2/002905_2014-06-03_18-04-43_094959634447_rgbf000151-resize-original.jpg,6922,1989973,2127706,36
151736,DepthScenes,duration_discrimination,discrim_jsons/shuffled_g0_dr.json,http://54.89.209.186/DepthDuration/depth_discrimination_MTurk/DepthDiscrim_HTML.html#1,1,2560,1240,2560,1440,7-20-2021,10-37-17,183,,,,,,,1733,510,1001,1003,988,509,,1,3,depth_discrimination_stimuli/002340_2014-06-28_20-05-46_260595134347_rgbf000113-resize_0/002340_2014-06-28_20-05-46_260595134347_rgbf000113-resize-original.jpg,7566,1989973,2127706,36
151736,DepthScenes,duration_discrimination,discrim_jsons/shuffled_g0_dr.json,http://54.89.209.186/DepthDuration/depth_discrimination_MTurk/DepthDiscrim_HTML.html#1,1,2560,1240,2560,1440,7-20-2021,10-37-17,184,,,,,,,1733,510,1001,1003,988,509,,2,3,depth_discrimination_stimuli/002639_2014-06-24_14-51-37_094959634447_rgbf000074-resize_4/002639_2014-06-24_14-51-37_094959634447_rgbf000074-resize-original.jpg,1882,1989973,2127706,36
151736,DepthScenes,duration_discrimination,discrim_jsons/shuffled_g0_dr.json,http://54.89.209.186/DepthDuration/depth_discrimination_MTurk/DepthDiscrim_HTML.html#1,1,2560,1240,2560,1440,7-20-2021,10-37-17,185,,,,,,,1733,510,1001,1003,988,509,,1,2,depth_discrimination_stimuli/002305_2014-06-28_19-56-50_260595134347_rgbf000102-resize_7/002305_2014-06-28_19-56-50_260595134347_rgbf000102-resize-original.jpg,2266,1989973,2127706,36
151736,DepthScenes,duration_discrimination,discrim_jsons/shuffled_g0_dr.json,http://54.89.209.186/DepthDuration/depth_discrimination_MTurk/DepthDiscrim_HTML.html#1,1,2560,1240,2560,1440,7-20-2021,10-37-17,186,,,,,,,1733,510,1001,1003,988,509,,1,2,depth_discrimination_stimuli/000866_2014-06-09_20-45-42_260595134347_rgbf000139-resize_1/000866_2014-06-09_20-45-42_260595134347_rgbf000139-resize-original.jpg,3382,1989973,2127706,36
151736,DepthScenes,duration_discrimination,discrim_jsons/shuffled_g0_dr.json,http://54.89.209.186/DepthDuration/depth_discrimination_MTurk/DepthDiscrim_HTML.html#1,1,2560,1240,2560,1440,7-20-2021,10-37-17,187,,,,,,,1733,510,1001,1003,988,509,,2,3,depth_discrimination_stimuli/002344_2014-06-28_20-06-29_260595134347_rgbf000030-resize_1/002344_2014-06-28_20-06-29_260595134347_rgbf000030-resize-original.jpg,4254,1989973,2127706,36
151736,DepthScenes,duration_discrimination,discrim_jsons/shuffled_g0_dr.json,http://54.89.209.186/DepthDuration/depth_discrimination_MTurk/DepthDiscrim_HTML.html#1,1,2560,1240,2560,1440,7-20-2021,10-37-17,188,,,,,,,1733,510,1001,1003,988,509,,1,2,depth_discrimination_stimuli/002988_2014-06-15_12-24-20_094959634447_rgbf000150-resize_1/002988_2014-06-15_12-24-20_094959634447_rgbf000150-resize-original.jpg,1898,1989973,2127706,36
151736,DepthScenes,duration_discrimination,discrim_jsons/shuffled_g0_dr.json,http://54.89.209.186/DepthDuration/depth_discrimination_MTurk/DepthDiscrim_HTML.html#1,1,2560,1240,2560,1440,7-20-2021,10-37-17,189,,,,,,,1733,510,1001,1003,988,509,,2,3,depth_discrimination_stimuli/002660_2014-06-13_15-44-18_094959634447_rgbf001878-resize_2/002660_2014-06-13_15-44-18_094959634447_rgbf001878-resize-original.jpg,9034,1989973,2127706,36
151736,DepthScenes,duration_discrimination,discrim_jsons/shuffled_g0_dr.json,http://54.89.209.186/DepthDuration/depth_discrimination_MTurk/DepthDiscrim_HTML.html#1,1,2560,1240,2560,1440,7-20-2021,10-37-17,190,,,,,,,1733,510,1001,1003,988,509,,1,3,scene_property_catch_stimuli/000675_2014-06-08_22-59-18_260595134347_rgbf000096-resize.jpg,4777,1989973,2127706,36
151736,DepthScenes,duration_discrimination,discrim_jsons/shuffled_g0_dr.json,http://54.89.209.186/DepthDuration/depth_discrimination_MTurk/DepthDiscrim_HTML.html#1,1,2560,1240,2560,1440,7-20-2021,10-37-17,191,,,,,,,1733,510,1001,1003,988,509,,2,4,depth_discrimination_stimuli/000556_2014-06-09_22-42-56_260595134347_rgbf000214-resize_1/000556_2014-06-09_22-42-56_260595134347_rgbf000214-resize-original.jpg,3051,1989973,2127706,36
151736,DepthScenes,duration_discrimination,discrim_jsons/shuffled_g0_dr.json,http://54.89.209.186/DepthDuration/depth_discrimination_MTurk/DepthDiscrim_HTML.html#1,1,2560,1240,2560,1440,7-20-2021,10-37-17,192,,,,,,,1733,510,1001,1003,988,509,,1,3,depth_discrimination_stimuli/001289_2014-06-16_16-25-52_260595134347_rgbf000067-resize_1/001289_2014-06-16_16-25-52_260595134347_rgbf000067-resize-original.jpg,2066,1989973,2127706,36
151736,DepthScenes,duration_discrimination,discrim_jsons/shuffled_g0_dr.json,http://54.89.209.186/DepthDuration/depth_discrimination_MTurk/DepthDiscrim_HTML.html#1,1,2560,1240,2560,1440,7-20-2021,10-37-17,193,,,,,,,1733,510,1001,1003,988,509,,1,2,depth_discrimination_stimuli/002700_2014-06-22_11-27-02_094959634447_rgbf000124-resize_3/002700_2014-06-22_11-27-02_094959634447_rgbf000124-resize-original.jpg,2804,1989973,2127706,36
151736,DepthScenes,duration_discrimination,discrim_jsons/shuffled_g0_dr.json,http://54.89.209.186/DepthDuration/depth_discrimination_MTurk/DepthDiscrim_HTML.html#1,1,2560,1240,2560,1440,7-20-2021,10-37-17,194,,,,,,,1733,510,1001,1003,988,509,,2,4,depth_discrimination_stimuli/003490_2014-05-21_15-50-11_094959634447_rgbf000101-resize_3/003490_2014-05-21_15-50-11_094959634447_rgbf000101-resize-original.jpg,3084,1989973,2127706,36
151736,DepthScenes,duration_discrimination,discrim_jsons/shuffled_g0_dr.json,http://54.89.209.186/DepthDuration/depth_discrimination_MTurk/DepthDiscrim_HTML.html#1,1,2560,1240,2560,1440,7-20-2021,10-37-17,195,,,,,,,1733,510,1001,1003,988,509,,2,5,scene_property_catch_stimuli/sun_aatxlublfjchvvzu.jpg,5144,1989973,2127706,36
151736,DepthScenes,duration_discrimination,discrim_jsons/shuffled_g0_dr.json,http://54.89.209.186/DepthDuration/depth_discrimination_MTurk/DepthDiscrim_HTML.html#1,1,2560,1240,2560,1440,7-20-2021,10-37-17,196,,,,,,,1733,510,1001,1003,988,509,,2,3,depth_discrimination_stimuli/000542_2014-06-08_18-27-08_260595134347_rgbf000118-resize_1/000542_2014-06-08_18-27-08_260595134347_rgbf000118-resize-original.jpg,2314,1989973,2127706,36
151736,DepthScenes,duration_discrimination,discrim_jsons/shuffled_g0_dr.json,http://54.89.209.186/DepthDuration/depth_discrimination_MTurk/DepthDiscrim_HTML.html#1,1,2560,1240,2560,1440,7-20-2021,10-37-17,197,,,,,,,1733,510,1001,1003,988,509,,1,2,depth_discrimination_stimuli/002763_2014-06-22_19-13-10_094959634447_rgbf000075-resize_4/002763_2014-06-22_19-13-10_094959634447_rgbf000075-resize-original.jpg,2316,1989973,2127706,36
151736,DepthScenes,duration_discrimination,discrim_jsons/shuffled_g0_dr.json,http://54.89.209.186/DepthDuration/depth_discrimination_MTurk/DepthDiscrim_HTML.html#1,1,2560,1240,2560,1440,7-20-2021,10-37-17,198,,,,,,,1733,510,1001,1003,988,509,,2,3,depth_discrimination_stimuli/002375_2014-06-28_20-13-44_260595134347_rgbf000032-resize_1/002375_2014-06-28_20-13-44_260595134347_rgbf000032-resize-original.jpg,3132,1989973,2127706,36
151736,DepthScenes,duration_discrimination,discrim_jsons/shuffled_g0_dr.json,http://54.89.209.186/DepthDuration/depth_discrimination_MTurk/DepthDiscrim_HTML.html#1,1,2560,1240,2560,1440,7-20-2021,10-37-17,199,,,,,,,1733,510,1001,1003,988,509,,2,4,depth_discrimination_stimuli/003546_2014-05-22_15-48-53_094959634447_rgbf004816-resize_3/003546_2014-05-22_15-48-53_094959634447_rgbf004816-resize-original.jpg,2378,1989973,2127706,36
151736,DepthScenes,duration_discrimination,discrim_jsons/shuffled_g0_dr.json,http://54.89.209.186/DepthDuration/depth_discrimination_MTurk/DepthDiscrim_HTML.html#1,1,2560,1240,2560,1440,7-20-2021,10-37-17,200,,,,,,,1733,510,1001,1003,988,509,,2,4,depth_discrimination_stimuli/000735_2014-06-08_18-23-50_260595134347_rgbf000163-resize_2/000735_2014-06-08_18-23-50_260595134347_rgbf000163-resize-original.jpg,5794,1989973,2127706,36
151736,DepthScenes,duration_discrimination,discrim_jsons/shuffled_g0_dr.json,http://54.89.209.186/DepthDuration/depth_discrimination_MTurk/DepthDiscrim_HTML.html#1,1,2560,1240,2560,1440,7-20-2021,10-37-17,201,,,,,,,1733,510,1001,1003,988,509,,2,3,depth_discrimination_stimuli/001810_2014-06-26_20-51-35_260595134347_rgbf000040-resize_3/001810_2014-06-26_20-51-35_260595134347_rgbf000040-resize-original.jpg,1090,1989973,2127706,36
151736,DepthScenes,duration_discrimination,discrim_jsons/shuffled_g0_dr.json,http://54.89.209.186/DepthDuration/depth_discrimination_MTurk/DepthDiscrim_HTML.html#1,1,2560,1240,2560,1440,7-20-2021,10-37-17,202,,,,,,,1733,510,1001,1003,988,509,,1,3,depth_discrimination_stimuli/000830_2014-06-04_19-49-31_260595134347_rgbf000096-resize_2/000830_2014-06-04_19-49-31_260595134347_rgbf000096-resize-original.jpg,1298,1989973,2127706,36
151736,DepthScenes,duration_discrimination,discrim_jsons/shuffled_g0_dr.json,http://54.89.209.186/DepthDuration/depth_discrimination_MTurk/DepthDiscrim_HTML.html#1,1,2560,1240,2560,1440,7-20-2021,10-37-17,203,,,,,,,1733,510,1001,1003,988,509,,2,3,depth_discrimination_stimuli/002136_2014-06-25_21-18-03_260595134347_rgbf000109-resize_3/002136_2014-06-25_21-18-03_260595134347_rgbf000109-resize-original.jpg,1410,1989973,2127706,36
151736,DepthScenes,duration_discrimination,discrim_jsons/shuffled_g0_dr.json,http://54.89.209.186/DepthDuration/depth_discrimination_MTurk/DepthDiscrim_HTML.html#1,1,2560,1240,2560,1440,7-20-2021,10-37-17,204,,,,,,,1733,510,1001,1003,988,509,,2,3,depth_discrimination_stimuli/002964_2014-06-08_17-46-11_094959634447_rgbf000091-resize_4/002964_2014-06-08_17-46-11_094959634447_rgbf000091-resize-original.jpg,2234,1989973,2127706,36
151736,DepthScenes,duration_discrimination,discrim_jsons/shuffled_g0_dr.json,http://54.89.209.186/DepthDuration/depth_discrimination_MTurk/DepthDiscrim_HTML.html#1,1,2560,1240,2560,1440,7-20-2021,10-37-17,205,,,,,,,1733,510,1001,1003,988,509,,2,3,depth_discrimination_stimuli/002272_2014-06-28_18-53-56_260595134347_rgbf000067-resize_2/002272_2014-06-28_18-53-56_260595134347_rgbf000067-resize-original.jpg,1746,1989973,2127706,36
151736,DepthScenes,duration_discrimination,discrim_jsons/shuffled_g0_dr.json,http://54.89.209.186/DepthDuration/depth_discrimination_MTurk/DepthDiscrim_HTML.html#1,1,2560,1240,2560,1440,7-20-2021,10-37-17,206,,,,,,,1733,510,1001,1003,988,509,,2,4,depth_discrimination_stimuli/002630_2014-06-24_14-47-50_094959634447_rgbf000055-resize_1/002630_2014-06-24_14-47-50_094959634447_rgbf000055-resize-original.jpg,2468,1989973,2127706,36
151736,DepthScenes,duration_discrimination,discrim_jsons/shuffled_g0_dr.json,http://54.89.209.186/DepthDuration/depth_discrimination_MTurk/DepthDiscrim_HTML.html#1,1,2560,1240,2560,1440,7-20-2021,10-37-17,207,,,,,,,1733,510,1001,1003,988,509,,1,3,depth_discrimination_stimuli/000720_2014-06-08_18-37-27_260595134347_rgbf000203-resize_4/000720_2014-06-08_18-37-27_260595134347_rgbf000203-resize-original.jpg,1986,1989973,2127706,36
151736,DepthScenes,duration_discrimination,discrim_jsons/shuffled_g0_dr.json,http://54.89.209.186/DepthDuration/depth_discrimination_MTurk/DepthDiscrim_HTML.html#1,1,2560,1240,2560,1440,7-20-2021,10-37-17,208,,,,,,,1733,510,1001,1003,988,509,,1,2,depth_discrimination_stimuli/002460_2014-06-28_20-35-43_260595134347_rgbf000028-resize_4/002460_2014-06-28_20-35-43_260595134347_rgbf000028-resize-original.jpg,2324,1989973,2127706,36
151736,DepthScenes,duration_discrimination,discrim_jsons/shuffled_g0_dr.json,http://54.89.209.186/DepthDuration/depth_discrimination_MTurk/DepthDiscrim_HTML.html#1,1,2560,1240,2560,1440,7-20-2021,10-37-17,209,,,,,,,1733,510,1001,1003,988,509,,2,1,depth_discrimination_stimuli/001447_2014-06-19_17-00-32_260595134347_rgbf000082-resize_5/001447_2014-06-19_17-00-32_260595134347_rgbf000082-resize-original.jpg,2916,1989973,2127706,36
151736,DepthScenes,duration_discrimination,discrim_jsons/shuffled_g0_dr.json,http://54.89.209.186/DepthDuration/depth_discrimination_MTurk/DepthDiscrim_HTML.html#1,1,2560,1240,2560,1440,7-20-2021,10-37-17,210,,,,,,,1733,510,1001,1003,988,509,,1,3,depth_discrimination_stimuli/000483_2014-06-09_20-41-45_260595134347_rgbf000116-resize_4/000483_2014-06-09_20-41-45_260595134347_rgbf000116-resize-original.jpg,2338,1989973,2127706,36
151736,DepthScenes,duration_discrimination,discrim_jsons/shuffled_g0_dr.json,http://54.89.209.186/DepthDuration/depth_discrimination_MTurk/DepthDiscrim_HTML.html#1,1,2560,1240,2560,1440,7-20-2021,10-37-17,211,,,,,,,1733,510,1001,1003,988,509,,2,4,depth_discrimination_stimuli/001052_2014-06-08_18-24-54_260595134347_rgbf000130-resize_1/001052_2014-06-08_18-24-54_260595134347_rgbf000130-resize-original.jpg,3148,1989973,2127706,36
151736,DepthScenes,duration_discrimination,discrim_jsons/shuffled_g0_dr.json,http://54.89.209.186/DepthDuration/depth_discrimination_MTurk/DepthDiscrim_HTML.html#1,1,2560,1240,2560,1440,7-20-2021,10-37-17,212,,,,,,,1733,510,1001,1003,988,509,,1,3,depth_discrimination_stimuli/003083_2014-06-15_15-21-03_094959634447_rgbf000063-resize_1/003083_2014-06-15_15-21-03_094959634447_rgbf000063-resize-original.jpg,1538,1989973,2127706,36
151736,DepthScenes,duration_discrimination,discrim_jsons/shuffled_g0_dr.json,http://54.89.209.186/DepthDuration/depth_discrimination_MTurk/DepthDiscrim_HTML.html#1,1,2560,1240,2560,1440,7-20-2021,10-37-17,213,,,,,,,1733,510,1001,1003,988,509,,1,2,depth_discrimination_stimuli/003621_2014-05-23_18-06-08_094959634447_rgbf000101-resize_1/003621_2014-05-23_18-06-08_094959634447_rgbf000101-resize-original.jpg,1892,1989973,2127706,36
151736,DepthScenes,duration_discrimination,discrim_jsons/shuffled_g0_dr.json,http://54.89.209.186/DepthDuration/depth_discrimination_MTurk/DepthDiscrim_HTML.html#1,1,2560,1240,2560,1440,7-20-2021,10-37-17,214,,,,,,,1733,510,1001,1003,988,509,,2,3,depth_discrimination_stimuli/002365_2014-06-28_20-11-21_260595134347_rgbf000102-resize_1/002365_2014-06-28_20-11-21_260595134347_rgbf000102-resize-original.jpg,1674,1989973,2127706,36
151736,DepthScenes,duration_discrimination,discrim_jsons/shuffled_g0_dr.json,http://54.89.209.186/DepthDuration/depth_discrimination_MTurk/DepthDiscrim_HTML.html#1,1,2560,1240,2560,1440,7-20-2021,10-37-17,215,,,,,,,1733,510,1001,1003,988,509,,2,4,depth_discrimination_stimuli/000469_2014-06-09_19-42-10_260595134347_rgbf000081-resize_1/000469_2014-06-09_19-42-10_260595134347_rgbf000081-resize-original.jpg,3291,1989973,2127706,36
151736,DepthScenes,duration_discrimination,discrim_jsons/shuffled_g0_dr.json,http://54.89.209.186/DepthDuration/depth_discrimination_MTurk/DepthDiscrim_HTML.html#1,1,2560,1240,2560,1440,7-20-2021,10-37-17,216,,,,,,,1733,510,1001,1003,988,509,,1,4,depth_discrimination_stimuli/000691_2014-06-08_13-08-50_260595134347_rgbf000132-resize_3/000691_2014-06-08_13-08-50_260595134347_rgbf000132-resize-original.jpg,3075,1989973,2127706,36
