subjID,experimentName,versionName,sequenceName,url,selected_row,windowWidth,windowHeight,screenWidth,screenHeight,startDate,startTime,trial,stimulus_0,stimulus_1,duration,actual_depth_0,actual_depth_1,discrim_choice,trial_RT,log_fixation,log_sceneDuration1,log_mask1,log_sceneDuration2,log_mask2,unitSelection,meanDepth_rating,navigability_rating,rated_stimulus,rating_RT,experimentTime,totalTime,age
458757,DepthScenes,duration_discrimination,discrim_jsons/shuffled_g0_rotated_dr.json,http://54.89.209.186/DepthDuration/depth_discrimination_MTurk/DepthDiscrim_HTML.html#2,2,1366,657,1366,768,7-20-2021,12-9-48,1,depth_discrimination_stimuli/002444_2014-06-28_20-32-08_260595134347_rgbf000027-resize_0/002444_2014-06-28_20-32-08_260595134347_rgbf000027-resize_0-target.png,depth_discrimination_stimuli/002103_2014-06-25_20-00-40_260595134347_rgbf000049-resize_0/002103_2014-06-25_20-00-40_260595134347_rgbf000049-resize_0-target.png,1000,4.389,4.105,1,4729,503,1008,1000,993,509,,,,,,530603,749716,40
458757,DepthScenes,duration_discrimination,discrim_jsons/shuffled_g0_rotated_dr.json,http://54.89.209.186/DepthDuration/depth_discrimination_MTurk/DepthDiscrim_HTML.html#2,2,1366,657,1366,768,7-20-2021,12-9-48,2,depth_discrimination_stimuli/000943_2014-06-09_19-31-07_260595134347_rgbf000128-resize_1/000943_2014-06-09_19-31-07_260595134347_rgbf000128-resize_1-target.png,depth_discrimination_stimuli/001532_2014-06-20_16-50-41_260595134347_rgbf000081-resize_4/001532_2014-06-20_16-50-41_260595134347_rgbf000081-resize_4-target.png,250,1.9765,1.5758333333333,1,1946,510,246,1008,246,500,,,,,,530603,749716,40
458757,DepthScenes,duration_discrimination,discrim_jsons/shuffled_g0_rotated_dr.json,http://54.89.209.186/DepthDuration/depth_discrimination_MTurk/DepthDiscrim_HTML.html#2,2,1366,657,1366,768,7-20-2021,12-9-48,3,depth_discrimination_stimuli/000742_2014-06-08_18-48-09_260595134347_rgbf000164-resize_4/000742_2014-06-08_18-48-09_260595134347_rgbf000164-resize_4-target.png,depth_discrimination_stimuli/003083_2014-06-15_15-21-03_094959634447_rgbf000063-resize_1/003083_2014-06-15_15-21-03_094959634447_rgbf000063-resize_1-target.png,1000,4.632,4.1405,0,5969,511,1015,1020,962,502,,,,,,530603,749716,40
458757,DepthScenes,duration_discrimination,discrim_jsons/shuffled_g0_rotated_dr.json,http://54.89.209.186/DepthDuration/depth_discrimination_MTurk/DepthDiscrim_HTML.html#2,2,1366,657,1366,768,7-20-2021,12-9-48,4,depth_discrimination_stimuli/001011_2014-06-08_23-18-54_260595134347_rgbf000044-resize_4/001011_2014-06-08_23-18-54_260595134347_rgbf000044-resize_4-target.png,depth_discrimination_stimuli/002043_2014-06-24_20-29-38_260595134347_rgbf000039-resize_4/002043_2014-06-24_20-29-38_260595134347_rgbf000039-resize_4-target.png,1000,2.473,2.8435,0,3707,608,896,1001,1000,502,,,,,,530603,749716,40
458757,DepthScenes,duration_discrimination,discrim_jsons/shuffled_g0_rotated_dr.json,http://54.89.209.186/DepthDuration/depth_discrimination_MTurk/DepthDiscrim_HTML.html#2,2,1366,657,1366,768,7-20-2021,12-9-48,5,depth_discrimination_stimuli/000953_2014-06-08_11-42-19_260595134347_rgbf000083-resize_0/000953_2014-06-08_11-42-19_260595134347_rgbf000083-resize_0-target.png,depth_discrimination_stimuli/000787_2014-06-08_22-33-53_260595134347_rgbf000175-resize_1/000787_2014-06-08_22-33-53_260595134347_rgbf000175-resize_1-target.png,250,1.369,4.784,1,2620,511,241,1002,250,498,,,,,,530603,749716,40
458757,DepthScenes,duration_discrimination,discrim_jsons/shuffled_g0_rotated_dr.json,http://54.89.209.186/DepthDuration/depth_discrimination_MTurk/DepthDiscrim_HTML.html#2,2,1366,657,1366,768,7-20-2021,12-9-48,6,depth_discrimination_stimuli/000109_2014-05-14_23-41-52_260595134347_rgbf000035-resize_9/000109_2014-05-14_23-41-52_260595134347_rgbf000035-resize_9-target.png,depth_discrimination_stimuli/001618_2014-06-20_11-37-31_260595134347_rgbf000027-resize_3/001618_2014-06-20_11-37-31_260595134347_rgbf000027-resize_3-target.png,1000,1.3545,1.8725,1,2979,581,926,1008,989,569,,,,,,530603,749716,40
458757,DepthScenes,duration_discrimination,discrim_jsons/shuffled_g0_rotated_dr.json,http://54.89.209.186/DepthDuration/depth_discrimination_MTurk/DepthDiscrim_HTML.html#2,2,1366,657,1366,768,7-20-2021,12-9-48,7,depth_discrimination_stimuli/000502_2014-06-08_23-02-32_260595134347_rgbf000063-resize_4/000502_2014-06-08_23-02-32_260595134347_rgbf000063-resize_4-target.png,depth_discrimination_stimuli/001092_2014-06-15_17-34-58_260595134347_rgbf000171-resize_3/001092_2014-06-15_17-34-58_260595134347_rgbf000171-resize_3-target.png,250,2.431,2.6935,1,3180,502,260,1054,189,501,,,,,,530603,749716,40
458757,DepthScenes,duration_discrimination,discrim_jsons/shuffled_g0_rotated_dr.json,http://54.89.209.186/DepthDuration/depth_discrimination_MTurk/DepthDiscrim_HTML.html#2,2,1366,657,1366,768,7-20-2021,12-9-48,8,depth_discrimination_stimuli/000454_2014-06-08_16-37-28_260595134347_rgbf000048-resize_2/000454_2014-06-08_16-37-28_260595134347_rgbf000048-resize_2-target.png,depth_discrimination_stimuli/000375_2014-06-08_11-17-29_260595134347_rgbf000133-resize_2/000375_2014-06-08_11-17-29_260595134347_rgbf000133-resize_2-target.png,1000,1.213,4.718,0,3168,507,1000,996,999,501,,,,,,530603,749716,40
458757,DepthScenes,duration_discrimination,discrim_jsons/shuffled_g0_rotated_dr.json,http://54.89.209.186/DepthDuration/depth_discrimination_MTurk/DepthDiscrim_HTML.html#2,2,1366,657,1366,768,7-20-2021,12-9-48,9,depth_discrimination_stimuli/000869_2014-06-09_20-50-18_260595134347_rgbf000060-resize_3/000869_2014-06-09_20-50-18_260595134347_rgbf000060-resize_3-target.png,depth_discrimination_stimuli/000800_2014-06-08_22-42-09_260595134347_rgbf000095-resize_3/000800_2014-06-08_22-42-09_260595134347_rgbf000095-resize_3-target.png,250,2.266,2.8,0,2048,512,252,991,261,486,,,,,,530603,749716,40
458757,DepthScenes,duration_discrimination,discrim_jsons/shuffled_g0_rotated_dr.json,http://54.89.209.186/DepthDuration/depth_discrimination_MTurk/DepthDiscrim_HTML.html#2,2,1366,657,1366,768,7-20-2021,12-9-48,10,depth_discrimination_stimuli/001056_2014-06-08_18-46-44_260595134347_rgbf000068-resize_0/001056_2014-06-08_18-46-44_260595134347_rgbf000068-resize_0-target.png,depth_discrimination_stimuli/000749_2014-06-08_21-55-06_260595134347_rgbf000070-resize_2/000749_2014-06-08_21-55-06_260595134347_rgbf000070-resize_2-target.png,250,2.6625,2.331,1,1674,511,249,999,255,502,,,,,,530603,749716,40
458757,DepthScenes,duration_discrimination,discrim_jsons/shuffled_g0_rotated_dr.json,http://54.89.209.186/DepthDuration/depth_discrimination_MTurk/DepthDiscrim_HTML.html#2,2,1366,657,1366,768,7-20-2021,12-9-48,11,depth_discrimination_stimuli/001055_2014-06-08_18-45-35_260595134347_rgbf000111-resize_4/001055_2014-06-08_18-45-35_260595134347_rgbf000111-resize_4-target.png,depth_discrimination_stimuli/000929_2014-06-09_16-33-19_260595134347_rgbf000139-resize_0/000929_2014-06-09_16-33-19_260595134347_rgbf000139-resize_0-target.png,250,2.429,2.868,1,1524,515,243,1006,246,502,,,,,,530603,749716,40
458757,DepthScenes,duration_discrimination,discrim_jsons/shuffled_g0_rotated_dr.json,http://54.89.209.186/DepthDuration/depth_discrimination_MTurk/DepthDiscrim_HTML.html#2,2,1366,657,1366,768,7-20-2021,12-9-48,12,depth_discrimination_stimuli/000470_2014-06-09_19-42-40_260595134347_rgbf000094-resize_1/000470_2014-06-09_19-42-40_260595134347_rgbf000094-resize_1-target.png,depth_discrimination_stimuli/002953_2014-06-08_17-32-18_094959634447_rgbf000059-resize_5/002953_2014-06-08_17-32-18_094959634447_rgbf000059-resize_5-target.png,1000,1.831,1.551,1,3344,511,991,1011,997,505,,,,,,530603,749716,40
458757,DepthScenes,duration_discrimination,discrim_jsons/shuffled_g0_rotated_dr.json,http://54.89.209.186/DepthDuration/depth_discrimination_MTurk/DepthDiscrim_HTML.html#2,2,1366,657,1366,768,7-20-2021,12-9-48,13,depth_discrimination_stimuli/002905_2014-06-03_18-04-43_094959634447_rgbf000151-resize_2/002905_2014-06-03_18-04-43_094959634447_rgbf000151-resize_2-target.png,depth_discrimination_stimuli/002340_2014-06-28_20-05-46_260595134347_rgbf000113-resize_0/002340_2014-06-28_20-05-46_260595134347_rgbf000113-resize_0-target.png,250,2.0295,2.4735,1,2424,510,256,993,242,507,,,,,,530603,749716,40
458757,DepthScenes,duration_discrimination,discrim_jsons/shuffled_g0_rotated_dr.json,http://54.89.209.186/DepthDuration/depth_discrimination_MTurk/DepthDiscrim_HTML.html#2,2,1366,657,1366,768,7-20-2021,12-9-48,14,depth_discrimination_stimuli/002039_2014-06-24_20-22-38_260595134347_rgbf000084-resize_1/002039_2014-06-24_20-22-38_260595134347_rgbf000084-resize_1-target.png,depth_discrimination_stimuli/000691_2014-06-08_13-08-50_260595134347_rgbf000132-resize_3/000691_2014-06-08_13-08-50_260595134347_rgbf000132-resize_3-target.png,250,4.408,4.153,0,3742,504,248,1000,263,495,,,,,,530603,749716,40
458757,DepthScenes,duration_discrimination,discrim_jsons/shuffled_g0_rotated_dr.json,http://54.89.209.186/DepthDuration/depth_discrimination_MTurk/DepthDiscrim_HTML.html#2,2,1366,657,1366,768,7-20-2021,12-9-48,15,depth_discrimination_stimuli/001164_2014-06-17_15-35-46_260595134347_rgbf000085-resize_3/001164_2014-06-17_15-35-46_260595134347_rgbf000085-resize_3-target.png,depth_discrimination_stimuli/002118_2014-06-25_20-32-08_260595134347_rgbf000078-resize_1/002118_2014-06-25_20-32-08_260595134347_rgbf000078-resize_1-target.png,250,2.354,2.646,1,1590,523,241,994,244,511,,,,,,530603,749716,40
458757,DepthScenes,duration_discrimination,discrim_jsons/shuffled_g0_rotated_dr.json,http://54.89.209.186/DepthDuration/depth_discrimination_MTurk/DepthDiscrim_HTML.html#2,2,1366,657,1366,768,7-20-2021,12-9-48,16,depth_discrimination_stimuli/000569_2014-06-09_22-51-47_260595134347_rgbf000141-resize_3/000569_2014-06-09_22-51-47_260595134347_rgbf000141-resize_3-target.png,depth_discrimination_stimuli/000868_2014-06-09_20-49-52_260595134347_rgbf000064-resize_4/000868_2014-06-09_20-49-52_260595134347_rgbf000064-resize_4-target.png,250,4.512,1.2815,1,1166,512,243,1002,253,502,,,,,,530603,749716,40
458757,DepthScenes,duration_discrimination,discrim_jsons/shuffled_g0_rotated_dr.json,http://54.89.209.186/DepthDuration/depth_discrimination_MTurk/DepthDiscrim_HTML.html#2,2,1366,657,1366,768,7-20-2021,12-9-48,17,depth_discrimination_stimuli/000709_2014-06-08_13-51-55_260595134347_rgbf000068-resize_3/000709_2014-06-08_13-51-55_260595134347_rgbf000068-resize_3-target.png,depth_discrimination_stimuli/003587_2014-05-23_16-48-02_094959634447_rgbf002384-resize_2/003587_2014-05-23_16-48-02_094959634447_rgbf002384-resize_2-target.png,250,1.803,1.357,1,1083,508,257,989,248,499,,,,,,530603,749716,40
458757,DepthScenes,duration_discrimination,discrim_jsons/shuffled_g0_rotated_dr.json,http://54.89.209.186/DepthDuration/depth_discrimination_MTurk/DepthDiscrim_HTML.html#2,2,1366,657,1366,768,7-20-2021,12-9-48,18,depth_discrimination_stimuli/000409_2014-06-04_19-23-33_260595134347_rgbf000067-resize_0/000409_2014-06-04_19-23-33_260595134347_rgbf000067-resize_0-target.png,depth_discrimination_stimuli/000493_2014-06-09_21-01-18_260595134347_rgbf000196-resize_3/000493_2014-06-09_21-01-18_260595134347_rgbf000196-resize_3-target.png,1000,3.7335,3.44,1,3282,506,1000,1004,992,533,,,,,,530603,749716,40
458757,DepthScenes,duration_discrimination,discrim_jsons/shuffled_g0_rotated_dr.json,http://54.89.209.186/DepthDuration/depth_discrimination_MTurk/DepthDiscrim_HTML.html#2,2,1366,657,1366,768,7-20-2021,12-9-48,19,depth_discrimination_stimuli/002675_2014-06-13_16-08-49_094959634447_rgbf000151-resize_2/002675_2014-06-13_16-08-49_094959634447_rgbf000151-resize_2-target.png,depth_discrimination_stimuli/001222_2014-06-17_16-24-06_260595134347_rgbf000073-resize_0/001222_2014-06-17_16-24-06_260595134347_rgbf000073-resize_0-target.png,1000,4.5065,1.4385,1,2939,506,998,1000,1012,504,,,,,,530603,749716,40
458757,DepthScenes,duration_discrimination,discrim_jsons/shuffled_g0_rotated_dr.json,http://54.89.209.186/DepthDuration/depth_discrimination_MTurk/DepthDiscrim_HTML.html#2,2,1366,657,1366,768,7-20-2021,12-9-48,20,depth_discrimination_stimuli/001016_2014-06-09_16-16-10_260595134347_rgbf000112-resize_5/001016_2014-06-09_16-16-10_260595134347_rgbf000112-resize_5-target.png,depth_discrimination_stimuli/002199_2014-06-28_18-33-56_260595134347_rgbf000074-resize_0/002199_2014-06-28_18-33-56_260595134347_rgbf000074-resize_0-target.png,1000,1.6565,1.996,1,1763,516,994,1060,968,466,,,,,,530603,749716,40
458757,DepthScenes,duration_discrimination,discrim_jsons/shuffled_g0_rotated_dr.json,http://54.89.209.186/DepthDuration/depth_discrimination_MTurk/DepthDiscrim_HTML.html#2,2,1366,657,1366,768,7-20-2021,12-9-48,21,depth_discrimination_stimuli/000542_2014-06-08_18-27-08_260595134347_rgbf000118-resize_1/000542_2014-06-08_18-27-08_260595134347_rgbf000118-resize_1-target.png,depth_discrimination_stimuli/003292_2014-05-14_21-53-49_094959634447_rgbf000100-resize_2/003292_2014-05-14_21-53-49_094959634447_rgbf000100-resize_2-target.png,250,3,3.4815,1,1181,508,251,1004,245,517,,,,,,530603,749716,40
458757,DepthScenes,duration_discrimination,discrim_jsons/shuffled_g0_rotated_dr.json,http://54.89.209.186/DepthDuration/depth_discrimination_MTurk/DepthDiscrim_HTML.html#2,2,1366,657,1366,768,7-20-2021,12-9-48,22,depth_discrimination_stimuli/000866_2014-06-09_20-45-42_260595134347_rgbf000139-resize_1/000866_2014-06-09_20-45-42_260595134347_rgbf000139-resize_1-target.png,depth_discrimination_stimuli/003490_2014-05-21_15-50-11_094959634447_rgbf000101-resize_3/003490_2014-05-21_15-50-11_094959634447_rgbf000101-resize_3-target.png,250,3.2155,3.6445,1,1652,546,210,1006,243,506,,,,,,530603,749716,40
458757,DepthScenes,duration_discrimination,discrim_jsons/shuffled_g0_rotated_dr.json,http://54.89.209.186/DepthDuration/depth_discrimination_MTurk/DepthDiscrim_HTML.html#2,2,1366,657,1366,768,7-20-2021,12-9-48,23,depth_discrimination_stimuli/002414_2014-06-28_20-24-58_260595134347_rgbf000067-resize_4/002414_2014-06-28_20-24-58_260595134347_rgbf000067-resize_4-target.png,depth_discrimination_stimuli/001450_2014-06-19_17-02-03_260595134347_rgbf000203-resize_4/001450_2014-06-19_17-02-03_260595134347_rgbf000203-resize_4-target.png,1000,4.363,4.0106666666667,0,2153,579,931,1001,1052,448,,,,,,530603,749716,40
458757,DepthScenes,duration_discrimination,discrim_jsons/shuffled_g0_rotated_dr.json,http://54.89.209.186/DepthDuration/depth_discrimination_MTurk/DepthDiscrim_HTML.html#2,2,1366,657,1366,768,7-20-2021,12-9-48,24,depth_discrimination_stimuli/001498_2014-06-19_17-45-14_260595134347_rgbf000129-resize_4/001498_2014-06-19_17-45-14_260595134347_rgbf000129-resize_4-target.png,depth_discrimination_stimuli/003125_2014-05-12_10-39-22_094959634447_rgbf000100-resize_0/003125_2014-05-12_10-39-22_094959634447_rgbf000100-resize_0-target.png,1000,1.4075,4.8655,0,2410,523,987,997,997,511,,,,,,530603,749716,40
458757,DepthScenes,duration_discrimination,discrim_jsons/shuffled_g0_rotated_dr.json,http://54.89.209.186/DepthDuration/depth_discrimination_MTurk/DepthDiscrim_HTML.html#2,2,1366,657,1366,768,7-20-2021,12-9-48,25,depth_discrimination_stimuli/002509_2014-06-24_13-19-22_094959634447_rgbf000077-resize_0/002509_2014-06-24_13-19-22_094959634447_rgbf000077-resize_0-target.png,depth_discrimination_stimuli/000549_2014-06-08_22-10-24_260595134347_rgbf000247-resize_3/000549_2014-06-08_22-10-24_260595134347_rgbf000247-resize_3-target.png,250,1.3065,1.841,1,1390,579,176,1002,250,535,,,,,,530603,749716,40
458757,DepthScenes,duration_discrimination,discrim_jsons/shuffled_g0_rotated_dr.json,http://54.89.209.186/DepthDuration/depth_discrimination_MTurk/DepthDiscrim_HTML.html#2,2,1366,657,1366,768,7-20-2021,12-9-48,26,depth_discrimination_stimuli/001148_2014-06-17_15-26-42_260595134347_rgbf000129-resize_0/001148_2014-06-17_15-26-42_260595134347_rgbf000129-resize_0-target.png,depth_discrimination_stimuli/000556_2014-06-09_22-42-56_260595134347_rgbf000214-resize_1/000556_2014-06-09_22-42-56_260595134347_rgbf000214-resize_1-target.png,250,4.368,4.8415,0,1647,509,249,998,252,504,,,,,,530603,749716,40
458757,DepthScenes,duration_discrimination,discrim_jsons/shuffled_g0_rotated_dr.json,http://54.89.209.186/DepthDuration/depth_discrimination_MTurk/DepthDiscrim_HTML.html#2,2,1366,657,1366,768,7-20-2021,12-9-48,27,depth_discrimination_stimuli/001136_2014-06-17_15-19-41_260595134347_rgbf000076-resize_3/001136_2014-06-17_15-19-41_260595134347_rgbf000076-resize_3-target.png,depth_discrimination_stimuli/002549_2014-06-24_13-41-39_094959634447_rgbf000022-resize_3/002549_2014-06-24_13-41-39_094959634447_rgbf000022-resize_3-target.png,250,1.8655,1.476,1,1488,502,265,1052,266,419,,,,,,530603,749716,40
458757,DepthScenes,duration_discrimination,discrim_jsons/shuffled_g0_rotated_dr.json,http://54.89.209.186/DepthDuration/depth_discrimination_MTurk/DepthDiscrim_HTML.html#2,2,1366,657,1366,768,7-20-2021,12-9-48,28,depth_discrimination_stimuli/002072_2014-06-24_21-48-06_260595134347_rgbf000115-resize_0/002072_2014-06-24_21-48-06_260595134347_rgbf000115-resize_0-target.png,depth_discrimination_stimuli/001012_2014-06-08_23-19-38_260595134347_rgbf000057-resize_0/001012_2014-06-08_23-19-38_260595134347_rgbf000057-resize_0-target.png,250,4.702,1.38325,0,1410,511,243,999,249,555,,,,,,530603,749716,40
458757,DepthScenes,duration_discrimination,discrim_jsons/shuffled_g0_rotated_dr.json,http://54.89.209.186/DepthDuration/depth_discrimination_MTurk/DepthDiscrim_HTML.html#2,2,1366,657,1366,768,7-20-2021,12-9-48,29,depth_discrimination_stimuli/001584_2014-06-20_11-07-43_260595134347_rgbf000002-resize_1/001584_2014-06-20_11-07-43_260595134347_rgbf000002-resize_1-target.png,depth_discrimination_stimuli/002805_2014-06-22_19-54-03_094959634447_rgbf000079-resize_1/002805_2014-06-22_19-54-03_094959634447_rgbf000079-resize_1-target.png,1000,3.53,3.144,0,4535,504,1013,1020,1050,422,,,,,,530603,749716,40
458757,DepthScenes,duration_discrimination,discrim_jsons/shuffled_g0_rotated_dr.json,http://54.89.209.186/DepthDuration/depth_discrimination_MTurk/DepthDiscrim_HTML.html#2,2,1366,657,1366,768,7-20-2021,12-9-48,30,depth_discrimination_stimuli/002949_2014-06-26_15-57-42_094959634447_rgbf000079-resize_1/002949_2014-06-26_15-57-42_094959634447_rgbf000079-resize_1-target.png,depth_discrimination_stimuli/003495_2014-05-21_16-01-51_094959634447_rgbf000100-resize_3/003495_2014-05-21_16-01-51_094959634447_rgbf000100-resize_3-target.png,1000,1.8915,1.6255,0,3746,512,1016,983,994,501,,,,,,530603,749716,40
458757,DepthScenes,duration_discrimination,discrim_jsons/shuffled_g0_rotated_dr.json,http://54.89.209.186/DepthDuration/depth_discrimination_MTurk/DepthDiscrim_HTML.html#2,2,1366,657,1366,768,7-20-2021,12-9-48,31,depth_discrimination_stimuli/000137_2014-05-20_17-04-49_260595134347_rgbf000120-resize_1/000137_2014-05-20_17-04-49_260595134347_rgbf000120-resize_1-target.png,depth_discrimination_stimuli/003423_2014-05-21_10-23-26_094959634447_rgbf002665-resize_2/003423_2014-05-21_10-23-26_094959634447_rgbf002665-resize_2-target.png,1000,3.786,3.2575,0,4573,513,989,1004,995,506,,,,,,530603,749716,40
458757,DepthScenes,duration_discrimination,discrim_jsons/shuffled_g0_rotated_dr.json,http://54.89.209.186/DepthDuration/depth_discrimination_MTurk/DepthDiscrim_HTML.html#2,2,1366,657,1366,768,7-20-2021,12-9-48,32,depth_discrimination_stimuli/001235_2014-06-17_16-37-36_260595134347_rgbf000084-resize_4/001235_2014-06-17_16-37-36_260595134347_rgbf000084-resize_4-target.png,depth_discrimination_stimuli/001197_2014-06-17_16-01-50_260595134347_rgbf000103-resize_4/001197_2014-06-17_16-01-50_260595134347_rgbf000103-resize_4-target.png,1000,3.6605,3.4025,0,6310,509,1008,996,1001,499,,,,,,530603,749716,40
458757,DepthScenes,duration_discrimination,discrim_jsons/shuffled_g0_rotated_dr.json,http://54.89.209.186/DepthDuration/depth_discrimination_MTurk/DepthDiscrim_HTML.html#2,2,1366,657,1366,768,7-20-2021,12-9-48,33,depth_discrimination_stimuli/001133_2014-06-17_14-49-16_260595134347_rgbf000100-resize_0/001133_2014-06-17_14-49-16_260595134347_rgbf000100-resize_0-target.png,depth_discrimination_stimuli/002467_2014-06-28_20-38-07_260595134347_rgbf000026-resize_2/002467_2014-06-28_20-38-07_260595134347_rgbf000026-resize_2-target.png,1000,4.2115,4.742,0,2323,501,1002,1012,1004,496,,,,,,530603,749716,40
458757,DepthScenes,duration_discrimination,discrim_jsons/shuffled_g0_rotated_dr.json,http://54.89.209.186/DepthDuration/depth_discrimination_MTurk/DepthDiscrim_HTML.html#2,2,1366,657,1366,768,7-20-2021,12-9-48,34,depth_discrimination_stimuli/002748_2014-06-22_19-07-22_094959634447_rgbf000078-resize_1/002748_2014-06-22_19-07-22_094959634447_rgbf000078-resize_1-target.png,depth_discrimination_stimuli/001808_2014-06-26_20-50-58_260595134347_rgbf000029-resize_1/001808_2014-06-26_20-50-58_260595134347_rgbf000029-resize_1-target.png,1000,4.6705,4.249,2,5134,502,1004,997,1003,496,,,,,,530603,749716,40
458757,DepthScenes,duration_discrimination,discrim_jsons/shuffled_g0_rotated_dr.json,http://54.89.209.186/DepthDuration/depth_discrimination_MTurk/DepthDiscrim_HTML.html#2,2,1366,657,1366,768,7-20-2021,12-9-48,35,depth_discrimination_stimuli/003395_2014-05-20_15-39-18_094959634447_rgbf000101-resize_0/003395_2014-05-20_15-39-18_094959634447_rgbf000101-resize_0-target.png,depth_discrimination_stimuli/001540_2014-06-20_17-01-05_260595134347_rgbf000086-resize_2/001540_2014-06-20_17-01-05_260595134347_rgbf000086-resize_2-target.png,1000,4.835,1.459,0,5019,509,1002,1059,935,497,,,,,,530603,749716,40
458757,DepthScenes,duration_discrimination,discrim_jsons/shuffled_g0_rotated_dr.json,http://54.89.209.186/DepthDuration/depth_discrimination_MTurk/DepthDiscrim_HTML.html#2,2,1366,657,1366,768,7-20-2021,12-9-48,36,depth_discrimination_stimuli/001170_2014-06-17_15-43-44_260595134347_rgbf000096-resize_6/001170_2014-06-17_15-43-44_260595134347_rgbf000096-resize_6-target.png,depth_discrimination_stimuli/002364_2014-06-28_20-11-05_260595134347_rgbf000042-resize_0/002364_2014-06-28_20-11-05_260595134347_rgbf000042-resize_0-target.png,250,1.191,4.682,1,848,545,256,954,256,504,,,,,,530603,749716,40
458757,DepthScenes,duration_discrimination,discrim_jsons/shuffled_g0_rotated_dr.json,http://54.89.209.186/DepthDuration/depth_discrimination_MTurk/DepthDiscrim_HTML.html#2,2,1366,657,1366,768,7-20-2021,12-9-48,37,depth_discrimination_stimuli/002678_2014-06-13_16-15-32_094959634447_rgbf000151-resize_6/002678_2014-06-13_16-15-32_094959634447_rgbf000151-resize_6-target.png,depth_discrimination_stimuli/000927_2014-06-09_16-32-30_260595134347_rgbf000123-resize_3/000927_2014-06-09_16-32-30_260595134347_rgbf000123-resize_3-target.png,1000,2.183,2.6785,1,4654,501,1000,1005,1000,502,,,,,,530603,749716,40
458757,DepthScenes,duration_discrimination,discrim_jsons/shuffled_g0_rotated_dr.json,http://54.89.209.186/DepthDuration/depth_discrimination_MTurk/DepthDiscrim_HTML.html#2,2,1366,657,1366,768,7-20-2021,12-9-48,38,depth_discrimination_stimuli/003081_2014-06-15_15-19-16_094959634447_rgbf000150-resize_1/003081_2014-06-15_15-19-16_094959634447_rgbf000150-resize_1-target.png,depth_discrimination_stimuli/002660_2014-06-13_15-44-18_094959634447_rgbf001878-resize_2/002660_2014-06-13_15-44-18_094959634447_rgbf001878-resize_2-target.png,250,3.9125,3.576,0,1661,502,260,990,262,496,,,,,,530603,749716,40
458757,DepthScenes,duration_discrimination,discrim_jsons/shuffled_g0_rotated_dr.json,http://54.89.209.186/DepthDuration/depth_discrimination_MTurk/DepthDiscrim_HTML.html#2,2,1366,657,1366,768,7-20-2021,12-9-48,39,depth_discrimination_stimuli/001181_2014-06-17_15-50-57_260595134347_rgbf000106-resize_4/001181_2014-06-17_15-50-57_260595134347_rgbf000106-resize_4-target.png,depth_discrimination_stimuli/001158_2014-06-17_15-32-16_260595134347_rgbf000138-resize_2/001158_2014-06-17_15-32-16_260595134347_rgbf000138-resize_2-target.png,1000,4.149,4.5315,0,2502,508,1003,991,1017,494,,,,,,530603,749716,40
458757,DepthScenes,duration_discrimination,discrim_jsons/shuffled_g0_rotated_dr.json,http://54.89.209.186/DepthDuration/depth_discrimination_MTurk/DepthDiscrim_HTML.html#2,2,1366,657,1366,768,7-20-2021,12-9-48,40,depth_discrimination_stimuli/001032_2014-06-08_13-23-17_260595134347_rgbf000021-resize_3/001032_2014-06-08_13-23-17_260595134347_rgbf000021-resize_3-target.png,depth_discrimination_stimuli/002323_2014-06-28_20-01-54_260595134347_rgbf000051-resize_4/002323_2014-06-28_20-01-54_260595134347_rgbf000051-resize_4-target.png,1000,3.2725,3.731,0,2317,508,1007,988,1007,507,,,,,,530603,749716,40
458757,DepthScenes,duration_discrimination,discrim_jsons/shuffled_g0_rotated_dr.json,http://54.89.209.186/DepthDuration/depth_discrimination_MTurk/DepthDiscrim_HTML.html#2,2,1366,657,1366,768,7-20-2021,12-9-48,40,,,,,,,2317,508,1007,988,1007,507,,,,,,530603,749716,40
458757,DepthScenes,duration_discrimination,discrim_jsons/shuffled_g0_rotated_dr.json,http://54.89.209.186/DepthDuration/depth_discrimination_MTurk/DepthDiscrim_HTML.html#2,2,1349,657,1366,768,7-20-2021,12-9-48,42,,,,,,,2317,508,1007,988,1007,507,,3,4,depth_discrimination_stimuli/000692_2014-06-08_13-09-42_260595134347_rgbf000199-resize_2/000692_2014-06-08_13-09-42_260595134347_rgbf000199-resize-original.jpg,6605,530603,749716,40
458757,DepthScenes,duration_discrimination,discrim_jsons/shuffled_g0_rotated_dr.json,http://54.89.209.186/DepthDuration/depth_discrimination_MTurk/DepthDiscrim_HTML.html#2,2,1349,657,1366,768,7-20-2021,12-9-48,43,,,,,,,2317,508,1007,988,1007,507,,3,5,depth_discrimination_stimuli/000103_2014-05-14_22-01-17_260595134347_rgbf000152-resize_5/000103_2014-05-14_22-01-17_260595134347_rgbf000152-resize-original.jpg,3353,530603,749716,40
458757,DepthScenes,duration_discrimination,discrim_jsons/shuffled_g0_rotated_dr.json,http://54.89.209.186/DepthDuration/depth_discrimination_MTurk/DepthDiscrim_HTML.html#2,2,1349,657,1366,768,7-20-2021,12-9-48,44,,,,,,,2317,508,1007,988,1007,507,,2,3,depth_discrimination_stimuli/001618_2014-06-20_11-37-31_260595134347_rgbf000027-resize_3/001618_2014-06-20_11-37-31_260595134347_rgbf000027-resize-original.jpg,3751,530603,749716,40
458757,DepthScenes,duration_discrimination,discrim_jsons/shuffled_g0_rotated_dr.json,http://54.89.209.186/DepthDuration/depth_discrimination_MTurk/DepthDiscrim_HTML.html#2,2,1349,657,1366,768,7-20-2021,12-9-48,45,,,,,,,2317,508,1007,988,1007,507,,2,4,depth_discrimination_stimuli/002272_2014-06-28_18-53-56_260595134347_rgbf000067-resize_2/002272_2014-06-28_18-53-56_260595134347_rgbf000067-resize-original.jpg,3665,530603,749716,40
458757,DepthScenes,duration_discrimination,discrim_jsons/shuffled_g0_rotated_dr.json,http://54.89.209.186/DepthDuration/depth_discrimination_MTurk/DepthDiscrim_HTML.html#2,2,1349,657,1366,768,7-20-2021,12-9-48,46,,,,,,,2317,508,1007,988,1007,507,,4,3,depth_discrimination_stimuli/000917_2014-06-09_22-45-29_260595134347_rgbf000149-resize_3/000917_2014-06-09_22-45-29_260595134347_rgbf000149-resize-original.jpg,6279,530603,749716,40
458757,DepthScenes,duration_discrimination,discrim_jsons/shuffled_g0_rotated_dr.json,http://54.89.209.186/DepthDuration/depth_discrimination_MTurk/DepthDiscrim_HTML.html#2,2,1349,657,1366,768,7-20-2021,12-9-48,47,,,,,,,2317,508,1007,988,1007,507,,4,3,depth_discrimination_stimuli/002953_2014-06-08_17-32-18_094959634447_rgbf000059-resize_5/002953_2014-06-08_17-32-18_094959634447_rgbf000059-resize-original.jpg,3437,530603,749716,40
458757,DepthScenes,duration_discrimination,discrim_jsons/shuffled_g0_rotated_dr.json,http://54.89.209.186/DepthDuration/depth_discrimination_MTurk/DepthDiscrim_HTML.html#2,2,1349,657,1366,768,7-20-2021,12-9-48,48,,,,,,,2317,508,1007,988,1007,507,,5,3,depth_discrimination_stimuli/000635_2014-06-08_16-38-42_260595134347_rgbf000106-resize_1/000635_2014-06-08_16-38-42_260595134347_rgbf000106-resize-original.jpg,3328,530603,749716,40
458757,DepthScenes,duration_discrimination,discrim_jsons/shuffled_g0_rotated_dr.json,http://54.89.209.186/DepthDuration/depth_discrimination_MTurk/DepthDiscrim_HTML.html#2,2,1349,657,1366,768,7-20-2021,12-9-48,49,,,,,,,2317,508,1007,988,1007,507,,2,4,scene_property_catch_stimuli/sun_aoquhiddlfqapdlz.jpg,3124,530603,749716,40
458757,DepthScenes,duration_discrimination,discrim_jsons/shuffled_g0_rotated_dr.json,http://54.89.209.186/DepthDuration/depth_discrimination_MTurk/DepthDiscrim_HTML.html#2,2,1349,657,1366,768,7-20-2021,12-9-48,50,,,,,,,2317,508,1007,988,1007,507,,4,2,depth_discrimination_stimuli/002660_2014-06-13_15-44-18_094959634447_rgbf001878-resize_2/002660_2014-06-13_15-44-18_094959634447_rgbf001878-resize-original.jpg,12031,530603,749716,40
458757,DepthScenes,duration_discrimination,discrim_jsons/shuffled_g0_rotated_dr.json,http://54.89.209.186/DepthDuration/depth_discrimination_MTurk/DepthDiscrim_HTML.html#2,2,1349,657,1366,768,7-20-2021,12-9-48,51,,,,,,,2317,508,1007,988,1007,507,,3,2,depth_discrimination_stimuli/002700_2014-06-22_11-27-02_094959634447_rgbf000124-resize_3/002700_2014-06-22_11-27-02_094959634447_rgbf000124-resize-original.jpg,5002,530603,749716,40
458757,DepthScenes,duration_discrimination,discrim_jsons/shuffled_g0_rotated_dr.json,http://54.89.209.186/DepthDuration/depth_discrimination_MTurk/DepthDiscrim_HTML.html#2,2,1349,657,1366,768,7-20-2021,12-9-48,52,,,,,,,2317,508,1007,988,1007,507,,3,4,depth_discrimination_stimuli/003092_2014-06-24_21-01-49_094959634447_rgbf000049-resize_2/003092_2014-06-24_21-01-49_094959634447_rgbf000049-resize-original.jpg,3171,530603,749716,40
458757,DepthScenes,duration_discrimination,discrim_jsons/shuffled_g0_rotated_dr.json,http://54.89.209.186/DepthDuration/depth_discrimination_MTurk/DepthDiscrim_HTML.html#2,2,1349,657,1366,768,7-20-2021,12-9-48,53,,,,,,,2317,508,1007,988,1007,507,,3,4,depth_discrimination_stimuli/000753_2014-06-08_21-57-44_260595134347_rgbf000123-resize_3/000753_2014-06-08_21-57-44_260595134347_rgbf000123-resize-original.jpg,3083,530603,749716,40
458757,DepthScenes,duration_discrimination,discrim_jsons/shuffled_g0_rotated_dr.json,http://54.89.209.186/DepthDuration/depth_discrimination_MTurk/DepthDiscrim_HTML.html#2,2,1349,657,1366,768,7-20-2021,12-9-48,54,,,,,,,2317,508,1007,988,1007,507,,5,4,depth_discrimination_stimuli/000483_2014-06-09_20-41-45_260595134347_rgbf000116-resize_4/000483_2014-06-09_20-41-45_260595134347_rgbf000116-resize-original.jpg,2800,530603,749716,40
458757,DepthScenes,duration_discrimination,discrim_jsons/shuffled_g0_rotated_dr.json,http://54.89.209.186/DepthDuration/depth_discrimination_MTurk/DepthDiscrim_HTML.html#2,2,1349,657,1366,768,7-20-2021,12-9-48,55,,,,,,,2317,508,1007,988,1007,507,,5,3,depth_discrimination_stimuli/000773_2014-06-08_22-24-54_260595134347_rgbf000093-resize_1/000773_2014-06-08_22-24-54_260595134347_rgbf000093-resize-original.jpg,2799,530603,749716,40
458757,DepthScenes,duration_discrimination,discrim_jsons/shuffled_g0_rotated_dr.json,http://54.89.209.186/DepthDuration/depth_discrimination_MTurk/DepthDiscrim_HTML.html#2,2,1349,657,1366,768,7-20-2021,12-9-48,56,,,,,,,2317,508,1007,988,1007,507,,4,1,depth_discrimination_stimuli/001584_2014-06-20_11-07-43_260595134347_rgbf000002-resize_1/001584_2014-06-20_11-07-43_260595134347_rgbf000002-resize-original.jpg,3003,530603,749716,40
458757,DepthScenes,duration_discrimination,discrim_jsons/shuffled_g0_rotated_dr.json,http://54.89.209.186/DepthDuration/depth_discrimination_MTurk/DepthDiscrim_HTML.html#2,2,1686,821,1366,768,7-20-2021,12-9-48,57,,,,,,,2317,508,1007,988,1007,507,,3,4,depth_discrimination_stimuli/001059_2014-06-08_21-53-27_260595134347_rgbf000061-resize_4/001059_2014-06-08_21-53-27_260595134347_rgbf000061-resize-original.jpg,8729,530603,749716,40
458757,DepthScenes,duration_discrimination,discrim_jsons/shuffled_g0_rotated_dr.json,http://54.89.209.186/DepthDuration/depth_discrimination_MTurk/DepthDiscrim_HTML.html#2,2,1686,821,1366,768,7-20-2021,12-9-48,58,,,,,,,2317,508,1007,988,1007,507,,3,5,depth_discrimination_stimuli/003048_2014-06-15_13-49-43_094959634447_rgbf000150-resize_1/003048_2014-06-15_13-49-43_094959634447_rgbf000150-resize-original.jpg,5430,530603,749716,40
458757,DepthScenes,duration_discrimination,discrim_jsons/shuffled_g0_rotated_dr.json,http://54.89.209.186/DepthDuration/depth_discrimination_MTurk/DepthDiscrim_HTML.html#2,2,1686,821,1366,768,7-20-2021,12-9-48,59,,,,,,,2317,508,1007,988,1007,507,,4,5,depth_discrimination_stimuli/002545_2014-06-24_13-38-53_094959634447_rgbf000080-resize_4/002545_2014-06-24_13-38-53_094959634447_rgbf000080-resize-original.jpg,2360,530603,749716,40
458757,DepthScenes,duration_discrimination,discrim_jsons/shuffled_g0_rotated_dr.json,http://54.89.209.186/DepthDuration/depth_discrimination_MTurk/DepthDiscrim_HTML.html#2,2,1686,821,1366,768,7-20-2021,12-9-48,60,,,,,,,2317,508,1007,988,1007,507,,2,3,depth_discrimination_stimuli/000109_2014-05-14_23-41-52_260595134347_rgbf000035-resize_9/000109_2014-05-14_23-41-52_260595134347_rgbf000035-resize-original.jpg,2407,530603,749716,40
458757,DepthScenes,duration_discrimination,discrim_jsons/shuffled_g0_rotated_dr.json,http://54.89.209.186/DepthDuration/depth_discrimination_MTurk/DepthDiscrim_HTML.html#2,2,1686,821,1366,768,7-20-2021,12-9-48,61,,,,,,,2317,508,1007,988,1007,507,,4,5,depth_discrimination_stimuli/001094_2014-06-15_17-36-00_260595134347_rgbf000205-resize_0/001094_2014-06-15_17-36-00_260595134347_rgbf000205-resize-original.jpg,2183,530603,749716,40
458757,DepthScenes,duration_discrimination,discrim_jsons/shuffled_g0_rotated_dr.json,http://54.89.209.186/DepthDuration/depth_discrimination_MTurk/DepthDiscrim_HTML.html#2,2,1686,821,1366,768,7-20-2021,12-9-48,62,,,,,,,2317,508,1007,988,1007,507,,4,3,depth_discrimination_stimuli/002905_2014-06-03_18-04-43_094959634447_rgbf000151-resize_2/002905_2014-06-03_18-04-43_094959634447_rgbf000151-resize-original.jpg,1936,530603,749716,40
458757,DepthScenes,duration_discrimination,discrim_jsons/shuffled_g0_rotated_dr.json,http://54.89.209.186/DepthDuration/depth_discrimination_MTurk/DepthDiscrim_HTML.html#2,2,1686,821,1366,768,7-20-2021,12-9-48,63,,,,,,,2317,508,1007,988,1007,507,,4,4,depth_discrimination_stimuli/002043_2014-06-24_20-29-38_260595134347_rgbf000039-resize_4/002043_2014-06-24_20-29-38_260595134347_rgbf000039-resize-original.jpg,3831,530603,749716,40
458757,DepthScenes,duration_discrimination,discrim_jsons/shuffled_g0_rotated_dr.json,http://54.89.209.186/DepthDuration/depth_discrimination_MTurk/DepthDiscrim_HTML.html#2,2,1686,821,1366,768,7-20-2021,12-9-48,64,,,,,,,2317,508,1007,988,1007,507,,3,4,depth_discrimination_stimuli/000943_2014-06-09_19-31-07_260595134347_rgbf000128-resize_1/000943_2014-06-09_19-31-07_260595134347_rgbf000128-resize-original.jpg,2280,530603,749716,40
458757,DepthScenes,duration_discrimination,discrim_jsons/shuffled_g0_rotated_dr.json,http://54.89.209.186/DepthDuration/depth_discrimination_MTurk/DepthDiscrim_HTML.html#2,2,1686,821,1366,768,7-20-2021,12-9-48,65,,,,,,,2317,508,1007,988,1007,507,,5,4,depth_discrimination_stimuli/002549_2014-06-24_13-41-39_094959634447_rgbf000022-resize_3/002549_2014-06-24_13-41-39_094959634447_rgbf000022-resize-original.jpg,2222,530603,749716,40
458757,DepthScenes,duration_discrimination,discrim_jsons/shuffled_g0_rotated_dr.json,http://54.89.209.186/DepthDuration/depth_discrimination_MTurk/DepthDiscrim_HTML.html#2,2,1686,821,1366,768,7-20-2021,12-9-48,66,,,,,,,2317,508,1007,988,1007,507,,2,3,depth_discrimination_stimuli/001092_2014-06-15_17-34-58_260595134347_rgbf000171-resize_3/001092_2014-06-15_17-34-58_260595134347_rgbf000171-resize-original.jpg,1761,530603,749716,40
458757,DepthScenes,duration_discrimination,discrim_jsons/shuffled_g0_rotated_dr.json,http://54.89.209.186/DepthDuration/depth_discrimination_MTurk/DepthDiscrim_HTML.html#2,2,1686,821,1366,768,7-20-2021,12-9-48,67,,,,,,,2317,508,1007,988,1007,507,,4,1,depth_discrimination_stimuli/001449_2014-06-19_17-01-27_260595134347_rgbf000116-resize_2/001449_2014-06-19_17-01-27_260595134347_rgbf000116-resize-original.jpg,2600,530603,749716,40
458757,DepthScenes,duration_discrimination,discrim_jsons/shuffled_g0_rotated_dr.json,http://54.89.209.186/DepthDuration/depth_discrimination_MTurk/DepthDiscrim_HTML.html#2,2,1686,821,1366,768,7-20-2021,12-9-48,68,,,,,,,2317,508,1007,988,1007,507,,5,4,depth_discrimination_stimuli/001136_2014-06-17_15-19-41_260595134347_rgbf000076-resize_3/001136_2014-06-17_15-19-41_260595134347_rgbf000076-resize-original.jpg,2724,530603,749716,40
458757,DepthScenes,duration_discrimination,discrim_jsons/shuffled_g0_rotated_dr.json,http://54.89.209.186/DepthDuration/depth_discrimination_MTurk/DepthDiscrim_HTML.html#2,2,1686,821,1366,768,7-20-2021,12-9-48,69,,,,,,,2317,508,1007,988,1007,507,,3,4,depth_discrimination_stimuli/001806_2014-06-26_20-50-20_260595134347_rgbf000091-resize_1/001806_2014-06-26_20-50-20_260595134347_rgbf000091-resize-original.jpg,2900,530603,749716,40
458757,DepthScenes,duration_discrimination,discrim_jsons/shuffled_g0_rotated_dr.json,http://54.89.209.186/DepthDuration/depth_discrimination_MTurk/DepthDiscrim_HTML.html#2,2,1686,821,1366,768,7-20-2021,12-9-48,70,,,,,,,2317,508,1007,988,1007,507,,3,2,depth_discrimination_stimuli/001181_2014-06-17_15-50-57_260595134347_rgbf000106-resize_4/001181_2014-06-17_15-50-57_260595134347_rgbf000106-resize-original.jpg,2647,530603,749716,40
458757,DepthScenes,duration_discrimination,discrim_jsons/shuffled_g0_rotated_dr.json,http://54.89.209.186/DepthDuration/depth_discrimination_MTurk/DepthDiscrim_HTML.html#2,2,1686,821,1366,768,7-20-2021,12-9-48,71,,,,,,,2317,508,1007,988,1007,507,,2,3,depth_discrimination_stimuli/001016_2014-06-09_16-16-10_260595134347_rgbf000112-resize_5/001016_2014-06-09_16-16-10_260595134347_rgbf000112-resize-original.jpg,3161,530603,749716,40
458757,DepthScenes,duration_discrimination,discrim_jsons/shuffled_g0_rotated_dr.json,http://54.89.209.186/DepthDuration/depth_discrimination_MTurk/DepthDiscrim_HTML.html#2,2,1686,821,1366,768,7-20-2021,12-9-48,72,,,,,,,2317,508,1007,988,1007,507,,3,4,depth_discrimination_stimuli/000810_2014-06-08_17-20-01_260595134347_rgbf000105-resize_0/000810_2014-06-08_17-20-01_260595134347_rgbf000105-resize-original.jpg,1742,530603,749716,40
458757,DepthScenes,duration_discrimination,discrim_jsons/shuffled_g0_rotated_dr.json,http://54.89.209.186/DepthDuration/depth_discrimination_MTurk/DepthDiscrim_HTML.html#2,2,1686,821,1366,768,7-20-2021,12-9-48,73,,,,,,,2317,508,1007,988,1007,507,,1,2,depth_discrimination_stimuli/002639_2014-06-24_14-51-37_094959634447_rgbf000074-resize_4/002639_2014-06-24_14-51-37_094959634447_rgbf000074-resize-original.jpg,2276,530603,749716,40
458757,DepthScenes,duration_discrimination,discrim_jsons/shuffled_g0_rotated_dr.json,http://54.89.209.186/DepthDuration/depth_discrimination_MTurk/DepthDiscrim_HTML.html#2,2,1686,821,1366,768,7-20-2021,12-9-48,74,,,,,,,2317,508,1007,988,1007,507,,3,3,depth_discrimination_stimuli/000505_2014-06-08_23-03-23_260595134347_rgbf000091-resize_0/000505_2014-06-08_23-03-23_260595134347_rgbf000091-resize-original.jpg,2546,530603,749716,40
458757,DepthScenes,duration_discrimination,discrim_jsons/shuffled_g0_rotated_dr.json,http://54.89.209.186/DepthDuration/depth_discrimination_MTurk/DepthDiscrim_HTML.html#2,2,1686,821,1366,768,7-20-2021,12-9-48,75,,,,,,,2317,508,1007,988,1007,507,,5,3,depth_discrimination_stimuli/001650_2014-06-20_12-09-00_260595134347_rgbf000087-resize_3/001650_2014-06-20_12-09-00_260595134347_rgbf000087-resize-original.jpg,1792,530603,749716,40
458757,DepthScenes,duration_discrimination,discrim_jsons/shuffled_g0_rotated_dr.json,http://54.89.209.186/DepthDuration/depth_discrimination_MTurk/DepthDiscrim_HTML.html#2,2,1686,821,1366,768,7-20-2021,12-9-48,76,,,,,,,2317,508,1007,988,1007,507,,4,2,depth_discrimination_stimuli/001056_2014-06-08_18-46-44_260595134347_rgbf000068-resize_0/001056_2014-06-08_18-46-44_260595134347_rgbf000068-resize-original.jpg,2239,530603,749716,40
458757,DepthScenes,duration_discrimination,discrim_jsons/shuffled_g0_rotated_dr.json,http://54.89.209.186/DepthDuration/depth_discrimination_MTurk/DepthDiscrim_HTML.html#2,2,1686,821,1366,768,7-20-2021,12-9-48,77,,,,,,,2317,508,1007,988,1007,507,,3,4,depth_discrimination_stimuli/003129_2014-05-12_10-48-10_094959634447_rgbf000100-resize_0/003129_2014-05-12_10-48-10_094959634447_rgbf000100-resize-original.jpg,2280,530603,749716,40
458757,DepthScenes,duration_discrimination,discrim_jsons/shuffled_g0_rotated_dr.json,http://54.89.209.186/DepthDuration/depth_discrimination_MTurk/DepthDiscrim_HTML.html#2,2,1686,821,1366,768,7-20-2021,12-9-48,78,,,,,,,2317,508,1007,988,1007,507,,3,5,depth_discrimination_stimuli/002153_2014-06-25_21-27-18_260595134347_rgbf000038-resize_5/002153_2014-06-25_21-27-18_260595134347_rgbf000038-resize-original.jpg,2862,530603,749716,40
458757,DepthScenes,duration_discrimination,discrim_jsons/shuffled_g0_rotated_dr.json,http://54.89.209.186/DepthDuration/depth_discrimination_MTurk/DepthDiscrim_HTML.html#2,2,1686,821,1366,768,7-20-2021,12-9-48,79,,,,,,,2317,508,1007,988,1007,507,,3,2,depth_discrimination_stimuli/001167_2014-06-17_15-38-07_260595134347_rgbf000108-resize_0/001167_2014-06-17_15-38-07_260595134347_rgbf000108-resize-original.jpg,1736,530603,749716,40
458757,DepthScenes,duration_discrimination,discrim_jsons/shuffled_g0_rotated_dr.json,http://54.89.209.186/DepthDuration/depth_discrimination_MTurk/DepthDiscrim_HTML.html#2,2,1686,821,1366,768,7-20-2021,12-9-48,80,,,,,,,2317,508,1007,988,1007,507,,1,3,depth_discrimination_stimuli/002340_2014-06-28_20-05-46_260595134347_rgbf000113-resize_0/002340_2014-06-28_20-05-46_260595134347_rgbf000113-resize-original.jpg,2271,530603,749716,40
458757,DepthScenes,duration_discrimination,discrim_jsons/shuffled_g0_rotated_dr.json,http://54.89.209.186/DepthDuration/depth_discrimination_MTurk/DepthDiscrim_HTML.html#2,2,1686,821,1366,768,7-20-2021,12-9-48,81,,,,,,,2317,508,1007,988,1007,507,,4,3,depth_discrimination_stimuli/001516_2014-06-20_16-25-09_260595134347_rgbf000076-resize_2/001516_2014-06-20_16-25-09_260595134347_rgbf000076-resize-original.jpg,2535,530603,749716,40
458757,DepthScenes,duration_discrimination,discrim_jsons/shuffled_g0_rotated_dr.json,http://54.89.209.186/DepthDuration/depth_discrimination_MTurk/DepthDiscrim_HTML.html#2,2,1686,821,1366,768,7-20-2021,12-9-48,82,,,,,,,2317,508,1007,988,1007,507,,2,5,depth_discrimination_stimuli/002375_2014-06-28_20-13-44_260595134347_rgbf000032-resize_1/002375_2014-06-28_20-13-44_260595134347_rgbf000032-resize-original.jpg,2237,530603,749716,40
458757,DepthScenes,duration_discrimination,discrim_jsons/shuffled_g0_rotated_dr.json,http://54.89.209.186/DepthDuration/depth_discrimination_MTurk/DepthDiscrim_HTML.html#2,2,1686,821,1366,768,7-20-2021,12-9-48,83,,,,,,,2317,508,1007,988,1007,507,,4,2,depth_discrimination_stimuli/000137_2014-05-20_17-04-49_260595134347_rgbf000120-resize_1/000137_2014-05-20_17-04-49_260595134347_rgbf000120-resize-original.jpg,1970,530603,749716,40
458757,DepthScenes,duration_discrimination,discrim_jsons/shuffled_g0_rotated_dr.json,http://54.89.209.186/DepthDuration/depth_discrimination_MTurk/DepthDiscrim_HTML.html#2,2,1686,821,1366,768,7-20-2021,12-9-48,84,,,,,,,2317,508,1007,988,1007,507,,3,4,depth_discrimination_stimuli/000009_2014-05-26_14-32-05_260595134347_rgbf000034-resize_3/000009_2014-05-26_14-32-05_260595134347_rgbf000034-resize-original.jpg,1866,530603,749716,40
458757,DepthScenes,duration_discrimination,discrim_jsons/shuffled_g0_rotated_dr.json,http://54.89.209.186/DepthDuration/depth_discrimination_MTurk/DepthDiscrim_HTML.html#2,2,1686,821,1366,768,7-20-2021,12-9-48,85,,,,,,,2317,508,1007,988,1007,507,,3,3,depth_discrimination_stimuli/000691_2014-06-08_13-08-50_260595134347_rgbf000132-resize_3/000691_2014-06-08_13-08-50_260595134347_rgbf000132-resize-original.jpg,2007,530603,749716,40
458757,DepthScenes,duration_discrimination,discrim_jsons/shuffled_g0_rotated_dr.json,http://54.89.209.186/DepthDuration/depth_discrimination_MTurk/DepthDiscrim_HTML.html#2,2,1686,821,1366,768,7-20-2021,12-9-48,86,,,,,,,2317,508,1007,988,1007,507,,4,4,depth_discrimination_stimuli/000866_2014-06-09_20-45-42_260595134347_rgbf000139-resize_1/000866_2014-06-09_20-45-42_260595134347_rgbf000139-resize-original.jpg,1854,530603,749716,40
458757,DepthScenes,duration_discrimination,discrim_jsons/shuffled_g0_rotated_dr.json,http://54.89.209.186/DepthDuration/depth_discrimination_MTurk/DepthDiscrim_HTML.html#2,2,1686,821,1366,768,7-20-2021,12-9-48,87,,,,,,,2317,508,1007,988,1007,507,,3,2,depth_discrimination_stimuli/000927_2014-06-09_16-32-30_260595134347_rgbf000123-resize_3/000927_2014-06-09_16-32-30_260595134347_rgbf000123-resize-original.jpg,2505,530603,749716,40
458757,DepthScenes,duration_discrimination,discrim_jsons/shuffled_g0_rotated_dr.json,http://54.89.209.186/DepthDuration/depth_discrimination_MTurk/DepthDiscrim_HTML.html#2,2,1686,821,1366,768,7-20-2021,12-9-48,88,,,,,,,2317,508,1007,988,1007,507,,4,3,depth_discrimination_stimuli/001289_2014-06-16_16-25-52_260595134347_rgbf000067-resize_1/001289_2014-06-16_16-25-52_260595134347_rgbf000067-resize-original.jpg,1886,530603,749716,40
458757,DepthScenes,duration_discrimination,discrim_jsons/shuffled_g0_rotated_dr.json,http://54.89.209.186/DepthDuration/depth_discrimination_MTurk/DepthDiscrim_HTML.html#2,2,1686,821,1366,768,7-20-2021,12-9-48,89,,,,,,,2317,508,1007,988,1007,507,,4,1,depth_discrimination_stimuli/000502_2014-06-08_23-02-32_260595134347_rgbf000063-resize_4/000502_2014-06-08_23-02-32_260595134347_rgbf000063-resize-original.jpg,2370,530603,749716,40
458757,DepthScenes,duration_discrimination,discrim_jsons/shuffled_g0_rotated_dr.json,http://54.89.209.186/DepthDuration/depth_discrimination_MTurk/DepthDiscrim_HTML.html#2,2,1686,821,1366,768,7-20-2021,12-9-48,90,,,,,,,2317,508,1007,988,1007,507,,2,5,depth_discrimination_stimuli/000682_2014-06-08_23-14-58_260595134347_rgbf000041-resize_5/000682_2014-06-08_23-14-58_260595134347_rgbf000041-resize-original.jpg,1661,530603,749716,40
458757,DepthScenes,duration_discrimination,discrim_jsons/shuffled_g0_rotated_dr.json,http://54.89.209.186/DepthDuration/depth_discrimination_MTurk/DepthDiscrim_HTML.html#2,2,1686,821,1366,768,7-20-2021,12-9-48,91,,,,,,,2317,508,1007,988,1007,507,,4,3,depth_discrimination_stimuli/001132_2014-06-17_14-48-54_260595134347_rgbf000100-resize_2/001132_2014-06-17_14-48-54_260595134347_rgbf000100-resize-original.jpg,2184,530603,749716,40
458757,DepthScenes,duration_discrimination,discrim_jsons/shuffled_g0_rotated_dr.json,http://54.89.209.186/DepthDuration/depth_discrimination_MTurk/DepthDiscrim_HTML.html#2,2,1686,821,1366,768,7-20-2021,12-9-48,92,,,,,,,2317,508,1007,988,1007,507,,4,3,depth_discrimination_stimuli/002988_2014-06-15_12-24-20_094959634447_rgbf000150-resize_1/002988_2014-06-15_12-24-20_094959634447_rgbf000150-resize-original.jpg,2949,530603,749716,40
458757,DepthScenes,duration_discrimination,discrim_jsons/shuffled_g0_rotated_dr.json,http://54.89.209.186/DepthDuration/depth_discrimination_MTurk/DepthDiscrim_HTML.html#2,2,1686,821,1366,768,7-20-2021,12-9-48,93,,,,,,,2317,508,1007,988,1007,507,,4,2,depth_discrimination_stimuli/002949_2014-06-26_15-57-42_094959634447_rgbf000079-resize_1/002949_2014-06-26_15-57-42_094959634447_rgbf000079-resize-original.jpg,2056,530603,749716,40
458757,DepthScenes,duration_discrimination,discrim_jsons/shuffled_g0_rotated_dr.json,http://54.89.209.186/DepthDuration/depth_discrimination_MTurk/DepthDiscrim_HTML.html#2,2,1686,821,1366,768,7-20-2021,12-9-48,94,,,,,,,2317,508,1007,988,1007,507,,3,5,depth_discrimination_stimuli/000739_2014-06-08_18-45-58_260595134347_rgbf000068-resize_1/000739_2014-06-08_18-45-58_260595134347_rgbf000068-resize-original.jpg,1697,530603,749716,40
458757,DepthScenes,duration_discrimination,discrim_jsons/shuffled_g0_rotated_dr.json,http://54.89.209.186/DepthDuration/depth_discrimination_MTurk/DepthDiscrim_HTML.html#2,2,1686,821,1366,768,7-20-2021,12-9-48,95,,,,,,,2317,508,1007,988,1007,507,,4,3,depth_discrimination_stimuli/000642_2014-06-08_16-59-25_260595134347_rgbf000098-resize_2/000642_2014-06-08_16-59-25_260595134347_rgbf000098-resize-original.jpg,1527,530603,749716,40
458757,DepthScenes,duration_discrimination,discrim_jsons/shuffled_g0_rotated_dr.json,http://54.89.209.186/DepthDuration/depth_discrimination_MTurk/DepthDiscrim_HTML.html#2,2,1686,821,1366,768,7-20-2021,12-9-48,96,,,,,,,2317,508,1007,988,1007,507,,2,3,depth_discrimination_stimuli/002199_2014-06-28_18-33-56_260595134347_rgbf000074-resize_0/002199_2014-06-28_18-33-56_260595134347_rgbf000074-resize-original.jpg,1535,530603,749716,40
458757,DepthScenes,duration_discrimination,discrim_jsons/shuffled_g0_rotated_dr.json,http://54.89.209.186/DepthDuration/depth_discrimination_MTurk/DepthDiscrim_HTML.html#2,2,1686,821,1366,768,7-20-2021,12-9-48,97,,,,,,,2317,508,1007,988,1007,507,,1,4,depth_discrimination_stimuli/001011_2014-06-08_23-18-54_260595134347_rgbf000044-resize_4/001011_2014-06-08_23-18-54_260595134347_rgbf000044-resize-original.jpg,2396,530603,749716,40
458757,DepthScenes,duration_discrimination,discrim_jsons/shuffled_g0_rotated_dr.json,http://54.89.209.186/DepthDuration/depth_discrimination_MTurk/DepthDiscrim_HTML.html#2,2,1686,821,1366,768,7-20-2021,12-9-48,98,,,,,,,2317,508,1007,988,1007,507,,5,3,depth_discrimination_stimuli/000929_2014-06-09_16-33-19_260595134347_rgbf000139-resize_0/000929_2014-06-09_16-33-19_260595134347_rgbf000139-resize-original.jpg,1961,530603,749716,40
458757,DepthScenes,duration_discrimination,discrim_jsons/shuffled_g0_rotated_dr.json,http://54.89.209.186/DepthDuration/depth_discrimination_MTurk/DepthDiscrim_HTML.html#2,2,1686,821,1366,768,7-20-2021,12-9-48,99,,,,,,,2317,508,1007,988,1007,507,,4,2,depth_discrimination_stimuli/002468_2014-06-28_20-38-39_260595134347_rgbf000045-resize_1/002468_2014-06-28_20-38-39_260595134347_rgbf000045-resize-original.jpg,1577,530603,749716,40
458757,DepthScenes,duration_discrimination,discrim_jsons/shuffled_g0_rotated_dr.json,http://54.89.209.186/DepthDuration/depth_discrimination_MTurk/DepthDiscrim_HTML.html#2,2,1686,821,1366,768,7-20-2021,12-9-48,100,,,,,,,2317,508,1007,988,1007,507,,5,4,scene_property_catch_stimuli/sun_bpzzatthlcapxzol.jpg,1834,530603,749716,40
458757,DepthScenes,duration_discrimination,discrim_jsons/shuffled_g0_rotated_dr.json,http://54.89.209.186/DepthDuration/depth_discrimination_MTurk/DepthDiscrim_HTML.html#2,2,1686,821,1366,768,7-20-2021,12-9-48,101,,,,,,,2317,508,1007,988,1007,507,,3,3,depth_discrimination_stimuli/000735_2014-06-08_18-23-50_260595134347_rgbf000163-resize_2/000735_2014-06-08_18-23-50_260595134347_rgbf000163-resize-original.jpg,2030,530603,749716,40
458757,DepthScenes,duration_discrimination,discrim_jsons/shuffled_g0_rotated_dr.json,http://54.89.209.186/DepthDuration/depth_discrimination_MTurk/DepthDiscrim_HTML.html#2,2,1686,821,1366,768,7-20-2021,12-9-48,102,,,,,,,2317,508,1007,988,1007,507,,3,4,depth_discrimination_stimuli/000522_2014-06-08_13-35-06_260595134347_rgbf000244-resize_1/000522_2014-06-08_13-35-06_260595134347_rgbf000244-resize-original.jpg,1319,530603,749716,40
458757,DepthScenes,duration_discrimination,discrim_jsons/shuffled_g0_rotated_dr.json,http://54.89.209.186/DepthDuration/depth_discrimination_MTurk/DepthDiscrim_HTML.html#2,2,1686,821,1366,768,7-20-2021,12-9-48,103,,,,,,,2317,508,1007,988,1007,507,,4,4,depth_discrimination_stimuli/002600_2014-06-24_14-27-04_094959634447_rgbf000074-resize_2/002600_2014-06-24_14-27-04_094959634447_rgbf000074-resize-original.jpg,744,530603,749716,40
458757,DepthScenes,duration_discrimination,discrim_jsons/shuffled_g0_rotated_dr.json,http://54.89.209.186/DepthDuration/depth_discrimination_MTurk/DepthDiscrim_HTML.html#2,2,1686,821,1366,768,7-20-2021,12-9-48,104,,,,,,,2317,508,1007,988,1007,507,,3,2,depth_discrimination_stimuli/001029_2014-06-08_13-17-57_260595134347_rgbf000065-resize_1/001029_2014-06-08_13-17-57_260595134347_rgbf000065-resize-original.jpg,1199,530603,749716,40
458757,DepthScenes,duration_discrimination,discrim_jsons/shuffled_g0_rotated_dr.json,http://54.89.209.186/DepthDuration/depth_discrimination_MTurk/DepthDiscrim_HTML.html#2,2,1686,821,1366,768,7-20-2021,12-9-48,105,,,,,,,2317,508,1007,988,1007,507,,2,3,depth_discrimination_stimuli/000549_2014-06-08_22-10-24_260595134347_rgbf000247-resize_3/000549_2014-06-08_22-10-24_260595134347_rgbf000247-resize-original.jpg,827,530603,749716,40
458757,DepthScenes,duration_discrimination,discrim_jsons/shuffled_g0_rotated_dr.json,http://54.89.209.186/DepthDuration/depth_discrimination_MTurk/DepthDiscrim_HTML.html#2,2,1686,821,1366,768,7-20-2021,12-9-48,106,,,,,,,2317,508,1007,988,1007,507,,3,5,depth_discrimination_stimuli/000736_2014-06-08_18-24-15_260595134347_rgbf000206-resize_3/000736_2014-06-08_18-24-15_260595134347_rgbf000206-resize-original.jpg,772,530603,749716,40
458757,DepthScenes,duration_discrimination,discrim_jsons/shuffled_g0_rotated_dr.json,http://54.89.209.186/DepthDuration/depth_discrimination_MTurk/DepthDiscrim_HTML.html#2,2,1686,821,1366,768,7-20-2021,12-9-48,107,,,,,,,2317,508,1007,988,1007,507,,5,1,depth_discrimination_stimuli/002460_2014-06-28_20-35-43_260595134347_rgbf000028-resize_4/002460_2014-06-28_20-35-43_260595134347_rgbf000028-resize-original.jpg,1376,530603,749716,40
458757,DepthScenes,duration_discrimination,discrim_jsons/shuffled_g0_rotated_dr.json,http://54.89.209.186/DepthDuration/depth_discrimination_MTurk/DepthDiscrim_HTML.html#2,2,1686,821,1366,768,7-20-2021,12-9-48,108,,,,,,,2317,508,1007,988,1007,507,,1,2,depth_discrimination_stimuli/000436_2014-06-09_22-25-11_260595134347_rgbf000137-resize_1/000436_2014-06-09_22-25-11_260595134347_rgbf000137-resize-original.jpg,824,530603,749716,40
458757,DepthScenes,duration_discrimination,discrim_jsons/shuffled_g0_rotated_dr.json,http://54.89.209.186/DepthDuration/depth_discrimination_MTurk/DepthDiscrim_HTML.html#2,2,1686,821,1366,768,7-20-2021,12-9-48,109,,,,,,,2317,508,1007,988,1007,507,,3,3,depth_discrimination_stimuli/003490_2014-05-21_15-50-11_094959634447_rgbf000101-resize_3/003490_2014-05-21_15-50-11_094959634447_rgbf000101-resize-original.jpg,1368,530603,749716,40
458757,DepthScenes,duration_discrimination,discrim_jsons/shuffled_g0_rotated_dr.json,http://54.89.209.186/DepthDuration/depth_discrimination_MTurk/DepthDiscrim_HTML.html#2,2,1686,821,1366,768,7-20-2021,12-9-48,110,,,,,,,2317,508,1007,988,1007,507,,4,4,depth_discrimination_stimuli/001724_2014-06-26_19-28-50_260595134347_rgbf000037-resize_7/001724_2014-06-26_19-28-50_260595134347_rgbf000037-resize-original.jpg,551,530603,749716,40
458757,DepthScenes,duration_discrimination,discrim_jsons/shuffled_g0_rotated_dr.json,http://54.89.209.186/DepthDuration/depth_discrimination_MTurk/DepthDiscrim_HTML.html#2,2,1686,821,1366,768,7-20-2021,12-9-48,111,,,,,,,2317,508,1007,988,1007,507,,5,4,depth_discrimination_stimuli/003621_2014-05-23_18-06-08_094959634447_rgbf000101-resize_1/003621_2014-05-23_18-06-08_094959634447_rgbf000101-resize-original.jpg,928,530603,749716,40
458757,DepthScenes,duration_discrimination,discrim_jsons/shuffled_g0_rotated_dr.json,http://54.89.209.186/DepthDuration/depth_discrimination_MTurk/DepthDiscrim_HTML.html#2,2,1686,821,1366,768,7-20-2021,12-9-48,112,,,,,,,2317,508,1007,988,1007,507,,3,3,depth_discrimination_stimuli/001532_2014-06-20_16-50-41_260595134347_rgbf000081-resize_4/001532_2014-06-20_16-50-41_260595134347_rgbf000081-resize-original.jpg,1402,530603,749716,40
458757,DepthScenes,duration_discrimination,discrim_jsons/shuffled_g0_rotated_dr.json,http://54.89.209.186/DepthDuration/depth_discrimination_MTurk/DepthDiscrim_HTML.html#2,2,1686,821,1366,768,7-20-2021,12-9-48,113,,,,,,,2317,508,1007,988,1007,507,,3,2,depth_discrimination_stimuli/001235_2014-06-17_16-37-36_260595134347_rgbf000084-resize_4/001235_2014-06-17_16-37-36_260595134347_rgbf000084-resize-original.jpg,741,530603,749716,40
458757,DepthScenes,duration_discrimination,discrim_jsons/shuffled_g0_rotated_dr.json,http://54.89.209.186/DepthDuration/depth_discrimination_MTurk/DepthDiscrim_HTML.html#2,2,1686,821,1366,768,7-20-2021,12-9-48,114,,,,,,,2317,508,1007,988,1007,507,,2,1,depth_discrimination_stimuli/000414_2014-06-04_19-49-13_260595134347_rgbf000044-resize_0/000414_2014-06-04_19-49-13_260595134347_rgbf000044-resize-original.jpg,840,530603,749716,40
458757,DepthScenes,duration_discrimination,discrim_jsons/shuffled_g0_rotated_dr.json,http://54.89.209.186/DepthDuration/depth_discrimination_MTurk/DepthDiscrim_HTML.html#2,2,1686,821,1366,768,7-20-2021,12-9-48,115,,,,,,,2317,508,1007,988,1007,507,,1,3,depth_discrimination_stimuli/002748_2014-06-22_19-07-22_094959634447_rgbf000078-resize_1/002748_2014-06-22_19-07-22_094959634447_rgbf000078-resize-original.jpg,711,530603,749716,40
458757,DepthScenes,duration_discrimination,discrim_jsons/shuffled_g0_rotated_dr.json,http://54.89.209.186/DepthDuration/depth_discrimination_MTurk/DepthDiscrim_HTML.html#2,2,1686,821,1366,768,7-20-2021,12-9-48,116,,,,,,,2317,508,1007,988,1007,507,,4,5,depth_discrimination_stimuli/000486_2014-06-09_20-47-20_260595134347_rgbf000143-resize_2/000486_2014-06-09_20-47-20_260595134347_rgbf000143-resize-original.jpg,1024,530603,749716,40
458757,DepthScenes,duration_discrimination,discrim_jsons/shuffled_g0_rotated_dr.json,http://54.89.209.186/DepthDuration/depth_discrimination_MTurk/DepthDiscrim_HTML.html#2,2,1686,821,1366,768,7-20-2021,12-9-48,117,,,,,,,2317,508,1007,988,1007,507,,4,3,depth_discrimination_stimuli/000521_2014-06-08_13-34-35_260595134347_rgbf000191-resize_2/000521_2014-06-08_13-34-35_260595134347_rgbf000191-resize-original.jpg,983,530603,749716,40
458757,DepthScenes,duration_discrimination,discrim_jsons/shuffled_g0_rotated_dr.json,http://54.89.209.186/DepthDuration/depth_discrimination_MTurk/DepthDiscrim_HTML.html#2,2,1686,821,1366,768,7-20-2021,12-9-48,118,,,,,,,2317,508,1007,988,1007,507,,2,3,depth_discrimination_stimuli/003587_2014-05-23_16-48-02_094959634447_rgbf002384-resize_2/003587_2014-05-23_16-48-02_094959634447_rgbf002384-resize-original.jpg,837,530603,749716,40
458757,DepthScenes,duration_discrimination,discrim_jsons/shuffled_g0_rotated_dr.json,http://54.89.209.186/DepthDuration/depth_discrimination_MTurk/DepthDiscrim_HTML.html#2,2,1686,821,1366,768,7-20-2021,12-9-48,119,,,,,,,2317,508,1007,988,1007,507,,4,1,depth_discrimination_stimuli/002637_2014-06-24_14-51-13_094959634447_rgbf000066-resize_4/002637_2014-06-24_14-51-13_094959634447_rgbf000066-resize-original.jpg,1637,530603,749716,40
458757,DepthScenes,duration_discrimination,discrim_jsons/shuffled_g0_rotated_dr.json,http://54.89.209.186/DepthDuration/depth_discrimination_MTurk/DepthDiscrim_HTML.html#2,2,1686,821,1366,768,7-20-2021,12-9-48,120,,,,,,,2317,508,1007,988,1007,507,,2,3,depth_discrimination_stimuli/002790_2014-06-22_19-36-35_094959634447_rgbf000074-resize_4/002790_2014-06-22_19-36-35_094959634447_rgbf000074-resize-original.jpg,852,530603,749716,40
458757,DepthScenes,duration_discrimination,discrim_jsons/shuffled_g0_rotated_dr.json,http://54.89.209.186/DepthDuration/depth_discrimination_MTurk/DepthDiscrim_HTML.html#2,2,1686,821,1366,768,7-20-2021,12-9-48,121,,,,,,,2317,508,1007,988,1007,507,,4,4,depth_discrimination_stimuli/002678_2014-06-13_16-15-32_094959634447_rgbf000151-resize_6/002678_2014-06-13_16-15-32_094959634447_rgbf000151-resize-original.jpg,593,530603,749716,40
458757,DepthScenes,duration_discrimination,discrim_jsons/shuffled_g0_rotated_dr.json,http://54.89.209.186/DepthDuration/depth_discrimination_MTurk/DepthDiscrim_HTML.html#2,2,1686,821,1366,768,7-20-2021,12-9-48,122,,,,,,,2317,508,1007,988,1007,507,,3,3,depth_discrimination_stimuli/000830_2014-06-04_19-49-31_260595134347_rgbf000096-resize_2/000830_2014-06-04_19-49-31_260595134347_rgbf000096-resize-original.jpg,688,530603,749716,40
458757,DepthScenes,duration_discrimination,discrim_jsons/shuffled_g0_rotated_dr.json,http://54.89.209.186/DepthDuration/depth_discrimination_MTurk/DepthDiscrim_HTML.html#2,2,1686,821,1366,768,7-20-2021,12-9-48,123,,,,,,,2317,508,1007,988,1007,507,,5,3,depth_discrimination_stimuli/000409_2014-06-04_19-23-33_260595134347_rgbf000067-resize_0/000409_2014-06-04_19-23-33_260595134347_rgbf000067-resize-original.jpg,954,530603,749716,40
458757,DepthScenes,duration_discrimination,discrim_jsons/shuffled_g0_rotated_dr.json,http://54.89.209.186/DepthDuration/depth_discrimination_MTurk/DepthDiscrim_HTML.html#2,2,1686,821,1366,768,7-20-2021,12-9-48,124,,,,,,,2317,508,1007,988,1007,507,,3,2,depth_discrimination_stimuli/002788_2014-06-22_19-36-03_094959634447_rgbf000088-resize_2/002788_2014-06-22_19-36-03_094959634447_rgbf000088-resize-original.jpg,662,530603,749716,40
458757,DepthScenes,duration_discrimination,discrim_jsons/shuffled_g0_rotated_dr.json,http://54.89.209.186/DepthDuration/depth_discrimination_MTurk/DepthDiscrim_HTML.html#2,2,1686,821,1366,768,7-20-2021,12-9-48,125,,,,,,,2317,508,1007,988,1007,507,,3,2,depth_discrimination_stimuli/002414_2014-06-28_20-24-58_260595134347_rgbf000067-resize_4/002414_2014-06-28_20-24-58_260595134347_rgbf000067-resize-original.jpg,1559,530603,749716,40
458757,DepthScenes,duration_discrimination,discrim_jsons/shuffled_g0_rotated_dr.json,http://54.89.209.186/DepthDuration/depth_discrimination_MTurk/DepthDiscrim_HTML.html#2,2,1686,821,1366,768,7-20-2021,12-9-48,126,,,,,,,2317,508,1007,988,1007,507,,3,2,depth_discrimination_stimuli/002989_2014-06-15_12-25-03_094959634447_rgbf000150-resize_3/002989_2014-06-15_12-25-03_094959634447_rgbf000150-resize-original.jpg,1009,530603,749716,40
458757,DepthScenes,duration_discrimination,discrim_jsons/shuffled_g0_rotated_dr.json,http://54.89.209.186/DepthDuration/depth_discrimination_MTurk/DepthDiscrim_HTML.html#2,2,1686,821,1366,768,7-20-2021,12-9-48,127,,,,,,,2317,508,1007,988,1007,507,,2,3,depth_discrimination_stimuli/000368_2014-06-09_15-53-01_260595134347_rgbf000155-resize_2/000368_2014-06-09_15-53-01_260595134347_rgbf000155-resize-original.jpg,591,530603,749716,40
458757,DepthScenes,duration_discrimination,discrim_jsons/shuffled_g0_rotated_dr.json,http://54.89.209.186/DepthDuration/depth_discrimination_MTurk/DepthDiscrim_HTML.html#2,2,1686,821,1366,768,7-20-2021,12-9-48,128,,,,,,,2317,508,1007,988,1007,507,,1,1,depth_discrimination_stimuli/003546_2014-05-22_15-48-53_094959634447_rgbf004816-resize_3/003546_2014-05-22_15-48-53_094959634447_rgbf004816-resize-original.jpg,775,530603,749716,40
458757,DepthScenes,duration_discrimination,discrim_jsons/shuffled_g0_rotated_dr.json,http://54.89.209.186/DepthDuration/depth_discrimination_MTurk/DepthDiscrim_HTML.html#2,2,1686,821,1366,768,7-20-2021,12-9-48,129,,,,,,,2317,508,1007,988,1007,507,,4,3,depth_discrimination_stimuli/002875_2014-06-01_15-19-00_094959634447_rgbf000151-resize_1/002875_2014-06-01_15-19-00_094959634447_rgbf000151-resize-original.jpg,1113,530603,749716,40
458757,DepthScenes,duration_discrimination,discrim_jsons/shuffled_g0_rotated_dr.json,http://54.89.209.186/DepthDuration/depth_discrimination_MTurk/DepthDiscrim_HTML.html#2,2,1686,821,1366,768,7-20-2021,12-9-48,130,,,,,,,2317,508,1007,988,1007,507,,3,4,depth_discrimination_stimuli/002279_2014-06-28_18-55-32_260595134347_rgbf000040-resize_5/002279_2014-06-28_18-55-32_260595134347_rgbf000040-resize-original.jpg,742,530603,749716,40
458757,DepthScenes,duration_discrimination,discrim_jsons/shuffled_g0_rotated_dr.json,http://54.89.209.186/DepthDuration/depth_discrimination_MTurk/DepthDiscrim_HTML.html#2,2,1686,821,1366,768,7-20-2021,12-9-48,131,,,,,,,2317,508,1007,988,1007,507,,5,4,depth_discrimination_stimuli/001100_2014-06-15_17-46-26_260595134347_rgbf000225-resize_2/001100_2014-06-15_17-46-26_260595134347_rgbf000225-resize-original.jpg,801,530603,749716,40
458757,DepthScenes,duration_discrimination,discrim_jsons/shuffled_g0_rotated_dr.json,http://54.89.209.186/DepthDuration/depth_discrimination_MTurk/DepthDiscrim_HTML.html#2,2,1686,821,1366,768,7-20-2021,12-9-48,132,,,,,,,2317,508,1007,988,1007,507,,3,3,depth_discrimination_stimuli/002630_2014-06-24_14-47-50_094959634447_rgbf000055-resize_1/002630_2014-06-24_14-47-50_094959634447_rgbf000055-resize-original.jpg,631,530603,749716,40
458757,DepthScenes,duration_discrimination,discrim_jsons/shuffled_g0_rotated_dr.json,http://54.89.209.186/DepthDuration/depth_discrimination_MTurk/DepthDiscrim_HTML.html#2,2,1686,821,1366,768,7-20-2021,12-9-48,133,,,,,,,2317,508,1007,988,1007,507,,2,3,depth_discrimination_stimuli/002136_2014-06-25_21-18-03_260595134347_rgbf000109-resize_3/002136_2014-06-25_21-18-03_260595134347_rgbf000109-resize-original.jpg,1072,530603,749716,40
458757,DepthScenes,duration_discrimination,discrim_jsons/shuffled_g0_rotated_dr.json,http://54.89.209.186/DepthDuration/depth_discrimination_MTurk/DepthDiscrim_HTML.html#2,2,1686,821,1366,768,7-20-2021,12-9-48,134,,,,,,,2317,508,1007,988,1007,507,,2,3,depth_discrimination_stimuli/002758_2014-06-22_19-11-20_094959634447_rgbf000128-resize_1/002758_2014-06-22_19-11-20_094959634447_rgbf000128-resize-original.jpg,1207,530603,749716,40
458757,DepthScenes,duration_discrimination,discrim_jsons/shuffled_g0_rotated_dr.json,http://54.89.209.186/DepthDuration/depth_discrimination_MTurk/DepthDiscrim_HTML.html#2,2,1686,821,1366,768,7-20-2021,12-9-48,135,,,,,,,2317,508,1007,988,1007,507,,4,4,depth_discrimination_stimuli/001110_2014-06-15_17-25-28_260595134347_rgbf000150-resize_1/001110_2014-06-15_17-25-28_260595134347_rgbf000150-resize-original.jpg,3433,530603,749716,40
458757,DepthScenes,duration_discrimination,discrim_jsons/shuffled_g0_rotated_dr.json,http://54.89.209.186/DepthDuration/depth_discrimination_MTurk/DepthDiscrim_HTML.html#2,2,1686,821,1366,768,7-20-2021,12-9-48,136,,,,,,,2317,508,1007,988,1007,507,,4,4,depth_discrimination_stimuli/003083_2014-06-15_15-21-03_094959634447_rgbf000063-resize_1/003083_2014-06-15_15-21-03_094959634447_rgbf000063-resize-original.jpg,1071,530603,749716,40
458757,DepthScenes,duration_discrimination,discrim_jsons/shuffled_g0_rotated_dr.json,http://54.89.209.186/DepthDuration/depth_discrimination_MTurk/DepthDiscrim_HTML.html#2,2,1686,821,1366,768,7-20-2021,12-9-48,137,,,,,,,2317,508,1007,988,1007,507,,3,4,depth_discrimination_stimuli/001199_2014-06-17_16-03-48_260595134347_rgbf000077-resize_0/001199_2014-06-17_16-03-48_260595134347_rgbf000077-resize-original.jpg,969,530603,749716,40
458757,DepthScenes,duration_discrimination,discrim_jsons/shuffled_g0_rotated_dr.json,http://54.89.209.186/DepthDuration/depth_discrimination_MTurk/DepthDiscrim_HTML.html#2,2,1686,821,1366,768,7-20-2021,12-9-48,138,,,,,,,2317,508,1007,988,1007,507,,3,4,depth_discrimination_stimuli/000780_2014-06-08_22-28-29_260595134347_rgbf000126-resize_1/000780_2014-06-08_22-28-29_260595134347_rgbf000126-resize-original.jpg,670,530603,749716,40
458757,DepthScenes,duration_discrimination,discrim_jsons/shuffled_g0_rotated_dr.json,http://54.89.209.186/DepthDuration/depth_discrimination_MTurk/DepthDiscrim_HTML.html#2,2,1686,821,1366,768,7-20-2021,12-9-48,139,,,,,,,2317,508,1007,988,1007,507,,2,3,depth_discrimination_stimuli/000800_2014-06-08_22-42-09_260595134347_rgbf000095-resize_3/000800_2014-06-08_22-42-09_260595134347_rgbf000095-resize-original.jpg,1224,530603,749716,40
458757,DepthScenes,duration_discrimination,discrim_jsons/shuffled_g0_rotated_dr.json,http://54.89.209.186/DepthDuration/depth_discrimination_MTurk/DepthDiscrim_HTML.html#2,2,1686,821,1366,768,7-20-2021,12-9-48,140,,,,,,,2317,508,1007,988,1007,507,,4,5,depth_discrimination_stimuli/003228_2014-05-14_13-42-35_094959634447_rgbf000101-resize_1/003228_2014-05-14_13-42-35_094959634447_rgbf000101-resize-original.jpg,736,530603,749716,40
458757,DepthScenes,duration_discrimination,discrim_jsons/shuffled_g0_rotated_dr.json,http://54.89.209.186/DepthDuration/depth_discrimination_MTurk/DepthDiscrim_HTML.html#2,2,1686,821,1366,768,7-20-2021,12-9-48,141,,,,,,,2317,508,1007,988,1007,507,,4,3,depth_discrimination_stimuli/002103_2014-06-25_20-00-40_260595134347_rgbf000049-resize_0/002103_2014-06-25_20-00-40_260595134347_rgbf000049-resize-original.jpg,985,530603,749716,40
458757,DepthScenes,duration_discrimination,discrim_jsons/shuffled_g0_rotated_dr.json,http://54.89.209.186/DepthDuration/depth_discrimination_MTurk/DepthDiscrim_HTML.html#2,2,1686,821,1366,768,7-20-2021,12-9-48,142,,,,,,,2317,508,1007,988,1007,507,,3,5,depth_discrimination_stimuli/003288_2014-05-14_21-50-30_094959634447_rgbf000028-resize_3/003288_2014-05-14_21-50-30_094959634447_rgbf000028-resize-original.jpg,1806,530603,749716,40
458757,DepthScenes,duration_discrimination,discrim_jsons/shuffled_g0_rotated_dr.json,http://54.89.209.186/DepthDuration/depth_discrimination_MTurk/DepthDiscrim_HTML.html#2,2,1686,821,1366,768,7-20-2021,12-9-48,143,,,,,,,2317,508,1007,988,1007,507,,4,3,depth_discrimination_stimuli/001570_2014-06-20_17-21-09_260595134347_rgbf000135-resize_4/001570_2014-06-20_17-21-09_260595134347_rgbf000135-resize-original.jpg,949,530603,749716,40
458757,DepthScenes,duration_discrimination,discrim_jsons/shuffled_g0_rotated_dr.json,http://54.89.209.186/DepthDuration/depth_discrimination_MTurk/DepthDiscrim_HTML.html#2,2,1686,821,1366,768,7-20-2021,12-9-48,144,,,,,,,2317,508,1007,988,1007,507,,4,5,depth_discrimination_stimuli/001066_2014-06-08_22-03-20_260595134347_rgbf000066-resize_4/001066_2014-06-08_22-03-20_260595134347_rgbf000066-resize-original.jpg,957,530603,749716,40
458757,DepthScenes,duration_discrimination,discrim_jsons/shuffled_g0_rotated_dr.json,http://54.89.209.186/DepthDuration/depth_discrimination_MTurk/DepthDiscrim_HTML.html#2,2,1686,821,1366,768,7-20-2021,12-9-48,145,,,,,,,2317,508,1007,988,1007,507,,4,2,depth_discrimination_stimuli/000457_2014-06-08_16-52-43_260595134347_rgbf000199-resize_1/000457_2014-06-08_16-52-43_260595134347_rgbf000199-resize-original.jpg,1128,530603,749716,40
458757,DepthScenes,duration_discrimination,discrim_jsons/shuffled_g0_rotated_dr.json,http://54.89.209.186/DepthDuration/depth_discrimination_MTurk/DepthDiscrim_HTML.html#2,2,1686,821,1366,768,7-20-2021,12-9-48,146,,,,,,,2317,508,1007,988,1007,507,,2,3,depth_discrimination_stimuli/002131_2014-06-25_21-12-01_260595134347_rgbf000083-resize_0/002131_2014-06-25_21-12-01_260595134347_rgbf000083-resize-original.jpg,605,530603,749716,40
458757,DepthScenes,duration_discrimination,discrim_jsons/shuffled_g0_rotated_dr.json,http://54.89.209.186/DepthDuration/depth_discrimination_MTurk/DepthDiscrim_HTML.html#2,2,1686,821,1366,768,7-20-2021,12-9-48,147,,,,,,,2317,508,1007,988,1007,507,,4,3,scene_property_catch_stimuli/000675_2014-06-08_22-59-18_260595134347_rgbf000096-resize.jpg,801,530603,749716,40
458757,DepthScenes,duration_discrimination,discrim_jsons/shuffled_g0_rotated_dr.json,http://54.89.209.186/DepthDuration/depth_discrimination_MTurk/DepthDiscrim_HTML.html#2,2,1686,821,1366,768,7-20-2021,12-9-48,148,,,,,,,2317,508,1007,988,1007,507,,4,3,depth_discrimination_stimuli/000665_2014-06-09_20-42-35_260595134347_rgbf000110-resize_1/000665_2014-06-09_20-42-35_260595134347_rgbf000110-resize-original.jpg,948,530603,749716,40
458757,DepthScenes,duration_discrimination,discrim_jsons/shuffled_g0_rotated_dr.json,http://54.89.209.186/DepthDuration/depth_discrimination_MTurk/DepthDiscrim_HTML.html#2,2,1686,821,1366,768,7-20-2021,12-9-48,149,,,,,,,2317,508,1007,988,1007,507,,4,3,depth_discrimination_stimuli/000677_2014-06-08_23-10-32_260595134347_rgbf000158-resize_6/000677_2014-06-08_23-10-32_260595134347_rgbf000158-resize-original.jpg,1022,530603,749716,40
458757,DepthScenes,duration_discrimination,discrim_jsons/shuffled_g0_rotated_dr.json,http://54.89.209.186/DepthDuration/depth_discrimination_MTurk/DepthDiscrim_HTML.html#2,2,1686,821,1366,768,7-20-2021,12-9-48,150,,,,,,,2317,508,1007,988,1007,507,,4,5,depth_discrimination_stimuli/001264_2014-06-16_16-10-23_260595134347_rgbf000109-resize_1/001264_2014-06-16_16-10-23_260595134347_rgbf000109-resize-original.jpg,902,530603,749716,40
458757,DepthScenes,duration_discrimination,discrim_jsons/shuffled_g0_rotated_dr.json,http://54.89.209.186/DepthDuration/depth_discrimination_MTurk/DepthDiscrim_HTML.html#2,2,1686,821,1366,768,7-20-2021,12-9-48,151,,,,,,,2317,508,1007,988,1007,507,,5,4,depth_discrimination_stimuli/001417_2014-06-19_16-25-36_260595134347_rgbf000115-resize_5/001417_2014-06-19_16-25-36_260595134347_rgbf000115-resize-original.jpg,639,530603,749716,40
458757,DepthScenes,duration_discrimination,discrim_jsons/shuffled_g0_rotated_dr.json,http://54.89.209.186/DepthDuration/depth_discrimination_MTurk/DepthDiscrim_HTML.html#2,2,1686,821,1366,768,7-20-2021,12-9-48,152,,,,,,,2317,508,1007,988,1007,507,,3,2,scene_property_catch_stimuli/sun_aatxlublfjchvvzu.jpg,817,530603,749716,40
458757,DepthScenes,duration_discrimination,discrim_jsons/shuffled_g0_rotated_dr.json,http://54.89.209.186/DepthDuration/depth_discrimination_MTurk/DepthDiscrim_HTML.html#2,2,1686,821,1366,768,7-20-2021,12-9-48,153,,,,,,,2317,508,1007,988,1007,507,,2,3,depth_discrimination_stimuli/001244_2014-06-17_16-47-45_260595134347_rgbf000030-resize_4/001244_2014-06-17_16-47-45_260595134347_rgbf000030-resize-original.jpg,657,530603,749716,40
458757,DepthScenes,duration_discrimination,discrim_jsons/shuffled_g0_rotated_dr.json,http://54.89.209.186/DepthDuration/depth_discrimination_MTurk/DepthDiscrim_HTML.html#2,2,1686,821,1366,768,7-20-2021,12-9-48,154,,,,,,,2317,508,1007,988,1007,507,,4,4,depth_discrimination_stimuli/000869_2014-06-09_20-50-18_260595134347_rgbf000060-resize_3/000869_2014-06-09_20-50-18_260595134347_rgbf000060-resize-original.jpg,862,530603,749716,40
458757,DepthScenes,duration_discrimination,discrim_jsons/shuffled_g0_rotated_dr.json,http://54.89.209.186/DepthDuration/depth_discrimination_MTurk/DepthDiscrim_HTML.html#2,2,1686,821,1366,768,7-20-2021,12-9-48,155,,,,,,,2317,508,1007,988,1007,507,,4,4,depth_discrimination_stimuli/001808_2014-06-26_20-50-58_260595134347_rgbf000029-resize_1/001808_2014-06-26_20-50-58_260595134347_rgbf000029-resize-original.jpg,592,530603,749716,40
458757,DepthScenes,duration_discrimination,discrim_jsons/shuffled_g0_rotated_dr.json,http://54.89.209.186/DepthDuration/depth_discrimination_MTurk/DepthDiscrim_HTML.html#2,2,1686,821,1366,768,7-20-2021,12-9-48,156,,,,,,,2317,508,1007,988,1007,507,,4,4,depth_discrimination_stimuli/002305_2014-06-28_19-56-50_260595134347_rgbf000102-resize_7/002305_2014-06-28_19-56-50_260595134347_rgbf000102-resize-original.jpg,498,530603,749716,40
458757,DepthScenes,duration_discrimination,discrim_jsons/shuffled_g0_rotated_dr.json,http://54.89.209.186/DepthDuration/depth_discrimination_MTurk/DepthDiscrim_HTML.html#2,2,1686,821,1366,768,7-20-2021,12-9-48,157,,,,,,,2317,508,1007,988,1007,507,,4,4,depth_discrimination_stimuli/002784_2014-06-22_19-26-30_094959634447_rgbf000083-resize_3/002784_2014-06-22_19-26-30_094959634447_rgbf000083-resize-original.jpg,485,530603,749716,40
458757,DepthScenes,duration_discrimination,discrim_jsons/shuffled_g0_rotated_dr.json,http://54.89.209.186/DepthDuration/depth_discrimination_MTurk/DepthDiscrim_HTML.html#2,2,1686,821,1366,768,7-20-2021,12-9-48,158,,,,,,,2317,508,1007,988,1007,507,,3,3,depth_discrimination_stimuli/002209_2014-06-28_18-36-10_260595134347_rgbf000051-resize_1/002209_2014-06-28_18-36-10_260595134347_rgbf000051-resize-original.jpg,830,530603,749716,40
458757,DepthScenes,duration_discrimination,discrim_jsons/shuffled_g0_rotated_dr.json,http://54.89.209.186/DepthDuration/depth_discrimination_MTurk/DepthDiscrim_HTML.html#2,2,1686,821,1366,768,7-20-2021,12-9-48,159,,,,,,,2317,508,1007,988,1007,507,,3,3,depth_discrimination_stimuli/000878_2014-06-08_22-52-45_260595134347_rgbf000045-resize_2/000878_2014-06-08_22-52-45_260595134347_rgbf000045-resize-original.jpg,377,530603,749716,40
458757,DepthScenes,duration_discrimination,discrim_jsons/shuffled_g0_rotated_dr.json,http://54.89.209.186/DepthDuration/depth_discrimination_MTurk/DepthDiscrim_HTML.html#2,2,1686,821,1366,768,7-20-2021,12-9-48,160,,,,,,,2317,508,1007,988,1007,507,,2,2,depth_discrimination_stimuli/002964_2014-06-08_17-46-11_094959634447_rgbf000091-resize_4/002964_2014-06-08_17-46-11_094959634447_rgbf000091-resize-original.jpg,930,530603,749716,40
458757,DepthScenes,duration_discrimination,discrim_jsons/shuffled_g0_rotated_dr.json,http://54.89.209.186/DepthDuration/depth_discrimination_MTurk/DepthDiscrim_HTML.html#2,2,1686,821,1366,768,7-20-2021,12-9-48,161,,,,,,,2317,508,1007,988,1007,507,,2,2,depth_discrimination_stimuli/002570_2014-06-24_13-59-54_094959634447_rgbf000059-resize_0/002570_2014-06-24_13-59-54_094959634447_rgbf000059-resize-original.jpg,539,530603,749716,40
458757,DepthScenes,duration_discrimination,discrim_jsons/shuffled_g0_rotated_dr.json,http://54.89.209.186/DepthDuration/depth_discrimination_MTurk/DepthDiscrim_HTML.html#2,2,1686,821,1366,768,7-20-2021,12-9-48,162,,,,,,,2317,508,1007,988,1007,507,,1,1,depth_discrimination_stimuli/001148_2014-06-17_15-26-42_260595134347_rgbf000129-resize_0/001148_2014-06-17_15-26-42_260595134347_rgbf000129-resize-original.jpg,715,530603,749716,40
458757,DepthScenes,duration_discrimination,discrim_jsons/shuffled_g0_rotated_dr.json,http://54.89.209.186/DepthDuration/depth_discrimination_MTurk/DepthDiscrim_HTML.html#2,2,1686,821,1366,768,7-20-2021,12-9-48,163,,,,,,,2317,508,1007,988,1007,507,,1,3,depth_discrimination_stimuli/001188_2014-06-17_15-54-10_260595134347_rgbf000090-resize_2/001188_2014-06-17_15-54-10_260595134347_rgbf000090-resize-original.jpg,922,530603,749716,40
458757,DepthScenes,duration_discrimination,discrim_jsons/shuffled_g0_rotated_dr.json,http://54.89.209.186/DepthDuration/depth_discrimination_MTurk/DepthDiscrim_HTML.html#2,2,1686,821,1366,768,7-20-2021,12-9-48,164,,,,,,,2317,508,1007,988,1007,507,,4,5,depth_discrimination_stimuli/000749_2014-06-08_21-55-06_260595134347_rgbf000070-resize_2/000749_2014-06-08_21-55-06_260595134347_rgbf000070-resize-original.jpg,774,530603,749716,40
458757,DepthScenes,duration_discrimination,discrim_jsons/shuffled_g0_rotated_dr.json,http://54.89.209.186/DepthDuration/depth_discrimination_MTurk/DepthDiscrim_HTML.html#2,2,1686,821,1366,768,7-20-2021,12-9-48,165,,,,,,,2317,508,1007,988,1007,507,,5,5,depth_discrimination_stimuli/001052_2014-06-08_18-24-54_260595134347_rgbf000130-resize_1/001052_2014-06-08_18-24-54_260595134347_rgbf000130-resize-original.jpg,334,530603,749716,40
458757,DepthScenes,duration_discrimination,discrim_jsons/shuffled_g0_rotated_dr.json,http://54.89.209.186/DepthDuration/depth_discrimination_MTurk/DepthDiscrim_HTML.html#2,2,1686,821,1366,768,7-20-2021,12-9-48,166,,,,,,,2317,508,1007,988,1007,507,,4,4,depth_discrimination_stimuli/001815_2014-06-26_20-52-55_260595134347_rgbf000020-resize_0/001815_2014-06-26_20-52-55_260595134347_rgbf000020-resize-original.jpg,528,530603,749716,40
458757,DepthScenes,duration_discrimination,discrim_jsons/shuffled_g0_rotated_dr.json,http://54.89.209.186/DepthDuration/depth_discrimination_MTurk/DepthDiscrim_HTML.html#2,2,1686,821,1366,768,7-20-2021,12-9-48,167,,,,,,,2317,508,1007,988,1007,507,,3,3,depth_discrimination_stimuli/002213_2014-06-28_18-37-58_260595134347_rgbf000055-resize_1/002213_2014-06-28_18-37-58_260595134347_rgbf000055-resize-original.jpg,976,530603,749716,40
458757,DepthScenes,duration_discrimination,discrim_jsons/shuffled_g0_rotated_dr.json,http://54.89.209.186/DepthDuration/depth_discrimination_MTurk/DepthDiscrim_HTML.html#2,2,1686,821,1366,768,7-20-2021,12-9-48,168,,,,,,,2317,508,1007,988,1007,507,,2,2,depth_discrimination_stimuli/000506_2014-06-08_23-21-00_260595134347_rgbf000070-resize_7/000506_2014-06-08_23-21-00_260595134347_rgbf000070-resize-original.jpg,784,530603,749716,40
458757,DepthScenes,duration_discrimination,discrim_jsons/shuffled_g0_rotated_dr.json,http://54.89.209.186/DepthDuration/depth_discrimination_MTurk/DepthDiscrim_HTML.html#2,2,1686,821,1366,768,7-20-2021,12-9-48,169,,,,,,,2317,508,1007,988,1007,507,,1,1,depth_discrimination_stimuli/002663_2014-06-13_15-50-26_094959634447_rgbf000075-resize_1/002663_2014-06-13_15-50-26_094959634447_rgbf000075-resize-original.jpg,857,530603,749716,40
458757,DepthScenes,duration_discrimination,discrim_jsons/shuffled_g0_rotated_dr.json,http://54.89.209.186/DepthDuration/depth_discrimination_MTurk/DepthDiscrim_HTML.html#2,2,1686,821,1366,768,7-20-2021,12-9-48,170,,,,,,,2317,508,1007,988,1007,507,,1,1,depth_discrimination_stimuli/001828_2014-06-26_21-40-03_260595134347_rgbf000024-resize_0/001828_2014-06-26_21-40-03_260595134347_rgbf000024-resize-original.jpg,654,530603,749716,40
458757,DepthScenes,duration_discrimination,discrim_jsons/shuffled_g0_rotated_dr.json,http://54.89.209.186/DepthDuration/depth_discrimination_MTurk/DepthDiscrim_HTML.html#2,2,1686,821,1366,768,7-20-2021,12-9-48,171,,,,,,,2317,508,1007,988,1007,507,,2,2,depth_discrimination_stimuli/000636_2014-06-08_16-39-02_260595134347_rgbf000108-resize_4/000636_2014-06-08_16-39-02_260595134347_rgbf000108-resize-original.jpg,936,530603,749716,40
458757,DepthScenes,duration_discrimination,discrim_jsons/shuffled_g0_rotated_dr.json,http://54.89.209.186/DepthDuration/depth_discrimination_MTurk/DepthDiscrim_HTML.html#2,2,1686,821,1366,768,7-20-2021,12-9-48,172,,,,,,,2317,508,1007,988,1007,507,,2,3,depth_discrimination_stimuli/002509_2014-06-24_13-19-22_094959634447_rgbf000077-resize_0/002509_2014-06-24_13-19-22_094959634447_rgbf000077-resize-original.jpg,662,530603,749716,40
458757,DepthScenes,duration_discrimination,discrim_jsons/shuffled_g0_rotated_dr.json,http://54.89.209.186/DepthDuration/depth_discrimination_MTurk/DepthDiscrim_HTML.html#2,2,1686,821,1366,768,7-20-2021,12-9-48,173,,,,,,,2317,508,1007,988,1007,507,,3,4,depth_discrimination_stimuli/000447_2014-06-08_16-15-46_260595134347_rgbf000130-resize_1/000447_2014-06-08_16-15-46_260595134347_rgbf000130-resize-original.jpg,718,530603,749716,40
458757,DepthScenes,duration_discrimination,discrim_jsons/shuffled_g0_rotated_dr.json,http://54.89.209.186/DepthDuration/depth_discrimination_MTurk/DepthDiscrim_HTML.html#2,2,1686,821,1366,768,7-20-2021,12-9-48,174,,,,,,,2317,508,1007,988,1007,507,,4,5,depth_discrimination_stimuli/000191_2014-05-12_17-07-38_260595134347_rgbf000199-resize_0/000191_2014-05-12_17-07-38_260595134347_rgbf000199-resize-original.jpg,979,530603,749716,40
458757,DepthScenes,duration_discrimination,discrim_jsons/shuffled_g0_rotated_dr.json,http://54.89.209.186/DepthDuration/depth_discrimination_MTurk/DepthDiscrim_HTML.html#2,2,1686,821,1366,768,7-20-2021,12-9-48,175,,,,,,,2317,508,1007,988,1007,507,,4,3,depth_discrimination_stimuli/000742_2014-06-08_18-48-09_260595134347_rgbf000164-resize_4/000742_2014-06-08_18-48-09_260595134347_rgbf000164-resize-original.jpg,685,530603,749716,40
458757,DepthScenes,duration_discrimination,discrim_jsons/shuffled_g0_rotated_dr.json,http://54.89.209.186/DepthDuration/depth_discrimination_MTurk/DepthDiscrim_HTML.html#2,2,1686,821,1366,768,7-20-2021,12-9-48,176,,,,,,,2317,508,1007,988,1007,507,,4,3,depth_discrimination_stimuli/002425_2014-06-28_20-27-29_260595134347_rgbf000031-resize_8/002425_2014-06-28_20-27-29_260595134347_rgbf000031-resize-original.jpg,838,530603,749716,40
458757,DepthScenes,duration_discrimination,discrim_jsons/shuffled_g0_rotated_dr.json,http://54.89.209.186/DepthDuration/depth_discrimination_MTurk/DepthDiscrim_HTML.html#2,2,1686,821,1366,768,7-20-2021,12-9-48,177,,,,,,,2317,508,1007,988,1007,507,,3,3,depth_discrimination_stimuli/002987_2014-06-08_18-48-20_094959634447_rgbf000022-resize_0/002987_2014-06-08_18-48-20_094959634447_rgbf000022-resize-original.jpg,1438,530603,749716,40
458757,DepthScenes,duration_discrimination,discrim_jsons/shuffled_g0_rotated_dr.json,http://54.89.209.186/DepthDuration/depth_discrimination_MTurk/DepthDiscrim_HTML.html#2,2,1686,821,1366,768,7-20-2021,12-9-48,178,,,,,,,2317,508,1007,988,1007,507,,2,3,depth_discrimination_stimuli/000906_2014-06-08_13-35-43_260595134347_rgbf000155-resize_1/000906_2014-06-08_13-35-43_260595134347_rgbf000155-resize-original.jpg,1039,530603,749716,40
458757,DepthScenes,duration_discrimination,discrim_jsons/shuffled_g0_rotated_dr.json,http://54.89.209.186/DepthDuration/depth_discrimination_MTurk/DepthDiscrim_HTML.html#2,2,1686,821,1366,768,7-20-2021,12-9-48,179,,,,,,,2317,508,1007,988,1007,507,,2,3,depth_discrimination_stimuli/000469_2014-06-09_19-42-10_260595134347_rgbf000081-resize_1/000469_2014-06-09_19-42-10_260595134347_rgbf000081-resize-original.jpg,1601,530603,749716,40
458757,DepthScenes,duration_discrimination,discrim_jsons/shuffled_g0_rotated_dr.json,http://54.89.209.186/DepthDuration/depth_discrimination_MTurk/DepthDiscrim_HTML.html#2,2,1686,821,1366,768,7-20-2021,12-9-48,180,,,,,,,2317,508,1007,988,1007,507,,3,4,depth_discrimination_stimuli/003423_2014-05-21_10-23-26_094959634447_rgbf002665-resize_2/003423_2014-05-21_10-23-26_094959634447_rgbf002665-resize-original.jpg,872,530603,749716,40
458757,DepthScenes,duration_discrimination,discrim_jsons/shuffled_g0_rotated_dr.json,http://54.89.209.186/DepthDuration/depth_discrimination_MTurk/DepthDiscrim_HTML.html#2,2,1686,821,1366,768,7-20-2021,12-9-48,181,,,,,,,2317,508,1007,988,1007,507,,4,4,depth_discrimination_stimuli/002750_2014-06-22_19-08-03_094959634447_rgbf000094-resize_4/002750_2014-06-22_19-08-03_094959634447_rgbf000094-resize-original.jpg,1439,530603,749716,40
458757,DepthScenes,duration_discrimination,discrim_jsons/shuffled_g0_rotated_dr.json,http://54.89.209.186/DepthDuration/depth_discrimination_MTurk/DepthDiscrim_HTML.html#2,2,1686,821,1366,768,7-20-2021,12-9-48,182,,,,,,,2317,508,1007,988,1007,507,,3,4,depth_discrimination_stimuli/000542_2014-06-08_18-27-08_260595134347_rgbf000118-resize_1/000542_2014-06-08_18-27-08_260595134347_rgbf000118-resize-original.jpg,889,530603,749716,40
458757,DepthScenes,duration_discrimination,discrim_jsons/shuffled_g0_rotated_dr.json,http://54.89.209.186/DepthDuration/depth_discrimination_MTurk/DepthDiscrim_HTML.html#2,2,1686,821,1366,768,7-20-2021,12-9-48,183,,,,,,,2317,508,1007,988,1007,507,,2,3,depth_discrimination_stimuli/000854_2014-06-09_19-43-13_260595134347_rgbf000066-resize_0/000854_2014-06-09_19-43-13_260595134347_rgbf000066-resize-original.jpg,1486,530603,749716,40
458757,DepthScenes,duration_discrimination,discrim_jsons/shuffled_g0_rotated_dr.json,http://54.89.209.186/DepthDuration/depth_discrimination_MTurk/DepthDiscrim_HTML.html#2,2,1686,821,1366,768,7-20-2021,12-9-48,184,,,,,,,2317,508,1007,988,1007,507,,4,4,depth_discrimination_stimuli/003492_2014-05-21_15-50-55_094959634447_rgbf000828-resize_1/003492_2014-05-21_15-50-55_094959634447_rgbf000828-resize-original.jpg,1175,530603,749716,40
458757,DepthScenes,duration_discrimination,discrim_jsons/shuffled_g0_rotated_dr.json,http://54.89.209.186/DepthDuration/depth_discrimination_MTurk/DepthDiscrim_HTML.html#2,2,1686,821,1366,768,7-20-2021,12-9-48,185,,,,,,,2317,508,1007,988,1007,507,,3,2,depth_discrimination_stimuli/001197_2014-06-17_16-01-50_260595134347_rgbf000103-resize_4/001197_2014-06-17_16-01-50_260595134347_rgbf000103-resize-original.jpg,1295,530603,749716,40
458757,DepthScenes,duration_discrimination,discrim_jsons/shuffled_g0_rotated_dr.json,http://54.89.209.186/DepthDuration/depth_discrimination_MTurk/DepthDiscrim_HTML.html#2,2,1686,821,1366,768,7-20-2021,12-9-48,186,,,,,,,2317,508,1007,988,1007,507,,2,3,depth_discrimination_stimuli/002467_2014-06-28_20-38-07_260595134347_rgbf000026-resize_2/002467_2014-06-28_20-38-07_260595134347_rgbf000026-resize-original.jpg,601,530603,749716,40
458757,DepthScenes,duration_discrimination,discrim_jsons/shuffled_g0_rotated_dr.json,http://54.89.209.186/DepthDuration/depth_discrimination_MTurk/DepthDiscrim_HTML.html#2,2,1686,821,1366,768,7-20-2021,12-9-48,187,,,,,,,2317,508,1007,988,1007,507,,5,4,depth_discrimination_stimuli/003069_2014-06-15_14-57-50_094959634447_rgbf000150-resize_4/003069_2014-06-15_14-57-50_094959634447_rgbf000150-resize-original.jpg,847,530603,749716,40
458757,DepthScenes,duration_discrimination,discrim_jsons/shuffled_g0_rotated_dr.json,http://54.89.209.186/DepthDuration/depth_discrimination_MTurk/DepthDiscrim_HTML.html#2,2,1686,821,1366,768,7-20-2021,12-9-48,188,,,,,,,2317,508,1007,988,1007,507,,4,4,depth_discrimination_stimuli/001150_2014-06-17_15-27-34_260595134347_rgbf000108-resize_2/001150_2014-06-17_15-27-34_260595134347_rgbf000108-resize-original.jpg,759,530603,749716,40
458757,DepthScenes,duration_discrimination,discrim_jsons/shuffled_g0_rotated_dr.json,http://54.89.209.186/DepthDuration/depth_discrimination_MTurk/DepthDiscrim_HTML.html#2,2,1686,821,1366,768,7-20-2021,12-9-48,189,,,,,,,2317,508,1007,988,1007,507,,4,2,depth_discrimination_stimuli/002725_2014-06-22_11-47-51_094959634447_rgbf000070-resize_1/002725_2014-06-22_11-47-51_094959634447_rgbf000070-resize-original.jpg,2310,530603,749716,40
458757,DepthScenes,duration_discrimination,discrim_jsons/shuffled_g0_rotated_dr.json,http://54.89.209.186/DepthDuration/depth_discrimination_MTurk/DepthDiscrim_HTML.html#2,2,1686,821,1366,768,7-20-2021,12-9-48,190,,,,,,,2317,508,1007,988,1007,507,,3,2,depth_discrimination_stimuli/002365_2014-06-28_20-11-21_260595134347_rgbf000102-resize_1/002365_2014-06-28_20-11-21_260595134347_rgbf000102-resize-original.jpg,1015,530603,749716,40
458757,DepthScenes,duration_discrimination,discrim_jsons/shuffled_g0_rotated_dr.json,http://54.89.209.186/DepthDuration/depth_discrimination_MTurk/DepthDiscrim_HTML.html#2,2,1686,821,1366,768,7-20-2021,12-9-48,191,,,,,,,2317,508,1007,988,1007,507,,1,2,depth_discrimination_stimuli/002323_2014-06-28_20-01-54_260595134347_rgbf000051-resize_4/002323_2014-06-28_20-01-54_260595134347_rgbf000051-resize-original.jpg,1784,530603,749716,40
458757,DepthScenes,duration_discrimination,discrim_jsons/shuffled_g0_rotated_dr.json,http://54.89.209.186/DepthDuration/depth_discrimination_MTurk/DepthDiscrim_HTML.html#2,2,1686,821,1366,768,7-20-2021,12-9-48,192,,,,,,,2317,508,1007,988,1007,507,,3,4,depth_discrimination_stimuli/000740_2014-06-08_18-46-23_260595134347_rgbf000049-resize_6/000740_2014-06-08_18-46-23_260595134347_rgbf000049-resize-original.jpg,1375,530603,749716,40
458757,DepthScenes,duration_discrimination,discrim_jsons/shuffled_g0_rotated_dr.json,http://54.89.209.186/DepthDuration/depth_discrimination_MTurk/DepthDiscrim_HTML.html#2,2,1686,821,1366,768,7-20-2021,12-9-48,193,,,,,,,2317,508,1007,988,1007,507,,4,4,depth_discrimination_stimuli/002139_2014-06-25_21-19-37_260595134347_rgbf000124-resize_2/002139_2014-06-25_21-19-37_260595134347_rgbf000124-resize-original.jpg,1055,530603,749716,40
458757,DepthScenes,duration_discrimination,discrim_jsons/shuffled_g0_rotated_dr.json,http://54.89.209.186/DepthDuration/depth_discrimination_MTurk/DepthDiscrim_HTML.html#2,2,1686,821,1366,768,7-20-2021,12-9-48,194,,,,,,,2317,508,1007,988,1007,507,,4,3,depth_discrimination_stimuli/002445_2014-06-28_20-32-16_260595134347_rgbf000029-resize_4/002445_2014-06-28_20-32-16_260595134347_rgbf000029-resize-original.jpg,1855,530603,749716,40
458757,DepthScenes,duration_discrimination,discrim_jsons/shuffled_g0_rotated_dr.json,http://54.89.209.186/DepthDuration/depth_discrimination_MTurk/DepthDiscrim_HTML.html#2,2,1686,821,1366,768,7-20-2021,12-9-48,195,,,,,,,2317,508,1007,988,1007,507,,5,5,depth_discrimination_stimuli/002657_2014-06-13_15-29-54_094959634447_rgbf000150-resize_1/002657_2014-06-13_15-29-54_094959634447_rgbf000150-resize-original.jpg,672,530603,749716,40
458757,DepthScenes,duration_discrimination,discrim_jsons/shuffled_g0_rotated_dr.json,http://54.89.209.186/DepthDuration/depth_discrimination_MTurk/DepthDiscrim_HTML.html#2,2,1686,821,1366,768,7-20-2021,12-9-48,196,,,,,,,2317,508,1007,988,1007,507,,4,5,depth_discrimination_stimuli/002464_2014-06-28_20-36-57_260595134347_rgbf000029-resize_0/002464_2014-06-28_20-36-57_260595134347_rgbf000029-resize-original.jpg,695,530603,749716,40
458757,DepthScenes,duration_discrimination,discrim_jsons/shuffled_g0_rotated_dr.json,http://54.89.209.186/DepthDuration/depth_discrimination_MTurk/DepthDiscrim_HTML.html#2,2,1686,821,1366,768,7-20-2021,12-9-48,197,,,,,,,2317,508,1007,988,1007,507,,4,4,depth_discrimination_stimuli/002444_2014-06-28_20-32-08_260595134347_rgbf000027-resize_0/002444_2014-06-28_20-32-08_260595134347_rgbf000027-resize-original.jpg,1056,530603,749716,40
458757,DepthScenes,duration_discrimination,discrim_jsons/shuffled_g0_rotated_dr.json,http://54.89.209.186/DepthDuration/depth_discrimination_MTurk/DepthDiscrim_HTML.html#2,2,1686,821,1366,768,7-20-2021,12-9-48,198,,,,,,,2317,508,1007,988,1007,507,,3,4,depth_discrimination_stimuli/001055_2014-06-08_18-45-35_260595134347_rgbf000111-resize_4/001055_2014-06-08_18-45-35_260595134347_rgbf000111-resize-original.jpg,712,530603,749716,40
458757,DepthScenes,duration_discrimination,discrim_jsons/shuffled_g0_rotated_dr.json,http://54.89.209.186/DepthDuration/depth_discrimination_MTurk/DepthDiscrim_HTML.html#2,2,1686,821,1366,768,7-20-2021,12-9-48,199,,,,,,,2317,508,1007,988,1007,507,,3,2,depth_discrimination_stimuli/000709_2014-06-08_13-51-55_260595134347_rgbf000068-resize_3/000709_2014-06-08_13-51-55_260595134347_rgbf000068-resize-original.jpg,1182,530603,749716,40
458757,DepthScenes,duration_discrimination,discrim_jsons/shuffled_g0_rotated_dr.json,http://54.89.209.186/DepthDuration/depth_discrimination_MTurk/DepthDiscrim_HTML.html#2,2,1686,821,1366,768,7-20-2021,12-9-48,200,,,,,,,2317,508,1007,988,1007,507,,3,4,depth_discrimination_stimuli/001214_2014-06-17_16-13-55_260595134347_rgbf000111-resize_0/001214_2014-06-17_16-13-55_260595134347_rgbf000111-resize-original.jpg,676,530603,749716,40
458757,DepthScenes,duration_discrimination,discrim_jsons/shuffled_g0_rotated_dr.json,http://54.89.209.186/DepthDuration/depth_discrimination_MTurk/DepthDiscrim_HTML.html#2,2,1686,821,1366,768,7-20-2021,12-9-48,201,,,,,,,2317,508,1007,988,1007,507,,4,2,depth_discrimination_stimuli/001158_2014-06-17_15-32-16_260595134347_rgbf000138-resize_2/001158_2014-06-17_15-32-16_260595134347_rgbf000138-resize-original.jpg,1397,530603,749716,40
458757,DepthScenes,duration_discrimination,discrim_jsons/shuffled_g0_rotated_dr.json,http://54.89.209.186/DepthDuration/depth_discrimination_MTurk/DepthDiscrim_HTML.html#2,2,1686,821,1366,768,7-20-2021,12-9-48,202,,,,,,,2317,508,1007,988,1007,507,,3,4,depth_discrimination_stimuli/002039_2014-06-24_20-22-38_260595134347_rgbf000084-resize_1/002039_2014-06-24_20-22-38_260595134347_rgbf000084-resize-original.jpg,717,530603,749716,40
458757,DepthScenes,duration_discrimination,discrim_jsons/shuffled_g0_rotated_dr.json,http://54.89.209.186/DepthDuration/depth_discrimination_MTurk/DepthDiscrim_HTML.html#2,2,1686,821,1366,768,7-20-2021,12-9-48,203,,,,,,,2317,508,1007,988,1007,507,,5,4,depth_discrimination_stimuli/002763_2014-06-22_19-13-10_094959634447_rgbf000075-resize_4/002763_2014-06-22_19-13-10_094959634447_rgbf000075-resize-original.jpg,809,530603,749716,40
458757,DepthScenes,duration_discrimination,discrim_jsons/shuffled_g0_rotated_dr.json,http://54.89.209.186/DepthDuration/depth_discrimination_MTurk/DepthDiscrim_HTML.html#2,2,1686,821,1366,768,7-20-2021,12-9-48,204,,,,,,,2317,508,1007,988,1007,507,,3,3,depth_discrimination_stimuli/003534_2014-05-22_15-06-10_094959634447_rgbf000102-resize_4/003534_2014-05-22_15-06-10_094959634447_rgbf000102-resize-original.jpg,833,530603,749716,40
458757,DepthScenes,duration_discrimination,discrim_jsons/shuffled_g0_rotated_dr.json,http://54.89.209.186/DepthDuration/depth_discrimination_MTurk/DepthDiscrim_HTML.html#2,2,1686,821,1366,768,7-20-2021,12-9-48,205,,,,,,,2317,508,1007,988,1007,507,,3,3,depth_discrimination_stimuli/002805_2014-06-22_19-54-03_094959634447_rgbf000079-resize_1/002805_2014-06-22_19-54-03_094959634447_rgbf000079-resize-original.jpg,452,530603,749716,40
458757,DepthScenes,duration_discrimination,discrim_jsons/shuffled_g0_rotated_dr.json,http://54.89.209.186/DepthDuration/depth_discrimination_MTurk/DepthDiscrim_HTML.html#2,2,1686,821,1366,768,7-20-2021,12-9-48,206,,,,,,,2317,508,1007,988,1007,507,,3,3,depth_discrimination_stimuli/001450_2014-06-19_17-02-03_260595134347_rgbf000203-resize_4/001450_2014-06-19_17-02-03_260595134347_rgbf000203-resize-original.jpg,528,530603,749716,40
458757,DepthScenes,duration_discrimination,discrim_jsons/shuffled_g0_rotated_dr.json,http://54.89.209.186/DepthDuration/depth_discrimination_MTurk/DepthDiscrim_HTML.html#2,2,1686,821,1366,768,7-20-2021,12-9-48,207,,,,,,,2317,508,1007,988,1007,507,,3,3,depth_discrimination_stimuli/003010_2014-06-15_12-54-35_094959634447_rgbf000112-resize_0/003010_2014-06-15_12-54-35_094959634447_rgbf000112-resize-original.jpg,438,530603,749716,40
458757,DepthScenes,duration_discrimination,discrim_jsons/shuffled_g0_rotated_dr.json,http://54.89.209.186/DepthDuration/depth_discrimination_MTurk/DepthDiscrim_HTML.html#2,2,1686,821,1366,768,7-20-2021,12-9-48,208,,,,,,,2317,508,1007,988,1007,507,,3,4,depth_discrimination_stimuli/000493_2014-06-09_21-01-18_260595134347_rgbf000196-resize_3/000493_2014-06-09_21-01-18_260595134347_rgbf000196-resize-original.jpg,489,530603,749716,40
458757,DepthScenes,duration_discrimination,discrim_jsons/shuffled_g0_rotated_dr.json,http://54.89.209.186/DepthDuration/depth_discrimination_MTurk/DepthDiscrim_HTML.html#2,2,1686,821,1366,768,7-20-2021,12-9-48,209,,,,,,,2317,508,1007,988,1007,507,,4,4,depth_discrimination_stimuli/003292_2014-05-14_21-53-49_094959634447_rgbf000100-resize_2/003292_2014-05-14_21-53-49_094959634447_rgbf000100-resize-original.jpg,735,530603,749716,40
458757,DepthScenes,duration_discrimination,discrim_jsons/shuffled_g0_rotated_dr.json,http://54.89.209.186/DepthDuration/depth_discrimination_MTurk/DepthDiscrim_HTML.html#2,2,1686,821,1366,768,7-20-2021,12-9-48,210,,,,,,,2317,508,1007,988,1007,507,,4,4,depth_discrimination_stimuli/003495_2014-05-21_16-01-51_094959634447_rgbf000100-resize_3/003495_2014-05-21_16-01-51_094959634447_rgbf000100-resize-original.jpg,397,530603,749716,40
458757,DepthScenes,duration_discrimination,discrim_jsons/shuffled_g0_rotated_dr.json,http://54.89.209.186/DepthDuration/depth_discrimination_MTurk/DepthDiscrim_HTML.html#2,2,1686,821,1366,768,7-20-2021,12-9-48,211,,,,,,,2317,508,1007,988,1007,507,,4,4,depth_discrimination_stimuli/001555_2014-06-20_17-12-10_260595134347_rgbf000065-resize_4/001555_2014-06-20_17-12-10_260595134347_rgbf000065-resize-original.jpg,443,530603,749716,40
458757,DepthScenes,duration_discrimination,discrim_jsons/shuffled_g0_rotated_dr.json,http://54.89.209.186/DepthDuration/depth_discrimination_MTurk/DepthDiscrim_HTML.html#2,2,1686,821,1366,768,7-20-2021,12-9-48,212,,,,,,,2317,508,1007,988,1007,507,,4,4,depth_discrimination_stimuli/000555_2014-06-09_22-42-23_260595134347_rgbf000037-resize_4/000555_2014-06-09_22-42-23_260595134347_rgbf000037-resize-original.jpg,444,530603,749716,40
458757,DepthScenes,duration_discrimination,discrim_jsons/shuffled_g0_rotated_dr.json,http://54.89.209.186/DepthDuration/depth_discrimination_MTurk/DepthDiscrim_HTML.html#2,2,1686,821,1366,768,7-20-2021,12-9-48,213,,,,,,,2317,508,1007,988,1007,507,,4,3,depth_discrimination_stimuli/002568_2014-06-24_13-59-21_094959634447_rgbf000062-resize_4/002568_2014-06-24_13-59-21_094959634447_rgbf000062-resize-original.jpg,836,530603,749716,40
458757,DepthScenes,duration_discrimination,discrim_jsons/shuffled_g0_rotated_dr.json,http://54.89.209.186/DepthDuration/depth_discrimination_MTurk/DepthDiscrim_HTML.html#2,2,1686,821,1366,768,7-20-2021,12-9-48,214,,,,,,,2317,508,1007,988,1007,507,,3,3,depth_discrimination_stimuli/000720_2014-06-08_18-37-27_260595134347_rgbf000203-resize_4/000720_2014-06-08_18-37-27_260595134347_rgbf000203-resize-original.jpg,447,530603,749716,40
458757,DepthScenes,duration_discrimination,discrim_jsons/shuffled_g0_rotated_dr.json,http://54.89.209.186/DepthDuration/depth_discrimination_MTurk/DepthDiscrim_HTML.html#2,2,1686,821,1366,768,7-20-2021,12-9-48,215,,,,,,,2317,508,1007,988,1007,507,,3,3,depth_discrimination_stimuli/002579_2014-06-24_14-08-03_094959634447_rgbf000061-resize_2/002579_2014-06-24_14-08-03_094959634447_rgbf000061-resize-original.jpg,469,530603,749716,40
