subjID,experimentName,versionName,sequenceName,url,selected_row,windowWidth,windowHeight,screenWidth,screenHeight,startDate,startTime,trial,stimulus_0,stimulus_1,duration,actual_depth_0,actual_depth_1,discrim_choice,trial_RT,log_fixation,log_sceneDuration1,log_mask1,log_sceneDuration2,log_mask2,unitSelection,meanDepth_rating,navigability_rating,rated_stimulus,rating_RT,experimentTime,totalTime,age
422523,DepthScenes,duration_discrimination,discrim_jsons/shuffled_g0_rotated_dr.json,http://54.89.209.186/DepthDuration/depth_discrimination_MTurk/DepthDiscrim_HTML.html#2,2,1440,821,1440,900,7-20-2021,11-33-50,1,depth_discrimination_stimuli/002444_2014-06-28_20-32-08_260595134347_rgbf000027-resize_0/002444_2014-06-28_20-32-08_260595134347_rgbf000027-resize_0-target.png,depth_discrimination_stimuli/002103_2014-06-25_20-00-40_260595134347_rgbf000049-resize_0/002103_2014-06-25_20-00-40_260595134347_rgbf000049-resize_0-target.png,1000,4.389,4.105,0,2425,504,1002,1000,997,502,,,,,,1288098,1458797,33
422523,DepthScenes,duration_discrimination,discrim_jsons/shuffled_g0_rotated_dr.json,http://54.89.209.186/DepthDuration/depth_discrimination_MTurk/DepthDiscrim_HTML.html#2,2,1440,821,1440,900,7-20-2021,11-33-50,2,depth_discrimination_stimuli/000943_2014-06-09_19-31-07_260595134347_rgbf000128-resize_1/000943_2014-06-09_19-31-07_260595134347_rgbf000128-resize_1-target.png,depth_discrimination_stimuli/001532_2014-06-20_16-50-41_260595134347_rgbf000081-resize_4/001532_2014-06-20_16-50-41_260595134347_rgbf000081-resize_4-target.png,250,1.9765,1.5758333333333,0,1041,501,255,999,251,500,,,,,,1288098,1458797,33
422523,DepthScenes,duration_discrimination,discrim_jsons/shuffled_g0_rotated_dr.json,http://54.89.209.186/DepthDuration/depth_discrimination_MTurk/DepthDiscrim_HTML.html#2,2,1440,821,1440,900,7-20-2021,11-33-50,3,depth_discrimination_stimuli/000742_2014-06-08_18-48-09_260595134347_rgbf000164-resize_4/000742_2014-06-08_18-48-09_260595134347_rgbf000164-resize_4-target.png,depth_discrimination_stimuli/003083_2014-06-15_15-21-03_094959634447_rgbf000063-resize_1/003083_2014-06-15_15-21-03_094959634447_rgbf000063-resize_1-target.png,1000,4.632,4.1405,0,2211,503,998,1005,1000,497,,,,,,1288098,1458797,33
422523,DepthScenes,duration_discrimination,discrim_jsons/shuffled_g0_rotated_dr.json,http://54.89.209.186/DepthDuration/depth_discrimination_MTurk/DepthDiscrim_HTML.html#2,2,1440,821,1440,900,7-20-2021,11-33-50,4,depth_discrimination_stimuli/001011_2014-06-08_23-18-54_260595134347_rgbf000044-resize_4/001011_2014-06-08_23-18-54_260595134347_rgbf000044-resize_4-target.png,depth_discrimination_stimuli/002043_2014-06-24_20-29-38_260595134347_rgbf000039-resize_4/002043_2014-06-24_20-29-38_260595134347_rgbf000039-resize_4-target.png,1000,2.473,2.8435,0,2181,501,1005,1000,995,502,,,,,,1288098,1458797,33
422523,DepthScenes,duration_discrimination,discrim_jsons/shuffled_g0_rotated_dr.json,http://54.89.209.186/DepthDuration/depth_discrimination_MTurk/DepthDiscrim_HTML.html#2,2,1440,821,1440,900,7-20-2021,11-33-50,5,depth_discrimination_stimuli/000953_2014-06-08_11-42-19_260595134347_rgbf000083-resize_0/000953_2014-06-08_11-42-19_260595134347_rgbf000083-resize_0-target.png,depth_discrimination_stimuli/000787_2014-06-08_22-33-53_260595134347_rgbf000175-resize_1/000787_2014-06-08_22-33-53_260595134347_rgbf000175-resize_1-target.png,250,1.369,4.784,0,1562,502,251,1003,249,501,,,,,,1288098,1458797,33
422523,DepthScenes,duration_discrimination,discrim_jsons/shuffled_g0_rotated_dr.json,http://54.89.209.186/DepthDuration/depth_discrimination_MTurk/DepthDiscrim_HTML.html#2,2,1440,821,1440,900,7-20-2021,11-33-50,6,depth_discrimination_stimuli/000109_2014-05-14_23-41-52_260595134347_rgbf000035-resize_9/000109_2014-05-14_23-41-52_260595134347_rgbf000035-resize_9-target.png,depth_discrimination_stimuli/001618_2014-06-20_11-37-31_260595134347_rgbf000027-resize_3/001618_2014-06-20_11-37-31_260595134347_rgbf000027-resize_3-target.png,1000,1.3545,1.8725,0,1978,504,997,1005,999,501,,,,,,1288098,1458797,33
422523,DepthScenes,duration_discrimination,discrim_jsons/shuffled_g0_rotated_dr.json,http://54.89.209.186/DepthDuration/depth_discrimination_MTurk/DepthDiscrim_HTML.html#2,2,1440,821,1440,900,7-20-2021,11-33-50,7,depth_discrimination_stimuli/000502_2014-06-08_23-02-32_260595134347_rgbf000063-resize_4/000502_2014-06-08_23-02-32_260595134347_rgbf000063-resize_4-target.png,depth_discrimination_stimuli/001092_2014-06-15_17-34-58_260595134347_rgbf000171-resize_3/001092_2014-06-15_17-34-58_260595134347_rgbf000171-resize_3-target.png,250,2.431,2.6935,1,1339,503,252,999,251,500,,,,,,1288098,1458797,33
422523,DepthScenes,duration_discrimination,discrim_jsons/shuffled_g0_rotated_dr.json,http://54.89.209.186/DepthDuration/depth_discrimination_MTurk/DepthDiscrim_HTML.html#2,2,1440,821,1440,900,7-20-2021,11-33-50,8,depth_discrimination_stimuli/000454_2014-06-08_16-37-28_260595134347_rgbf000048-resize_2/000454_2014-06-08_16-37-28_260595134347_rgbf000048-resize_2-target.png,depth_discrimination_stimuli/000375_2014-06-08_11-17-29_260595134347_rgbf000133-resize_2/000375_2014-06-08_11-17-29_260595134347_rgbf000133-resize_2-target.png,1000,1.213,4.718,0,2050,501,1001,1000,1004,495,,,,,,1288098,1458797,33
422523,DepthScenes,duration_discrimination,discrim_jsons/shuffled_g0_rotated_dr.json,http://54.89.209.186/DepthDuration/depth_discrimination_MTurk/DepthDiscrim_HTML.html#2,2,1440,821,1440,900,7-20-2021,11-33-50,9,depth_discrimination_stimuli/000869_2014-06-09_20-50-18_260595134347_rgbf000060-resize_3/000869_2014-06-09_20-50-18_260595134347_rgbf000060-resize_3-target.png,depth_discrimination_stimuli/000800_2014-06-08_22-42-09_260595134347_rgbf000095-resize_3/000800_2014-06-08_22-42-09_260595134347_rgbf000095-resize_3-target.png,250,2.266,2.8,0,1232,501,255,1000,250,500,,,,,,1288098,1458797,33
422523,DepthScenes,duration_discrimination,discrim_jsons/shuffled_g0_rotated_dr.json,http://54.89.209.186/DepthDuration/depth_discrimination_MTurk/DepthDiscrim_HTML.html#2,2,1440,821,1440,900,7-20-2021,11-33-50,10,depth_discrimination_stimuli/001056_2014-06-08_18-46-44_260595134347_rgbf000068-resize_0/001056_2014-06-08_18-46-44_260595134347_rgbf000068-resize_0-target.png,depth_discrimination_stimuli/000749_2014-06-08_21-55-06_260595134347_rgbf000070-resize_2/000749_2014-06-08_21-55-06_260595134347_rgbf000070-resize_2-target.png,250,2.6625,2.331,1,965,504,251,1000,250,500,,,,,,1288098,1458797,33
422523,DepthScenes,duration_discrimination,discrim_jsons/shuffled_g0_rotated_dr.json,http://54.89.209.186/DepthDuration/depth_discrimination_MTurk/DepthDiscrim_HTML.html#2,2,1440,821,1440,900,7-20-2021,11-33-50,11,depth_discrimination_stimuli/001055_2014-06-08_18-45-35_260595134347_rgbf000111-resize_4/001055_2014-06-08_18-45-35_260595134347_rgbf000111-resize_4-target.png,depth_discrimination_stimuli/000929_2014-06-09_16-33-19_260595134347_rgbf000139-resize_0/000929_2014-06-09_16-33-19_260595134347_rgbf000139-resize_0-target.png,250,2.429,2.868,1,1916,503,248,1000,255,500,,,,,,1288098,1458797,33
422523,DepthScenes,duration_discrimination,discrim_jsons/shuffled_g0_rotated_dr.json,http://54.89.209.186/DepthDuration/depth_discrimination_MTurk/DepthDiscrim_HTML.html#2,2,1440,821,1440,900,7-20-2021,11-33-50,12,depth_discrimination_stimuli/000470_2014-06-09_19-42-40_260595134347_rgbf000094-resize_1/000470_2014-06-09_19-42-40_260595134347_rgbf000094-resize_1-target.png,depth_discrimination_stimuli/002953_2014-06-08_17-32-18_094959634447_rgbf000059-resize_5/002953_2014-06-08_17-32-18_094959634447_rgbf000059-resize_5-target.png,1000,1.831,1.551,1,1774,504,1002,1000,1000,496,,,,,,1288098,1458797,33
422523,DepthScenes,duration_discrimination,discrim_jsons/shuffled_g0_rotated_dr.json,http://54.89.209.186/DepthDuration/depth_discrimination_MTurk/DepthDiscrim_HTML.html#2,2,1440,821,1440,900,7-20-2021,11-33-50,13,depth_discrimination_stimuli/002905_2014-06-03_18-04-43_094959634447_rgbf000151-resize_2/002905_2014-06-03_18-04-43_094959634447_rgbf000151-resize_2-target.png,depth_discrimination_stimuli/002340_2014-06-28_20-05-46_260595134347_rgbf000113-resize_0/002340_2014-06-28_20-05-46_260595134347_rgbf000113-resize_0-target.png,250,2.0295,2.4735,0,1882,501,252,1003,250,500,,,,,,1288098,1458797,33
422523,DepthScenes,duration_discrimination,discrim_jsons/shuffled_g0_rotated_dr.json,http://54.89.209.186/DepthDuration/depth_discrimination_MTurk/DepthDiscrim_HTML.html#2,2,1440,821,1440,900,7-20-2021,11-33-50,14,depth_discrimination_stimuli/002039_2014-06-24_20-22-38_260595134347_rgbf000084-resize_1/002039_2014-06-24_20-22-38_260595134347_rgbf000084-resize_1-target.png,depth_discrimination_stimuli/000691_2014-06-08_13-08-50_260595134347_rgbf000132-resize_3/000691_2014-06-08_13-08-50_260595134347_rgbf000132-resize_3-target.png,250,4.408,4.153,1,1967,503,252,996,254,500,,,,,,1288098,1458797,33
422523,DepthScenes,duration_discrimination,discrim_jsons/shuffled_g0_rotated_dr.json,http://54.89.209.186/DepthDuration/depth_discrimination_MTurk/DepthDiscrim_HTML.html#2,2,1440,821,1440,900,7-20-2021,11-33-50,15,depth_discrimination_stimuli/001164_2014-06-17_15-35-46_260595134347_rgbf000085-resize_3/001164_2014-06-17_15-35-46_260595134347_rgbf000085-resize_3-target.png,depth_discrimination_stimuli/002118_2014-06-25_20-32-08_260595134347_rgbf000078-resize_1/002118_2014-06-25_20-32-08_260595134347_rgbf000078-resize_1-target.png,250,2.354,2.646,1,1617,501,255,1000,250,495,,,,,,1288098,1458797,33
422523,DepthScenes,duration_discrimination,discrim_jsons/shuffled_g0_rotated_dr.json,http://54.89.209.186/DepthDuration/depth_discrimination_MTurk/DepthDiscrim_HTML.html#2,2,1440,821,1440,900,7-20-2021,11-33-50,16,depth_discrimination_stimuli/000569_2014-06-09_22-51-47_260595134347_rgbf000141-resize_3/000569_2014-06-09_22-51-47_260595134347_rgbf000141-resize_3-target.png,depth_discrimination_stimuli/000868_2014-06-09_20-49-52_260595134347_rgbf000064-resize_4/000868_2014-06-09_20-49-52_260595134347_rgbf000064-resize_4-target.png,250,4.512,1.2815,1,1009,501,252,1003,250,500,,,,,,1288098,1458797,33
422523,DepthScenes,duration_discrimination,discrim_jsons/shuffled_g0_rotated_dr.json,http://54.89.209.186/DepthDuration/depth_discrimination_MTurk/DepthDiscrim_HTML.html#2,2,1440,821,1440,900,7-20-2021,11-33-50,17,depth_discrimination_stimuli/000709_2014-06-08_13-51-55_260595134347_rgbf000068-resize_3/000709_2014-06-08_13-51-55_260595134347_rgbf000068-resize_3-target.png,depth_discrimination_stimuli/003587_2014-05-23_16-48-02_094959634447_rgbf002384-resize_2/003587_2014-05-23_16-48-02_094959634447_rgbf002384-resize_2-target.png,250,1.803,1.357,1,972,504,249,1003,247,501,,,,,,1288098,1458797,33
422523,DepthScenes,duration_discrimination,discrim_jsons/shuffled_g0_rotated_dr.json,http://54.89.209.186/DepthDuration/depth_discrimination_MTurk/DepthDiscrim_HTML.html#2,2,1440,821,1440,900,7-20-2021,11-33-50,18,depth_discrimination_stimuli/000409_2014-06-04_19-23-33_260595134347_rgbf000067-resize_0/000409_2014-06-04_19-23-33_260595134347_rgbf000067-resize_0-target.png,depth_discrimination_stimuli/000493_2014-06-09_21-01-18_260595134347_rgbf000196-resize_3/000493_2014-06-09_21-01-18_260595134347_rgbf000196-resize_3-target.png,1000,3.7335,3.44,0,2688,503,1002,1000,997,500,,,,,,1288098,1458797,33
422523,DepthScenes,duration_discrimination,discrim_jsons/shuffled_g0_rotated_dr.json,http://54.89.209.186/DepthDuration/depth_discrimination_MTurk/DepthDiscrim_HTML.html#2,2,1440,821,1440,900,7-20-2021,11-33-50,19,depth_discrimination_stimuli/002675_2014-06-13_16-08-49_094959634447_rgbf000151-resize_2/002675_2014-06-13_16-08-49_094959634447_rgbf000151-resize_2-target.png,depth_discrimination_stimuli/001222_2014-06-17_16-24-06_260595134347_rgbf000073-resize_0/001222_2014-06-17_16-24-06_260595134347_rgbf000073-resize_0-target.png,1000,4.5065,1.4385,1,1791,504,1002,998,999,503,,,,,,1288098,1458797,33
422523,DepthScenes,duration_discrimination,discrim_jsons/shuffled_g0_rotated_dr.json,http://54.89.209.186/DepthDuration/depth_discrimination_MTurk/DepthDiscrim_HTML.html#2,2,1440,821,1440,900,7-20-2021,11-33-50,20,depth_discrimination_stimuli/001016_2014-06-09_16-16-10_260595134347_rgbf000112-resize_5/001016_2014-06-09_16-16-10_260595134347_rgbf000112-resize_5-target.png,depth_discrimination_stimuli/002199_2014-06-28_18-33-56_260595134347_rgbf000074-resize_0/002199_2014-06-28_18-33-56_260595134347_rgbf000074-resize_0-target.png,1000,1.6565,1.996,1,2260,504,999,1003,1000,500,,,,,,1288098,1458797,33
422523,DepthScenes,duration_discrimination,discrim_jsons/shuffled_g0_rotated_dr.json,http://54.89.209.186/DepthDuration/depth_discrimination_MTurk/DepthDiscrim_HTML.html#2,2,1440,821,1440,900,7-20-2021,11-33-50,21,depth_discrimination_stimuli/000542_2014-06-08_18-27-08_260595134347_rgbf000118-resize_1/000542_2014-06-08_18-27-08_260595134347_rgbf000118-resize_1-target.png,depth_discrimination_stimuli/003292_2014-05-14_21-53-49_094959634447_rgbf000100-resize_2/003292_2014-05-14_21-53-49_094959634447_rgbf000100-resize_2-target.png,250,3,3.4815,0,1748,504,248,1004,246,504,,,,,,1288098,1458797,33
422523,DepthScenes,duration_discrimination,discrim_jsons/shuffled_g0_rotated_dr.json,http://54.89.209.186/DepthDuration/depth_discrimination_MTurk/DepthDiscrim_HTML.html#2,2,1440,821,1440,900,7-20-2021,11-33-50,22,depth_discrimination_stimuli/000866_2014-06-09_20-45-42_260595134347_rgbf000139-resize_1/000866_2014-06-09_20-45-42_260595134347_rgbf000139-resize_1-target.png,depth_discrimination_stimuli/003490_2014-05-21_15-50-11_094959634447_rgbf000101-resize_3/003490_2014-05-21_15-50-11_094959634447_rgbf000101-resize_3-target.png,250,3.2155,3.6445,0,1336,503,249,1004,250,498,,,,,,1288098,1458797,33
422523,DepthScenes,duration_discrimination,discrim_jsons/shuffled_g0_rotated_dr.json,http://54.89.209.186/DepthDuration/depth_discrimination_MTurk/DepthDiscrim_HTML.html#2,2,1440,821,1440,900,7-20-2021,11-33-50,23,depth_discrimination_stimuli/002414_2014-06-28_20-24-58_260595134347_rgbf000067-resize_4/002414_2014-06-28_20-24-58_260595134347_rgbf000067-resize_4-target.png,depth_discrimination_stimuli/001450_2014-06-19_17-02-03_260595134347_rgbf000203-resize_4/001450_2014-06-19_17-02-03_260595134347_rgbf000203-resize_4-target.png,1000,4.363,4.0106666666667,0,2651,504,1001,998,1001,499,,,,,,1288098,1458797,33
422523,DepthScenes,duration_discrimination,discrim_jsons/shuffled_g0_rotated_dr.json,http://54.89.209.186/DepthDuration/depth_discrimination_MTurk/DepthDiscrim_HTML.html#2,2,1440,821,1440,900,7-20-2021,11-33-50,24,depth_discrimination_stimuli/001498_2014-06-19_17-45-14_260595134347_rgbf000129-resize_4/001498_2014-06-19_17-45-14_260595134347_rgbf000129-resize_4-target.png,depth_discrimination_stimuli/003125_2014-05-12_10-39-22_094959634447_rgbf000100-resize_0/003125_2014-05-12_10-39-22_094959634447_rgbf000100-resize_0-target.png,1000,1.4075,4.8655,0,1904,505,1000,1000,997,503,,,,,,1288098,1458797,33
422523,DepthScenes,duration_discrimination,discrim_jsons/shuffled_g0_rotated_dr.json,http://54.89.209.186/DepthDuration/depth_discrimination_MTurk/DepthDiscrim_HTML.html#2,2,1440,821,1440,900,7-20-2021,11-33-50,25,depth_discrimination_stimuli/002509_2014-06-24_13-19-22_094959634447_rgbf000077-resize_0/002509_2014-06-24_13-19-22_094959634447_rgbf000077-resize_0-target.png,depth_discrimination_stimuli/000549_2014-06-08_22-10-24_260595134347_rgbf000247-resize_3/000549_2014-06-08_22-10-24_260595134347_rgbf000247-resize_3-target.png,250,1.3065,1.841,1,867,504,251,1001,250,496,,,,,,1288098,1458797,33
422523,DepthScenes,duration_discrimination,discrim_jsons/shuffled_g0_rotated_dr.json,http://54.89.209.186/DepthDuration/depth_discrimination_MTurk/DepthDiscrim_HTML.html#2,2,1440,821,1440,900,7-20-2021,11-33-50,26,depth_discrimination_stimuli/001148_2014-06-17_15-26-42_260595134347_rgbf000129-resize_0/001148_2014-06-17_15-26-42_260595134347_rgbf000129-resize_0-target.png,depth_discrimination_stimuli/000556_2014-06-09_22-42-56_260595134347_rgbf000214-resize_1/000556_2014-06-09_22-42-56_260595134347_rgbf000214-resize_1-target.png,250,4.368,4.8415,0,1221,505,251,1000,249,501,,,,,,1288098,1458797,33
422523,DepthScenes,duration_discrimination,discrim_jsons/shuffled_g0_rotated_dr.json,http://54.89.209.186/DepthDuration/depth_discrimination_MTurk/DepthDiscrim_HTML.html#2,2,1440,821,1440,900,7-20-2021,11-33-50,27,depth_discrimination_stimuli/001136_2014-06-17_15-19-41_260595134347_rgbf000076-resize_3/001136_2014-06-17_15-19-41_260595134347_rgbf000076-resize_3-target.png,depth_discrimination_stimuli/002549_2014-06-24_13-41-39_094959634447_rgbf000022-resize_3/002549_2014-06-24_13-41-39_094959634447_rgbf000022-resize_3-target.png,250,1.8655,1.476,1,1212,504,249,999,253,500,,,,,,1288098,1458797,33
422523,DepthScenes,duration_discrimination,discrim_jsons/shuffled_g0_rotated_dr.json,http://54.89.209.186/DepthDuration/depth_discrimination_MTurk/DepthDiscrim_HTML.html#2,2,1440,821,1440,900,7-20-2021,11-33-50,28,depth_discrimination_stimuli/002072_2014-06-24_21-48-06_260595134347_rgbf000115-resize_0/002072_2014-06-24_21-48-06_260595134347_rgbf000115-resize_0-target.png,depth_discrimination_stimuli/001012_2014-06-08_23-19-38_260595134347_rgbf000057-resize_0/001012_2014-06-08_23-19-38_260595134347_rgbf000057-resize_0-target.png,250,4.702,1.38325,1,1287,505,250,1000,249,500,,,,,,1288098,1458797,33
422523,DepthScenes,duration_discrimination,discrim_jsons/shuffled_g0_rotated_dr.json,http://54.89.209.186/DepthDuration/depth_discrimination_MTurk/DepthDiscrim_HTML.html#2,2,1440,821,1440,900,7-20-2021,11-33-50,29,depth_discrimination_stimuli/001584_2014-06-20_11-07-43_260595134347_rgbf000002-resize_1/001584_2014-06-20_11-07-43_260595134347_rgbf000002-resize_1-target.png,depth_discrimination_stimuli/002805_2014-06-22_19-54-03_094959634447_rgbf000079-resize_1/002805_2014-06-22_19-54-03_094959634447_rgbf000079-resize_1-target.png,1000,3.53,3.144,0,1804,502,1003,996,1001,500,,,,,,1288098,1458797,33
422523,DepthScenes,duration_discrimination,discrim_jsons/shuffled_g0_rotated_dr.json,http://54.89.209.186/DepthDuration/depth_discrimination_MTurk/DepthDiscrim_HTML.html#2,2,1440,821,1440,900,7-20-2021,11-33-50,30,depth_discrimination_stimuli/002949_2014-06-26_15-57-42_094959634447_rgbf000079-resize_1/002949_2014-06-26_15-57-42_094959634447_rgbf000079-resize_1-target.png,depth_discrimination_stimuli/003495_2014-05-21_16-01-51_094959634447_rgbf000100-resize_3/003495_2014-05-21_16-01-51_094959634447_rgbf000100-resize_3-target.png,1000,1.8915,1.6255,1,1791,505,1001,1000,995,501,,,,,,1288098,1458797,33
422523,DepthScenes,duration_discrimination,discrim_jsons/shuffled_g0_rotated_dr.json,http://54.89.209.186/DepthDuration/depth_discrimination_MTurk/DepthDiscrim_HTML.html#2,2,1440,821,1440,900,7-20-2021,11-33-50,31,depth_discrimination_stimuli/000137_2014-05-20_17-04-49_260595134347_rgbf000120-resize_1/000137_2014-05-20_17-04-49_260595134347_rgbf000120-resize_1-target.png,depth_discrimination_stimuli/003423_2014-05-21_10-23-26_094959634447_rgbf002665-resize_2/003423_2014-05-21_10-23-26_094959634447_rgbf002665-resize_2-target.png,1000,3.786,3.2575,0,1732,501,1005,1000,1000,500,,,,,,1288098,1458797,33
422523,DepthScenes,duration_discrimination,discrim_jsons/shuffled_g0_rotated_dr.json,http://54.89.209.186/DepthDuration/depth_discrimination_MTurk/DepthDiscrim_HTML.html#2,2,1440,821,1440,900,7-20-2021,11-33-50,32,depth_discrimination_stimuli/001235_2014-06-17_16-37-36_260595134347_rgbf000084-resize_4/001235_2014-06-17_16-37-36_260595134347_rgbf000084-resize_4-target.png,depth_discrimination_stimuli/001197_2014-06-17_16-01-50_260595134347_rgbf000103-resize_4/001197_2014-06-17_16-01-50_260595134347_rgbf000103-resize_4-target.png,1000,3.6605,3.4025,1,1698,501,1004,1000,1001,499,,,,,,1288098,1458797,33
422523,DepthScenes,duration_discrimination,discrim_jsons/shuffled_g0_rotated_dr.json,http://54.89.209.186/DepthDuration/depth_discrimination_MTurk/DepthDiscrim_HTML.html#2,2,1440,821,1440,900,7-20-2021,11-33-50,33,depth_discrimination_stimuli/001133_2014-06-17_14-49-16_260595134347_rgbf000100-resize_0/001133_2014-06-17_14-49-16_260595134347_rgbf000100-resize_0-target.png,depth_discrimination_stimuli/002467_2014-06-28_20-38-07_260595134347_rgbf000026-resize_2/002467_2014-06-28_20-38-07_260595134347_rgbf000026-resize_2-target.png,1000,4.2115,4.742,0,1783,503,1003,1000,1000,498,,,,,,1288098,1458797,33
422523,DepthScenes,duration_discrimination,discrim_jsons/shuffled_g0_rotated_dr.json,http://54.89.209.186/DepthDuration/depth_discrimination_MTurk/DepthDiscrim_HTML.html#2,2,1440,821,1440,900,7-20-2021,11-33-50,34,depth_discrimination_stimuli/002748_2014-06-22_19-07-22_094959634447_rgbf000078-resize_1/002748_2014-06-22_19-07-22_094959634447_rgbf000078-resize_1-target.png,depth_discrimination_stimuli/001808_2014-06-26_20-50-58_260595134347_rgbf000029-resize_1/001808_2014-06-26_20-50-58_260595134347_rgbf000029-resize_1-target.png,1000,4.6705,4.249,1,1993,503,1001,1000,998,504,,,,,,1288098,1458797,33
422523,DepthScenes,duration_discrimination,discrim_jsons/shuffled_g0_rotated_dr.json,http://54.89.209.186/DepthDuration/depth_discrimination_MTurk/DepthDiscrim_HTML.html#2,2,1440,821,1440,900,7-20-2021,11-33-50,35,depth_discrimination_stimuli/003395_2014-05-20_15-39-18_094959634447_rgbf000101-resize_0/003395_2014-05-20_15-39-18_094959634447_rgbf000101-resize_0-target.png,depth_discrimination_stimuli/001540_2014-06-20_17-01-05_260595134347_rgbf000086-resize_2/001540_2014-06-20_17-01-05_260595134347_rgbf000086-resize_2-target.png,1000,4.835,1.459,1,3112,504,1001,1000,996,504,,,,,,1288098,1458797,33
422523,DepthScenes,duration_discrimination,discrim_jsons/shuffled_g0_rotated_dr.json,http://54.89.209.186/DepthDuration/depth_discrimination_MTurk/DepthDiscrim_HTML.html#2,2,1440,821,1440,900,7-20-2021,11-33-50,36,depth_discrimination_stimuli/001170_2014-06-17_15-43-44_260595134347_rgbf000096-resize_6/001170_2014-06-17_15-43-44_260595134347_rgbf000096-resize_6-target.png,depth_discrimination_stimuli/002364_2014-06-28_20-11-05_260595134347_rgbf000042-resize_0/002364_2014-06-28_20-11-05_260595134347_rgbf000042-resize_0-target.png,250,1.191,4.682,0,939,504,252,1000,250,500,,,,,,1288098,1458797,33
422523,DepthScenes,duration_discrimination,discrim_jsons/shuffled_g0_rotated_dr.json,http://54.89.209.186/DepthDuration/depth_discrimination_MTurk/DepthDiscrim_HTML.html#2,2,1440,821,1440,900,7-20-2021,11-33-50,37,depth_discrimination_stimuli/002678_2014-06-13_16-15-32_094959634447_rgbf000151-resize_6/002678_2014-06-13_16-15-32_094959634447_rgbf000151-resize_6-target.png,depth_discrimination_stimuli/000927_2014-06-09_16-32-30_260595134347_rgbf000123-resize_3/000927_2014-06-09_16-32-30_260595134347_rgbf000123-resize_3-target.png,1000,2.183,2.6785,1,1861,504,1002,997,1003,495,,,,,,1288098,1458797,33
422523,DepthScenes,duration_discrimination,discrim_jsons/shuffled_g0_rotated_dr.json,http://54.89.209.186/DepthDuration/depth_discrimination_MTurk/DepthDiscrim_HTML.html#2,2,1440,821,1440,900,7-20-2021,11-33-50,38,depth_discrimination_stimuli/003081_2014-06-15_15-19-16_094959634447_rgbf000150-resize_1/003081_2014-06-15_15-19-16_094959634447_rgbf000150-resize_1-target.png,depth_discrimination_stimuli/002660_2014-06-13_15-44-18_094959634447_rgbf001878-resize_2/002660_2014-06-13_15-44-18_094959634447_rgbf001878-resize_2-target.png,250,3.9125,3.576,0,1280,504,252,1000,250,498,,,,,,1288098,1458797,33
422523,DepthScenes,duration_discrimination,discrim_jsons/shuffled_g0_rotated_dr.json,http://54.89.209.186/DepthDuration/depth_discrimination_MTurk/DepthDiscrim_HTML.html#2,2,1440,821,1440,900,7-20-2021,11-33-50,39,depth_discrimination_stimuli/001181_2014-06-17_15-50-57_260595134347_rgbf000106-resize_4/001181_2014-06-17_15-50-57_260595134347_rgbf000106-resize_4-target.png,depth_discrimination_stimuli/001158_2014-06-17_15-32-16_260595134347_rgbf000138-resize_2/001158_2014-06-17_15-32-16_260595134347_rgbf000138-resize_2-target.png,1000,4.149,4.5315,0,1807,505,996,1002,999,499,,,,,,1288098,1458797,33
422523,DepthScenes,duration_discrimination,discrim_jsons/shuffled_g0_rotated_dr.json,http://54.89.209.186/DepthDuration/depth_discrimination_MTurk/DepthDiscrim_HTML.html#2,2,1440,821,1440,900,7-20-2021,11-33-50,40,depth_discrimination_stimuli/001032_2014-06-08_13-23-17_260595134347_rgbf000021-resize_3/001032_2014-06-08_13-23-17_260595134347_rgbf000021-resize_3-target.png,depth_discrimination_stimuli/002323_2014-06-28_20-01-54_260595134347_rgbf000051-resize_4/002323_2014-06-28_20-01-54_260595134347_rgbf000051-resize_4-target.png,1000,3.2725,3.731,0,1734,503,1003,1001,1000,499,,,,,,1288098,1458797,33
422523,DepthScenes,duration_discrimination,discrim_jsons/shuffled_g0_rotated_dr.json,http://54.89.209.186/DepthDuration/depth_discrimination_MTurk/DepthDiscrim_HTML.html#2,2,1440,821,1440,900,7-20-2021,11-33-50,40,,,,,,,1734,503,1003,1001,1000,499,,,,,,1288098,1458797,33
422523,DepthScenes,duration_discrimination,discrim_jsons/shuffled_g0_rotated_dr.json,http://54.89.209.186/DepthDuration/depth_discrimination_MTurk/DepthDiscrim_HTML.html#2,2,1425,821,1440,900,7-20-2021,11-33-50,42,,,,,,,1734,503,1003,1001,1000,499,,3,3,depth_discrimination_stimuli/000780_2014-06-08_22-28-29_260595134347_rgbf000126-resize_1/000780_2014-06-08_22-28-29_260595134347_rgbf000126-resize-original.jpg,14930,1288098,1458797,33
422523,DepthScenes,duration_discrimination,discrim_jsons/shuffled_g0_rotated_dr.json,http://54.89.209.186/DepthDuration/depth_discrimination_MTurk/DepthDiscrim_HTML.html#2,2,1425,821,1440,900,7-20-2021,11-33-50,43,,,,,,,1734,503,1003,1001,1000,499,,3,4,depth_discrimination_stimuli/001100_2014-06-15_17-46-26_260595134347_rgbf000225-resize_2/001100_2014-06-15_17-46-26_260595134347_rgbf000225-resize-original.jpg,16698,1288098,1458797,33
422523,DepthScenes,duration_discrimination,discrim_jsons/shuffled_g0_rotated_dr.json,http://54.89.209.186/DepthDuration/depth_discrimination_MTurk/DepthDiscrim_HTML.html#2,2,1425,821,1440,900,7-20-2021,11-33-50,44,,,,,,,1734,503,1003,1001,1000,499,,5,4,depth_discrimination_stimuli/001650_2014-06-20_12-09-00_260595134347_rgbf000087-resize_3/001650_2014-06-20_12-09-00_260595134347_rgbf000087-resize-original.jpg,7068,1288098,1458797,33
422523,DepthScenes,duration_discrimination,discrim_jsons/shuffled_g0_rotated_dr.json,http://54.89.209.186/DepthDuration/depth_discrimination_MTurk/DepthDiscrim_HTML.html#2,2,1425,821,1440,900,7-20-2021,11-33-50,45,,,,,,,1734,503,1003,1001,1000,499,,5,3,depth_discrimination_stimuli/002663_2014-06-13_15-50-26_094959634447_rgbf000075-resize_1/002663_2014-06-13_15-50-26_094959634447_rgbf000075-resize-original.jpg,3429,1288098,1458797,33
422523,DepthScenes,duration_discrimination,discrim_jsons/shuffled_g0_rotated_dr.json,http://54.89.209.186/DepthDuration/depth_discrimination_MTurk/DepthDiscrim_HTML.html#2,2,1425,821,1440,900,7-20-2021,11-33-50,46,,,,,,,1734,503,1003,1001,1000,499,,5,2,depth_discrimination_stimuli/000943_2014-06-09_19-31-07_260595134347_rgbf000128-resize_1/000943_2014-06-09_19-31-07_260595134347_rgbf000128-resize-original.jpg,5577,1288098,1458797,33
422523,DepthScenes,duration_discrimination,discrim_jsons/shuffled_g0_rotated_dr.json,http://54.89.209.186/DepthDuration/depth_discrimination_MTurk/DepthDiscrim_HTML.html#2,2,1425,821,1440,900,7-20-2021,11-33-50,47,,,,,,,1734,503,1003,1001,1000,499,,2,2,depth_discrimination_stimuli/002875_2014-06-01_15-19-00_094959634447_rgbf000151-resize_1/002875_2014-06-01_15-19-00_094959634447_rgbf000151-resize-original.jpg,6339,1288098,1458797,33
422523,DepthScenes,duration_discrimination,discrim_jsons/shuffled_g0_rotated_dr.json,http://54.89.209.186/DepthDuration/depth_discrimination_MTurk/DepthDiscrim_HTML.html#2,2,1425,821,1440,900,7-20-2021,11-33-50,48,,,,,,,1734,503,1003,1001,1000,499,,3,2,depth_discrimination_stimuli/000137_2014-05-20_17-04-49_260595134347_rgbf000120-resize_1/000137_2014-05-20_17-04-49_260595134347_rgbf000120-resize-original.jpg,7783,1288098,1458797,33
422523,DepthScenes,duration_discrimination,discrim_jsons/shuffled_g0_rotated_dr.json,http://54.89.209.186/DepthDuration/depth_discrimination_MTurk/DepthDiscrim_HTML.html#2,2,1425,821,1440,900,7-20-2021,11-33-50,49,,,,,,,1734,503,1003,1001,1000,499,,2,3,depth_discrimination_stimuli/001197_2014-06-17_16-01-50_260595134347_rgbf000103-resize_4/001197_2014-06-17_16-01-50_260595134347_rgbf000103-resize-original.jpg,3284,1288098,1458797,33
422523,DepthScenes,duration_discrimination,discrim_jsons/shuffled_g0_rotated_dr.json,http://54.89.209.186/DepthDuration/depth_discrimination_MTurk/DepthDiscrim_HTML.html#2,2,1425,821,1440,900,7-20-2021,11-33-50,50,,,,,,,1734,503,1003,1001,1000,499,,2,3,depth_discrimination_stimuli/001092_2014-06-15_17-34-58_260595134347_rgbf000171-resize_3/001092_2014-06-15_17-34-58_260595134347_rgbf000171-resize-original.jpg,4736,1288098,1458797,33
422523,DepthScenes,duration_discrimination,discrim_jsons/shuffled_g0_rotated_dr.json,http://54.89.209.186/DepthDuration/depth_discrimination_MTurk/DepthDiscrim_HTML.html#2,2,1425,821,1440,900,7-20-2021,11-33-50,51,,,,,,,1734,503,1003,1001,1000,499,,3,4,depth_discrimination_stimuli/003129_2014-05-12_10-48-10_094959634447_rgbf000100-resize_0/003129_2014-05-12_10-48-10_094959634447_rgbf000100-resize-original.jpg,5183,1288098,1458797,33
422523,DepthScenes,duration_discrimination,discrim_jsons/shuffled_g0_rotated_dr.json,http://54.89.209.186/DepthDuration/depth_discrimination_MTurk/DepthDiscrim_HTML.html#2,2,1425,821,1440,900,7-20-2021,11-33-50,52,,,,,,,1734,503,1003,1001,1000,499,,4,3,depth_discrimination_stimuli/000692_2014-06-08_13-09-42_260595134347_rgbf000199-resize_2/000692_2014-06-08_13-09-42_260595134347_rgbf000199-resize-original.jpg,5087,1288098,1458797,33
422523,DepthScenes,duration_discrimination,discrim_jsons/shuffled_g0_rotated_dr.json,http://54.89.209.186/DepthDuration/depth_discrimination_MTurk/DepthDiscrim_HTML.html#2,2,1425,821,1440,900,7-20-2021,11-33-50,53,,,,,,,1734,503,1003,1001,1000,499,,2,3,depth_discrimination_stimuli/000740_2014-06-08_18-46-23_260595134347_rgbf000049-resize_6/000740_2014-06-08_18-46-23_260595134347_rgbf000049-resize-original.jpg,6159,1288098,1458797,33
422523,DepthScenes,duration_discrimination,discrim_jsons/shuffled_g0_rotated_dr.json,http://54.89.209.186/DepthDuration/depth_discrimination_MTurk/DepthDiscrim_HTML.html#2,2,1425,821,1440,900,7-20-2021,11-33-50,54,,,,,,,1734,503,1003,1001,1000,499,,1,3,depth_discrimination_stimuli/002784_2014-06-22_19-26-30_094959634447_rgbf000083-resize_3/002784_2014-06-22_19-26-30_094959634447_rgbf000083-resize-original.jpg,6752,1288098,1458797,33
422523,DepthScenes,duration_discrimination,discrim_jsons/shuffled_g0_rotated_dr.json,http://54.89.209.186/DepthDuration/depth_discrimination_MTurk/DepthDiscrim_HTML.html#2,2,1425,821,1440,900,7-20-2021,11-33-50,55,,,,,,,1734,503,1003,1001,1000,499,,5,4,depth_discrimination_stimuli/002678_2014-06-13_16-15-32_094959634447_rgbf000151-resize_6/002678_2014-06-13_16-15-32_094959634447_rgbf000151-resize-original.jpg,7003,1288098,1458797,33
422523,DepthScenes,duration_discrimination,discrim_jsons/shuffled_g0_rotated_dr.json,http://54.89.209.186/DepthDuration/depth_discrimination_MTurk/DepthDiscrim_HTML.html#2,2,1425,821,1440,900,7-20-2021,11-33-50,56,,,,,,,1734,503,1003,1001,1000,499,,3,4,depth_discrimination_stimuli/001011_2014-06-08_23-18-54_260595134347_rgbf000044-resize_4/001011_2014-06-08_23-18-54_260595134347_rgbf000044-resize-original.jpg,7339,1288098,1458797,33
422523,DepthScenes,duration_discrimination,discrim_jsons/shuffled_g0_rotated_dr.json,http://54.89.209.186/DepthDuration/depth_discrimination_MTurk/DepthDiscrim_HTML.html#2,2,1425,821,1440,900,7-20-2021,11-33-50,57,,,,,,,1734,503,1003,1001,1000,499,,2,3,depth_discrimination_stimuli/003288_2014-05-14_21-50-30_094959634447_rgbf000028-resize_3/003288_2014-05-14_21-50-30_094959634447_rgbf000028-resize-original.jpg,5597,1288098,1458797,33
422523,DepthScenes,duration_discrimination,discrim_jsons/shuffled_g0_rotated_dr.json,http://54.89.209.186/DepthDuration/depth_discrimination_MTurk/DepthDiscrim_HTML.html#2,2,1425,821,1440,900,7-20-2021,11-33-50,58,,,,,,,1734,503,1003,1001,1000,499,,4,3,depth_discrimination_stimuli/000483_2014-06-09_20-41-45_260595134347_rgbf000116-resize_4/000483_2014-06-09_20-41-45_260595134347_rgbf000116-resize-original.jpg,5375,1288098,1458797,33
422523,DepthScenes,duration_discrimination,discrim_jsons/shuffled_g0_rotated_dr.json,http://54.89.209.186/DepthDuration/depth_discrimination_MTurk/DepthDiscrim_HTML.html#2,2,1425,821,1440,900,7-20-2021,11-33-50,59,,,,,,,1734,503,1003,1001,1000,499,,2,2,depth_discrimination_stimuli/001158_2014-06-17_15-32-16_260595134347_rgbf000138-resize_2/001158_2014-06-17_15-32-16_260595134347_rgbf000138-resize-original.jpg,3774,1288098,1458797,33
422523,DepthScenes,duration_discrimination,discrim_jsons/shuffled_g0_rotated_dr.json,http://54.89.209.186/DepthDuration/depth_discrimination_MTurk/DepthDiscrim_HTML.html#2,2,1425,821,1440,900,7-20-2021,11-33-50,60,,,,,,,1734,503,1003,1001,1000,499,,5,4,depth_discrimination_stimuli/002272_2014-06-28_18-53-56_260595134347_rgbf000067-resize_2/002272_2014-06-28_18-53-56_260595134347_rgbf000067-resize-original.jpg,12696,1288098,1458797,33
422523,DepthScenes,duration_discrimination,discrim_jsons/shuffled_g0_rotated_dr.json,http://54.89.209.186/DepthDuration/depth_discrimination_MTurk/DepthDiscrim_HTML.html#2,2,1425,821,1440,900,7-20-2021,11-33-50,61,,,,,,,1734,503,1003,1001,1000,499,,5,5,depth_discrimination_stimuli/002568_2014-06-24_13-59-21_094959634447_rgbf000062-resize_4/002568_2014-06-24_13-59-21_094959634447_rgbf000062-resize-original.jpg,4745,1288098,1458797,33
422523,DepthScenes,duration_discrimination,discrim_jsons/shuffled_g0_rotated_dr.json,http://54.89.209.186/DepthDuration/depth_discrimination_MTurk/DepthDiscrim_HTML.html#2,2,1425,821,1440,900,7-20-2021,11-33-50,62,,,,,,,1734,503,1003,1001,1000,499,,4,5,depth_discrimination_stimuli/003083_2014-06-15_15-21-03_094959634447_rgbf000063-resize_1/003083_2014-06-15_15-21-03_094959634447_rgbf000063-resize-original.jpg,4045,1288098,1458797,33
422523,DepthScenes,duration_discrimination,discrim_jsons/shuffled_g0_rotated_dr.json,http://54.89.209.186/DepthDuration/depth_discrimination_MTurk/DepthDiscrim_HTML.html#2,2,1425,821,1440,900,7-20-2021,11-33-50,63,,,,,,,1734,503,1003,1001,1000,499,,5,3,depth_discrimination_stimuli/001133_2014-06-17_14-49-16_260595134347_rgbf000100-resize_0/001133_2014-06-17_14-49-16_260595134347_rgbf000100-resize-original.jpg,3958,1288098,1458797,33
422523,DepthScenes,duration_discrimination,discrim_jsons/shuffled_g0_rotated_dr.json,http://54.89.209.186/DepthDuration/depth_discrimination_MTurk/DepthDiscrim_HTML.html#2,2,1425,821,1440,900,7-20-2021,11-33-50,64,,,,,,,1734,503,1003,1001,1000,499,,5,3,depth_discrimination_stimuli/002464_2014-06-28_20-36-57_260595134347_rgbf000029-resize_0/002464_2014-06-28_20-36-57_260595134347_rgbf000029-resize-original.jpg,2779,1288098,1458797,33
422523,DepthScenes,duration_discrimination,discrim_jsons/shuffled_g0_rotated_dr.json,http://54.89.209.186/DepthDuration/depth_discrimination_MTurk/DepthDiscrim_HTML.html#2,2,1425,821,1440,900,7-20-2021,11-33-50,65,,,,,,,1734,503,1003,1001,1000,499,,5,4,depth_discrimination_stimuli/002375_2014-06-28_20-13-44_260595134347_rgbf000032-resize_1/002375_2014-06-28_20-13-44_260595134347_rgbf000032-resize-original.jpg,6073,1288098,1458797,33
422523,DepthScenes,duration_discrimination,discrim_jsons/shuffled_g0_rotated_dr.json,http://54.89.209.186/DepthDuration/depth_discrimination_MTurk/DepthDiscrim_HTML.html#2,2,1425,821,1440,900,7-20-2021,11-33-50,66,,,,,,,1734,503,1003,1001,1000,499,,3,3,depth_discrimination_stimuli/001214_2014-06-17_16-13-55_260595134347_rgbf000111-resize_0/001214_2014-06-17_16-13-55_260595134347_rgbf000111-resize-original.jpg,5868,1288098,1458797,33
422523,DepthScenes,duration_discrimination,discrim_jsons/shuffled_g0_rotated_dr.json,http://54.89.209.186/DepthDuration/depth_discrimination_MTurk/DepthDiscrim_HTML.html#2,2,1425,821,1440,900,7-20-2021,11-33-50,67,,,,,,,1734,503,1003,1001,1000,499,,2,1,depth_discrimination_stimuli/002763_2014-06-22_19-13-10_094959634447_rgbf000075-resize_4/002763_2014-06-22_19-13-10_094959634447_rgbf000075-resize-original.jpg,10792,1288098,1458797,33
422523,DepthScenes,duration_discrimination,discrim_jsons/shuffled_g0_rotated_dr.json,http://54.89.209.186/DepthDuration/depth_discrimination_MTurk/DepthDiscrim_HTML.html#2,2,1425,821,1440,900,7-20-2021,11-33-50,68,,,,,,,1734,503,1003,1001,1000,499,,4,4,depth_discrimination_stimuli/001052_2014-06-08_18-24-54_260595134347_rgbf000130-resize_1/001052_2014-06-08_18-24-54_260595134347_rgbf000130-resize-original.jpg,9465,1288098,1458797,33
422523,DepthScenes,duration_discrimination,discrim_jsons/shuffled_g0_rotated_dr.json,http://54.89.209.186/DepthDuration/depth_discrimination_MTurk/DepthDiscrim_HTML.html#2,2,1425,821,1440,900,7-20-2021,11-33-50,69,,,,,,,1734,503,1003,1001,1000,499,,2,2,depth_discrimination_stimuli/001055_2014-06-08_18-45-35_260595134347_rgbf000111-resize_4/001055_2014-06-08_18-45-35_260595134347_rgbf000111-resize-original.jpg,8330,1288098,1458797,33
422523,DepthScenes,duration_discrimination,discrim_jsons/shuffled_g0_rotated_dr.json,http://54.89.209.186/DepthDuration/depth_discrimination_MTurk/DepthDiscrim_HTML.html#2,2,1425,821,1440,900,7-20-2021,11-33-50,70,,,,,,,1734,503,1003,1001,1000,499,,2,3,depth_discrimination_stimuli/002136_2014-06-25_21-18-03_260595134347_rgbf000109-resize_3/002136_2014-06-25_21-18-03_260595134347_rgbf000109-resize-original.jpg,3693,1288098,1458797,33
422523,DepthScenes,duration_discrimination,discrim_jsons/shuffled_g0_rotated_dr.json,http://54.89.209.186/DepthDuration/depth_discrimination_MTurk/DepthDiscrim_HTML.html#2,2,1425,821,1440,900,7-20-2021,11-33-50,71,,,,,,,1734,503,1003,1001,1000,499,,2,4,depth_discrimination_stimuli/003010_2014-06-15_12-54-35_094959634447_rgbf000112-resize_0/003010_2014-06-15_12-54-35_094959634447_rgbf000112-resize-original.jpg,9689,1288098,1458797,33
422523,DepthScenes,duration_discrimination,discrim_jsons/shuffled_g0_rotated_dr.json,http://54.89.209.186/DepthDuration/depth_discrimination_MTurk/DepthDiscrim_HTML.html#2,2,1425,821,1440,900,7-20-2021,11-33-50,72,,,,,,,1734,503,1003,1001,1000,499,,2,3,depth_discrimination_stimuli/003081_2014-06-15_15-19-16_094959634447_rgbf000150-resize_1/003081_2014-06-15_15-19-16_094959634447_rgbf000150-resize-original.jpg,4830,1288098,1458797,33
422523,DepthScenes,duration_discrimination,discrim_jsons/shuffled_g0_rotated_dr.json,http://54.89.209.186/DepthDuration/depth_discrimination_MTurk/DepthDiscrim_HTML.html#2,2,1425,821,1440,900,7-20-2021,11-33-50,73,,,,,,,1734,503,1003,1001,1000,499,,3,3,depth_discrimination_stimuli/002748_2014-06-22_19-07-22_094959634447_rgbf000078-resize_1/002748_2014-06-22_19-07-22_094959634447_rgbf000078-resize-original.jpg,7363,1288098,1458797,33
422523,DepthScenes,duration_discrimination,discrim_jsons/shuffled_g0_rotated_dr.json,http://54.89.209.186/DepthDuration/depth_discrimination_MTurk/DepthDiscrim_HTML.html#2,2,1425,821,1440,900,7-20-2021,11-33-50,74,,,,,,,1734,503,1003,1001,1000,499,,4,3,depth_discrimination_stimuli/000556_2014-06-09_22-42-56_260595134347_rgbf000214-resize_1/000556_2014-06-09_22-42-56_260595134347_rgbf000214-resize-original.jpg,4206,1288098,1458797,33
422523,DepthScenes,duration_discrimination,discrim_jsons/shuffled_g0_rotated_dr.json,http://54.89.209.186/DepthDuration/depth_discrimination_MTurk/DepthDiscrim_HTML.html#2,2,1425,821,1440,900,7-20-2021,11-33-50,75,,,,,,,1734,503,1003,1001,1000,499,,1,4,depth_discrimination_stimuli/002905_2014-06-03_18-04-43_094959634447_rgbf000151-resize_2/002905_2014-06-03_18-04-43_094959634447_rgbf000151-resize-original.jpg,6177,1288098,1458797,33
422523,DepthScenes,duration_discrimination,discrim_jsons/shuffled_g0_rotated_dr.json,http://54.89.209.186/DepthDuration/depth_discrimination_MTurk/DepthDiscrim_HTML.html#2,2,1425,821,1440,900,7-20-2021,11-33-50,76,,,,,,,1734,503,1003,1001,1000,499,,2,3,depth_discrimination_stimuli/000869_2014-06-09_20-50-18_260595134347_rgbf000060-resize_3/000869_2014-06-09_20-50-18_260595134347_rgbf000060-resize-original.jpg,5798,1288098,1458797,33
422523,DepthScenes,duration_discrimination,discrim_jsons/shuffled_g0_rotated_dr.json,http://54.89.209.186/DepthDuration/depth_discrimination_MTurk/DepthDiscrim_HTML.html#2,2,1425,821,1440,900,7-20-2021,11-33-50,77,,,,,,,1734,503,1003,1001,1000,499,,3,3,depth_discrimination_stimuli/003292_2014-05-14_21-53-49_094959634447_rgbf000100-resize_2/003292_2014-05-14_21-53-49_094959634447_rgbf000100-resize-original.jpg,7028,1288098,1458797,33
422523,DepthScenes,duration_discrimination,discrim_jsons/shuffled_g0_rotated_dr.json,http://54.89.209.186/DepthDuration/depth_discrimination_MTurk/DepthDiscrim_HTML.html#2,2,1425,821,1440,900,7-20-2021,11-33-50,78,,,,,,,1734,503,1003,1001,1000,499,,4,3,depth_discrimination_stimuli/002414_2014-06-28_20-24-58_260595134347_rgbf000067-resize_4/002414_2014-06-28_20-24-58_260595134347_rgbf000067-resize-original.jpg,4960,1288098,1458797,33
422523,DepthScenes,duration_discrimination,discrim_jsons/shuffled_g0_rotated_dr.json,http://54.89.209.186/DepthDuration/depth_discrimination_MTurk/DepthDiscrim_HTML.html#2,2,1425,821,1440,900,7-20-2021,11-33-50,79,,,,,,,1734,503,1003,1001,1000,499,,3,3,depth_discrimination_stimuli/001828_2014-06-26_21-40-03_260595134347_rgbf000024-resize_0/001828_2014-06-26_21-40-03_260595134347_rgbf000024-resize-original.jpg,5691,1288098,1458797,33
422523,DepthScenes,duration_discrimination,discrim_jsons/shuffled_g0_rotated_dr.json,http://54.89.209.186/DepthDuration/depth_discrimination_MTurk/DepthDiscrim_HTML.html#2,2,1425,821,1440,900,7-20-2021,11-33-50,80,,,,,,,1734,503,1003,1001,1000,499,,5,4,depth_discrimination_stimuli/000555_2014-06-09_22-42-23_260595134347_rgbf000037-resize_4/000555_2014-06-09_22-42-23_260595134347_rgbf000037-resize-original.jpg,6311,1288098,1458797,33
422523,DepthScenes,duration_discrimination,discrim_jsons/shuffled_g0_rotated_dr.json,http://54.89.209.186/DepthDuration/depth_discrimination_MTurk/DepthDiscrim_HTML.html#2,2,1425,821,1440,900,7-20-2021,11-33-50,81,,,,,,,1734,503,1003,1001,1000,499,,2,4,depth_discrimination_stimuli/003079_2014-06-15_15-18-20_094959634447_rgbf000152-resize_8/003079_2014-06-15_15-18-20_094959634447_rgbf000152-resize-original.jpg,9247,1288098,1458797,33
422523,DepthScenes,duration_discrimination,discrim_jsons/shuffled_g0_rotated_dr.json,http://54.89.209.186/DepthDuration/depth_discrimination_MTurk/DepthDiscrim_HTML.html#2,2,1425,821,1440,900,7-20-2021,11-33-50,82,,,,,,,1734,503,1003,1001,1000,499,,4,3,depth_discrimination_stimuli/002467_2014-06-28_20-38-07_260595134347_rgbf000026-resize_2/002467_2014-06-28_20-38-07_260595134347_rgbf000026-resize-original.jpg,4609,1288098,1458797,33
422523,DepthScenes,duration_discrimination,discrim_jsons/shuffled_g0_rotated_dr.json,http://54.89.209.186/DepthDuration/depth_discrimination_MTurk/DepthDiscrim_HTML.html#2,2,1425,821,1440,900,7-20-2021,11-33-50,83,,,,,,,1734,503,1003,1001,1000,499,,3,2,depth_discrimination_stimuli/002340_2014-06-28_20-05-46_260595134347_rgbf000113-resize_0/002340_2014-06-28_20-05-46_260595134347_rgbf000113-resize-original.jpg,4936,1288098,1458797,33
422523,DepthScenes,duration_discrimination,discrim_jsons/shuffled_g0_rotated_dr.json,http://54.89.209.186/DepthDuration/depth_discrimination_MTurk/DepthDiscrim_HTML.html#2,2,1425,821,1440,900,7-20-2021,11-33-50,84,,,,,,,1734,503,1003,1001,1000,499,,2,4,depth_discrimination_stimuli/000502_2014-06-08_23-02-32_260595134347_rgbf000063-resize_4/000502_2014-06-08_23-02-32_260595134347_rgbf000063-resize-original.jpg,4403,1288098,1458797,33
422523,DepthScenes,duration_discrimination,discrim_jsons/shuffled_g0_rotated_dr.json,http://54.89.209.186/DepthDuration/depth_discrimination_MTurk/DepthDiscrim_HTML.html#2,2,1425,821,1440,900,7-20-2021,11-33-50,85,,,,,,,1734,503,1003,1001,1000,499,,2,2,depth_discrimination_stimuli/001289_2014-06-16_16-25-52_260595134347_rgbf000067-resize_1/001289_2014-06-16_16-25-52_260595134347_rgbf000067-resize-original.jpg,6360,1288098,1458797,33
422523,DepthScenes,duration_discrimination,discrim_jsons/shuffled_g0_rotated_dr.json,http://54.89.209.186/DepthDuration/depth_discrimination_MTurk/DepthDiscrim_HTML.html#2,2,1425,821,1440,900,7-20-2021,11-33-50,86,,,,,,,1734,503,1003,1001,1000,499,,3,4,depth_discrimination_stimuli/000736_2014-06-08_18-24-15_260595134347_rgbf000206-resize_3/000736_2014-06-08_18-24-15_260595134347_rgbf000206-resize-original.jpg,16723,1288098,1458797,33
422523,DepthScenes,duration_discrimination,discrim_jsons/shuffled_g0_rotated_dr.json,http://54.89.209.186/DepthDuration/depth_discrimination_MTurk/DepthDiscrim_HTML.html#2,2,1425,821,1440,900,7-20-2021,11-33-50,87,,,,,,,1734,503,1003,1001,1000,499,,2,2,depth_discrimination_stimuli/001450_2014-06-19_17-02-03_260595134347_rgbf000203-resize_4/001450_2014-06-19_17-02-03_260595134347_rgbf000203-resize-original.jpg,4727,1288098,1458797,33
422523,DepthScenes,duration_discrimination,discrim_jsons/shuffled_g0_rotated_dr.json,http://54.89.209.186/DepthDuration/depth_discrimination_MTurk/DepthDiscrim_HTML.html#2,2,1425,821,1440,900,7-20-2021,11-33-50,88,,,,,,,1734,503,1003,1001,1000,499,,4,3,depth_discrimination_stimuli/003423_2014-05-21_10-23-26_094959634447_rgbf002665-resize_2/003423_2014-05-21_10-23-26_094959634447_rgbf002665-resize-original.jpg,5539,1288098,1458797,33
422523,DepthScenes,duration_discrimination,discrim_jsons/shuffled_g0_rotated_dr.json,http://54.89.209.186/DepthDuration/depth_discrimination_MTurk/DepthDiscrim_HTML.html#2,2,1425,821,1440,900,7-20-2021,11-33-50,89,,,,,,,1734,503,1003,1001,1000,499,,2,3,depth_discrimination_stimuli/002103_2014-06-25_20-00-40_260595134347_rgbf000049-resize_0/002103_2014-06-25_20-00-40_260595134347_rgbf000049-resize-original.jpg,5247,1288098,1458797,33
422523,DepthScenes,duration_discrimination,discrim_jsons/shuffled_g0_rotated_dr.json,http://54.89.209.186/DepthDuration/depth_discrimination_MTurk/DepthDiscrim_HTML.html#2,2,1425,821,1440,900,7-20-2021,11-33-50,90,,,,,,,1734,503,1003,1001,1000,499,,5,4,depth_discrimination_stimuli/002445_2014-06-28_20-32-16_260595134347_rgbf000029-resize_4/002445_2014-06-28_20-32-16_260595134347_rgbf000029-resize-original.jpg,4217,1288098,1458797,33
422523,DepthScenes,duration_discrimination,discrim_jsons/shuffled_g0_rotated_dr.json,http://54.89.209.186/DepthDuration/depth_discrimination_MTurk/DepthDiscrim_HTML.html#2,2,1425,821,1440,900,7-20-2021,11-33-50,91,,,,,,,1734,503,1003,1001,1000,499,,3,1,depth_discrimination_stimuli/003621_2014-05-23_18-06-08_094959634447_rgbf000101-resize_1/003621_2014-05-23_18-06-08_094959634447_rgbf000101-resize-original.jpg,9751,1288098,1458797,33
422523,DepthScenes,duration_discrimination,discrim_jsons/shuffled_g0_rotated_dr.json,http://54.89.209.186/DepthDuration/depth_discrimination_MTurk/DepthDiscrim_HTML.html#2,2,1425,821,1440,900,7-20-2021,11-33-50,92,,,,,,,1734,503,1003,1001,1000,499,,3,2,depth_discrimination_stimuli/002039_2014-06-24_20-22-38_260595134347_rgbf000084-resize_1/002039_2014-06-24_20-22-38_260595134347_rgbf000084-resize-original.jpg,5364,1288098,1458797,33
422523,DepthScenes,duration_discrimination,discrim_jsons/shuffled_g0_rotated_dr.json,http://54.89.209.186/DepthDuration/depth_discrimination_MTurk/DepthDiscrim_HTML.html#2,2,1425,821,1440,900,7-20-2021,11-33-50,93,,,,,,,1734,503,1003,1001,1000,499,,2,3,depth_discrimination_stimuli/002637_2014-06-24_14-51-13_094959634447_rgbf000066-resize_4/002637_2014-06-24_14-51-13_094959634447_rgbf000066-resize-original.jpg,3453,1288098,1458797,33
422523,DepthScenes,duration_discrimination,discrim_jsons/shuffled_g0_rotated_dr.json,http://54.89.209.186/DepthDuration/depth_discrimination_MTurk/DepthDiscrim_HTML.html#2,2,1425,821,1440,900,7-20-2021,11-33-50,94,,,,,,,1734,503,1003,1001,1000,499,,2,3,depth_discrimination_stimuli/002750_2014-06-22_19-08-03_094959634447_rgbf000094-resize_4/002750_2014-06-22_19-08-03_094959634447_rgbf000094-resize-original.jpg,3965,1288098,1458797,33
422523,DepthScenes,duration_discrimination,discrim_jsons/shuffled_g0_rotated_dr.json,http://54.89.209.186/DepthDuration/depth_discrimination_MTurk/DepthDiscrim_HTML.html#2,2,1425,821,1440,900,7-20-2021,11-33-50,95,,,,,,,1734,503,1003,1001,1000,499,,2,4,depth_discrimination_stimuli/000830_2014-06-04_19-49-31_260595134347_rgbf000096-resize_2/000830_2014-06-04_19-49-31_260595134347_rgbf000096-resize-original.jpg,4377,1288098,1458797,33
422523,DepthScenes,duration_discrimination,discrim_jsons/shuffled_g0_rotated_dr.json,http://54.89.209.186/DepthDuration/depth_discrimination_MTurk/DepthDiscrim_HTML.html#2,2,1425,821,1440,900,7-20-2021,11-33-50,96,,,,,,,1734,503,1003,1001,1000,499,,2,4,depth_discrimination_stimuli/001094_2014-06-15_17-36-00_260595134347_rgbf000205-resize_0/001094_2014-06-15_17-36-00_260595134347_rgbf000205-resize-original.jpg,2362,1288098,1458797,33
422523,DepthScenes,duration_discrimination,discrim_jsons/shuffled_g0_rotated_dr.json,http://54.89.209.186/DepthDuration/depth_discrimination_MTurk/DepthDiscrim_HTML.html#2,2,1425,821,1440,900,7-20-2021,11-33-50,97,,,,,,,1734,503,1003,1001,1000,499,,3,2,depth_discrimination_stimuli/000758_2014-06-08_22-05-08_260595134347_rgbf000085-resize_0/000758_2014-06-08_22-05-08_260595134347_rgbf000085-resize-original.jpg,6713,1288098,1458797,33
422523,DepthScenes,duration_discrimination,discrim_jsons/shuffled_g0_rotated_dr.json,http://54.89.209.186/DepthDuration/depth_discrimination_MTurk/DepthDiscrim_HTML.html#2,2,1425,821,1440,900,7-20-2021,11-33-50,98,,,,,,,1734,503,1003,1001,1000,499,,4,2,depth_discrimination_stimuli/001417_2014-06-19_16-25-36_260595134347_rgbf000115-resize_5/001417_2014-06-19_16-25-36_260595134347_rgbf000115-resize-original.jpg,8960,1288098,1458797,33
422523,DepthScenes,duration_discrimination,discrim_jsons/shuffled_g0_rotated_dr.json,http://54.89.209.186/DepthDuration/depth_discrimination_MTurk/DepthDiscrim_HTML.html#2,2,1425,821,1440,900,7-20-2021,11-33-50,99,,,,,,,1734,503,1003,1001,1000,499,,5,1,depth_discrimination_stimuli/000521_2014-06-08_13-34-35_260595134347_rgbf000191-resize_2/000521_2014-06-08_13-34-35_260595134347_rgbf000191-resize-original.jpg,4214,1288098,1458797,33
422523,DepthScenes,duration_discrimination,discrim_jsons/shuffled_g0_rotated_dr.json,http://54.89.209.186/DepthDuration/depth_discrimination_MTurk/DepthDiscrim_HTML.html#2,2,1425,821,1440,900,7-20-2021,11-33-50,100,,,,,,,1734,503,1003,1001,1000,499,,4,1,depth_discrimination_stimuli/000677_2014-06-08_23-10-32_260595134347_rgbf000158-resize_6/000677_2014-06-08_23-10-32_260595134347_rgbf000158-resize-original.jpg,2757,1288098,1458797,33
422523,DepthScenes,duration_discrimination,discrim_jsons/shuffled_g0_rotated_dr.json,http://54.89.209.186/DepthDuration/depth_discrimination_MTurk/DepthDiscrim_HTML.html#2,2,1425,821,1440,900,7-20-2021,11-33-50,101,,,,,,,1734,503,1003,1001,1000,499,,4,2,depth_discrimination_stimuli/001264_2014-06-16_16-10-23_260595134347_rgbf000109-resize_1/001264_2014-06-16_16-10-23_260595134347_rgbf000109-resize-original.jpg,3334,1288098,1458797,33
422523,DepthScenes,duration_discrimination,discrim_jsons/shuffled_g0_rotated_dr.json,http://54.89.209.186/DepthDuration/depth_discrimination_MTurk/DepthDiscrim_HTML.html#2,2,1425,821,1440,900,7-20-2021,11-33-50,102,,,,,,,1734,503,1003,1001,1000,499,,5,4,depth_discrimination_stimuli/000522_2014-06-08_13-35-06_260595134347_rgbf000244-resize_1/000522_2014-06-08_13-35-06_260595134347_rgbf000244-resize-original.jpg,5015,1288098,1458797,33
422523,DepthScenes,duration_discrimination,discrim_jsons/shuffled_g0_rotated_dr.json,http://54.89.209.186/DepthDuration/depth_discrimination_MTurk/DepthDiscrim_HTML.html#2,2,1425,821,1440,900,7-20-2021,11-33-50,103,,,,,,,1734,503,1003,1001,1000,499,,1,2,depth_discrimination_stimuli/002139_2014-06-25_21-19-37_260595134347_rgbf000124-resize_2/002139_2014-06-25_21-19-37_260595134347_rgbf000124-resize-original.jpg,6853,1288098,1458797,33
422523,DepthScenes,duration_discrimination,discrim_jsons/shuffled_g0_rotated_dr.json,http://54.89.209.186/DepthDuration/depth_discrimination_MTurk/DepthDiscrim_HTML.html#2,2,1425,821,1440,900,7-20-2021,11-33-50,104,,,,,,,1734,503,1003,1001,1000,499,,2,3,depth_discrimination_stimuli/001016_2014-06-09_16-16-10_260595134347_rgbf000112-resize_5/001016_2014-06-09_16-16-10_260595134347_rgbf000112-resize-original.jpg,4551,1288098,1458797,33
422523,DepthScenes,duration_discrimination,discrim_jsons/shuffled_g0_rotated_dr.json,http://54.89.209.186/DepthDuration/depth_discrimination_MTurk/DepthDiscrim_HTML.html#2,2,1425,821,1440,900,7-20-2021,11-33-50,105,,,,,,,1734,503,1003,1001,1000,499,,5,2,depth_discrimination_stimuli/002323_2014-06-28_20-01-54_260595134347_rgbf000051-resize_4/002323_2014-06-28_20-01-54_260595134347_rgbf000051-resize-original.jpg,6265,1288098,1458797,33
422523,DepthScenes,duration_discrimination,discrim_jsons/shuffled_g0_rotated_dr.json,http://54.89.209.186/DepthDuration/depth_discrimination_MTurk/DepthDiscrim_HTML.html#2,2,1425,821,1440,900,7-20-2021,11-33-50,106,,,,,,,1734,503,1003,1001,1000,499,,4,1,depth_discrimination_stimuli/002509_2014-06-24_13-19-22_094959634447_rgbf000077-resize_0/002509_2014-06-24_13-19-22_094959634447_rgbf000077-resize-original.jpg,5589,1288098,1458797,33
422523,DepthScenes,duration_discrimination,discrim_jsons/shuffled_g0_rotated_dr.json,http://54.89.209.186/DepthDuration/depth_discrimination_MTurk/DepthDiscrim_HTML.html#2,2,1425,821,1440,900,7-20-2021,11-33-50,107,,,,,,,1734,503,1003,1001,1000,499,,2,3,depth_discrimination_stimuli/001532_2014-06-20_16-50-41_260595134347_rgbf000081-resize_4/001532_2014-06-20_16-50-41_260595134347_rgbf000081-resize-original.jpg,9086,1288098,1458797,33
422523,DepthScenes,duration_discrimination,discrim_jsons/shuffled_g0_rotated_dr.json,http://54.89.209.186/DepthDuration/depth_discrimination_MTurk/DepthDiscrim_HTML.html#2,2,1425,821,1440,900,7-20-2021,11-33-50,108,,,,,,,1734,503,1003,1001,1000,499,,2,3,depth_discrimination_stimuli/000368_2014-06-09_15-53-01_260595134347_rgbf000155-resize_2/000368_2014-06-09_15-53-01_260595134347_rgbf000155-resize-original.jpg,4787,1288098,1458797,33
422523,DepthScenes,duration_discrimination,discrim_jsons/shuffled_g0_rotated_dr.json,http://54.89.209.186/DepthDuration/depth_discrimination_MTurk/DepthDiscrim_HTML.html#2,2,1425,821,1440,900,7-20-2021,11-33-50,109,,,,,,,1734,503,1003,1001,1000,499,,3,1,depth_discrimination_stimuli/002579_2014-06-24_14-08-03_094959634447_rgbf000061-resize_2/002579_2014-06-24_14-08-03_094959634447_rgbf000061-resize-original.jpg,4023,1288098,1458797,33
422523,DepthScenes,duration_discrimination,discrim_jsons/shuffled_g0_rotated_dr.json,http://54.89.209.186/DepthDuration/depth_discrimination_MTurk/DepthDiscrim_HTML.html#2,2,1425,821,1440,900,7-20-2021,11-33-50,110,,,,,,,1734,503,1003,1001,1000,499,,3,1,depth_discrimination_stimuli/003092_2014-06-24_21-01-49_094959634447_rgbf000049-resize_2/003092_2014-06-24_21-01-49_094959634447_rgbf000049-resize-original.jpg,4037,1288098,1458797,33
422523,DepthScenes,duration_discrimination,discrim_jsons/shuffled_g0_rotated_dr.json,http://54.89.209.186/DepthDuration/depth_discrimination_MTurk/DepthDiscrim_HTML.html#2,2,1425,821,1440,900,7-20-2021,11-33-50,111,,,,,,,1734,503,1003,1001,1000,499,,2,1,depth_discrimination_stimuli/002639_2014-06-24_14-51-37_094959634447_rgbf000074-resize_4/002639_2014-06-24_14-51-37_094959634447_rgbf000074-resize-original.jpg,5585,1288098,1458797,33
422523,DepthScenes,duration_discrimination,discrim_jsons/shuffled_g0_rotated_dr.json,http://54.89.209.186/DepthDuration/depth_discrimination_MTurk/DepthDiscrim_HTML.html#2,2,1425,821,1440,900,7-20-2021,11-33-50,112,,,,,,,1734,503,1003,1001,1000,499,,3,3,depth_discrimination_stimuli/000917_2014-06-09_22-45-29_260595134347_rgbf000149-resize_3/000917_2014-06-09_22-45-29_260595134347_rgbf000149-resize-original.jpg,4528,1288098,1458797,33
422523,DepthScenes,duration_discrimination,discrim_jsons/shuffled_g0_rotated_dr.json,http://54.89.209.186/DepthDuration/depth_discrimination_MTurk/DepthDiscrim_HTML.html#2,2,1425,821,1440,900,7-20-2021,11-33-50,113,,,,,,,1734,503,1003,1001,1000,499,,2,3,depth_discrimination_stimuli/001584_2014-06-20_11-07-43_260595134347_rgbf000002-resize_1/001584_2014-06-20_11-07-43_260595134347_rgbf000002-resize-original.jpg,4086,1288098,1458797,33
422523,DepthScenes,duration_discrimination,discrim_jsons/shuffled_g0_rotated_dr.json,http://54.89.209.186/DepthDuration/depth_discrimination_MTurk/DepthDiscrim_HTML.html#2,2,1425,821,1440,900,7-20-2021,11-33-50,114,,,,,,,1734,503,1003,1001,1000,499,,2,1,depth_discrimination_stimuli/002630_2014-06-24_14-47-50_094959634447_rgbf000055-resize_1/002630_2014-06-24_14-47-50_094959634447_rgbf000055-resize-original.jpg,6062,1288098,1458797,33
422523,DepthScenes,duration_discrimination,discrim_jsons/shuffled_g0_rotated_dr.json,http://54.89.209.186/DepthDuration/depth_discrimination_MTurk/DepthDiscrim_HTML.html#2,2,1425,821,1440,900,7-20-2021,11-33-50,115,,,,,,,1734,503,1003,1001,1000,499,,5,3,depth_discrimination_stimuli/002460_2014-06-28_20-35-43_260595134347_rgbf000028-resize_4/002460_2014-06-28_20-35-43_260595134347_rgbf000028-resize-original.jpg,5918,1288098,1458797,33
422523,DepthScenes,duration_discrimination,discrim_jsons/shuffled_g0_rotated_dr.json,http://54.89.209.186/DepthDuration/depth_discrimination_MTurk/DepthDiscrim_HTML.html#2,2,1425,821,1440,900,7-20-2021,11-33-50,116,,,,,,,1734,503,1003,1001,1000,499,,4,2,depth_discrimination_stimuli/002758_2014-06-22_19-11-20_094959634447_rgbf000128-resize_1/002758_2014-06-22_19-11-20_094959634447_rgbf000128-resize-original.jpg,10382,1288098,1458797,33
422523,DepthScenes,duration_discrimination,discrim_jsons/shuffled_g0_rotated_dr.json,http://54.89.209.186/DepthDuration/depth_discrimination_MTurk/DepthDiscrim_HTML.html#2,2,1425,821,1440,900,7-20-2021,11-33-50,117,,,,,,,1734,503,1003,1001,1000,499,,2,3,depth_discrimination_stimuli/000810_2014-06-08_17-20-01_260595134347_rgbf000105-resize_0/000810_2014-06-08_17-20-01_260595134347_rgbf000105-resize-original.jpg,11330,1288098,1458797,33
422523,DepthScenes,duration_discrimination,discrim_jsons/shuffled_g0_rotated_dr.json,http://54.89.209.186/DepthDuration/depth_discrimination_MTurk/DepthDiscrim_HTML.html#2,2,1425,821,1440,900,7-20-2021,11-33-50,118,,,,,,,1734,503,1003,1001,1000,499,,2,3,depth_discrimination_stimuli/000734_2014-06-08_17-39-11_260595134347_rgbf000128-resize_2/000734_2014-06-08_17-39-11_260595134347_rgbf000128-resize-original.jpg,12990,1288098,1458797,33
422523,DepthScenes,duration_discrimination,discrim_jsons/shuffled_g0_rotated_dr.json,http://54.89.209.186/DepthDuration/depth_discrimination_MTurk/DepthDiscrim_HTML.html#2,2,1425,821,1440,900,7-20-2021,11-33-50,119,,,,,,,1734,503,1003,1001,1000,499,,4,2,depth_discrimination_stimuli/001571_2014-06-20_17-21-32_260595134347_rgbf000089-resize_1/001571_2014-06-20_17-21-32_260595134347_rgbf000089-resize-original.jpg,6075,1288098,1458797,33
422523,DepthScenes,duration_discrimination,discrim_jsons/shuffled_g0_rotated_dr.json,http://54.89.209.186/DepthDuration/depth_discrimination_MTurk/DepthDiscrim_HTML.html#2,2,1425,821,1440,900,7-20-2021,11-33-50,120,,,,,,,1734,503,1003,1001,1000,499,,3,2,depth_discrimination_stimuli/000414_2014-06-04_19-49-13_260595134347_rgbf000044-resize_0/000414_2014-06-04_19-49-13_260595134347_rgbf000044-resize-original.jpg,3221,1288098,1458797,33
422523,DepthScenes,duration_discrimination,discrim_jsons/shuffled_g0_rotated_dr.json,http://54.89.209.186/DepthDuration/depth_discrimination_MTurk/DepthDiscrim_HTML.html#2,2,1425,821,1440,900,7-20-2021,11-33-50,121,,,,,,,1734,503,1003,1001,1000,499,,3,3,depth_discrimination_stimuli/001167_2014-06-17_15-38-07_260595134347_rgbf000108-resize_0/001167_2014-06-17_15-38-07_260595134347_rgbf000108-resize-original.jpg,5391,1288098,1458797,33
422523,DepthScenes,duration_discrimination,discrim_jsons/shuffled_g0_rotated_dr.json,http://54.89.209.186/DepthDuration/depth_discrimination_MTurk/DepthDiscrim_HTML.html#2,2,1425,821,1440,900,7-20-2021,11-33-50,122,,,,,,,1734,503,1003,1001,1000,499,,4,3,depth_discrimination_stimuli/003490_2014-05-21_15-50-11_094959634447_rgbf000101-resize_3/003490_2014-05-21_15-50-11_094959634447_rgbf000101-resize-original.jpg,3572,1288098,1458797,33
422523,DepthScenes,duration_discrimination,discrim_jsons/shuffled_g0_rotated_dr.json,http://54.89.209.186/DepthDuration/depth_discrimination_MTurk/DepthDiscrim_HTML.html#2,2,1425,821,1440,900,7-20-2021,11-33-50,123,,,,,,,1734,503,1003,1001,1000,499,,4,3,depth_discrimination_stimuli/001132_2014-06-17_14-48-54_260595134347_rgbf000100-resize_2/001132_2014-06-17_14-48-54_260595134347_rgbf000100-resize-original.jpg,4719,1288098,1458797,33
422523,DepthScenes,duration_discrimination,discrim_jsons/shuffled_g0_rotated_dr.json,http://54.89.209.186/DepthDuration/depth_discrimination_MTurk/DepthDiscrim_HTML.html#2,2,1425,821,1440,900,7-20-2021,11-33-50,124,,,,,,,1734,503,1003,1001,1000,499,,2,5,depth_discrimination_stimuli/002725_2014-06-22_11-47-51_094959634447_rgbf000070-resize_1/002725_2014-06-22_11-47-51_094959634447_rgbf000070-resize-original.jpg,7235,1288098,1458797,33
422523,DepthScenes,duration_discrimination,discrim_jsons/shuffled_g0_rotated_dr.json,http://54.89.209.186/DepthDuration/depth_discrimination_MTurk/DepthDiscrim_HTML.html#2,2,1425,821,1440,900,7-20-2021,11-33-50,125,,,,,,,1734,503,1003,1001,1000,499,,4,3,depth_discrimination_stimuli/000720_2014-06-08_18-37-27_260595134347_rgbf000203-resize_4/000720_2014-06-08_18-37-27_260595134347_rgbf000203-resize-original.jpg,16357,1288098,1458797,33
422523,DepthScenes,duration_discrimination,discrim_jsons/shuffled_g0_rotated_dr.json,http://54.89.209.186/DepthDuration/depth_discrimination_MTurk/DepthDiscrim_HTML.html#2,2,1425,821,1440,900,7-20-2021,11-33-50,126,,,,,,,1734,503,1003,1001,1000,499,,4,2,depth_discrimination_stimuli/001059_2014-06-08_21-53-27_260595134347_rgbf000061-resize_4/001059_2014-06-08_21-53-27_260595134347_rgbf000061-resize-original.jpg,2798,1288098,1458797,33
422523,DepthScenes,duration_discrimination,discrim_jsons/shuffled_g0_rotated_dr.json,http://54.89.209.186/DepthDuration/depth_discrimination_MTurk/DepthDiscrim_HTML.html#2,2,1425,821,1440,900,7-20-2021,11-33-50,127,,,,,,,1734,503,1003,1001,1000,499,,3,2,depth_discrimination_stimuli/003070_2014-06-15_14-58-27_094959634447_rgbf000150-resize_3/003070_2014-06-15_14-58-27_094959634447_rgbf000150-resize-original.jpg,7562,1288098,1458797,33
422523,DepthScenes,duration_discrimination,discrim_jsons/shuffled_g0_rotated_dr.json,http://54.89.209.186/DepthDuration/depth_discrimination_MTurk/DepthDiscrim_HTML.html#2,2,1425,821,1440,900,7-20-2021,11-33-50,128,,,,,,,1734,503,1003,1001,1000,499,,4,4,depth_discrimination_stimuli/000788_2014-06-08_22-34-36_260595134347_rgbf000131-resize_1/000788_2014-06-08_22-34-36_260595134347_rgbf000131-resize-original.jpg,6388,1288098,1458797,33
422523,DepthScenes,duration_discrimination,discrim_jsons/shuffled_g0_rotated_dr.json,http://54.89.209.186/DepthDuration/depth_discrimination_MTurk/DepthDiscrim_HTML.html#2,2,1425,821,1440,900,7-20-2021,11-33-50,129,,,,,,,1734,503,1003,1001,1000,499,,4,4,depth_discrimination_stimuli/002305_2014-06-28_19-56-50_260595134347_rgbf000102-resize_7/002305_2014-06-28_19-56-50_260595134347_rgbf000102-resize-original.jpg,6798,1288098,1458797,33
422523,DepthScenes,duration_discrimination,discrim_jsons/shuffled_g0_rotated_dr.json,http://54.89.209.186/DepthDuration/depth_discrimination_MTurk/DepthDiscrim_HTML.html#2,2,1425,821,1440,900,7-20-2021,11-33-50,130,,,,,,,1734,503,1003,1001,1000,499,,5,4,depth_discrimination_stimuli/001447_2014-06-19_17-00-32_260595134347_rgbf000082-resize_5/001447_2014-06-19_17-00-32_260595134347_rgbf000082-resize-original.jpg,3095,1288098,1458797,33
422523,DepthScenes,duration_discrimination,discrim_jsons/shuffled_g0_rotated_dr.json,http://54.89.209.186/DepthDuration/depth_discrimination_MTurk/DepthDiscrim_HTML.html#2,2,1425,821,1440,900,7-20-2021,11-33-50,131,,,,,,,1734,503,1003,1001,1000,499,,5,5,depth_discrimination_stimuli/002118_2014-06-25_20-32-08_260595134347_rgbf000078-resize_1/002118_2014-06-25_20-32-08_260595134347_rgbf000078-resize-original.jpg,2899,1288098,1458797,33
422523,DepthScenes,duration_discrimination,discrim_jsons/shuffled_g0_rotated_dr.json,http://54.89.209.186/DepthDuration/depth_discrimination_MTurk/DepthDiscrim_HTML.html#2,2,1425,821,1440,900,7-20-2021,11-33-50,132,,,,,,,1734,503,1003,1001,1000,499,,4,5,depth_discrimination_stimuli/002600_2014-06-24_14-27-04_094959634447_rgbf000074-resize_2/002600_2014-06-24_14-27-04_094959634447_rgbf000074-resize-original.jpg,5950,1288098,1458797,33
422523,DepthScenes,duration_discrimination,discrim_jsons/shuffled_g0_rotated_dr.json,http://54.89.209.186/DepthDuration/depth_discrimination_MTurk/DepthDiscrim_HTML.html#2,2,1425,821,1440,900,7-20-2021,11-33-50,133,,,,,,,1734,503,1003,1001,1000,499,,4,2,depth_discrimination_stimuli/002988_2014-06-15_12-24-20_094959634447_rgbf000150-resize_1/002988_2014-06-15_12-24-20_094959634447_rgbf000150-resize-original.jpg,5923,1288098,1458797,33
422523,DepthScenes,duration_discrimination,discrim_jsons/shuffled_g0_rotated_dr.json,http://54.89.209.186/DepthDuration/depth_discrimination_MTurk/DepthDiscrim_HTML.html#2,2,1425,821,1440,900,7-20-2021,11-33-50,134,,,,,,,1734,503,1003,1001,1000,499,,3,4,depth_discrimination_stimuli/002790_2014-06-22_19-36-35_094959634447_rgbf000074-resize_4/002790_2014-06-22_19-36-35_094959634447_rgbf000074-resize-original.jpg,4808,1288098,1458797,33
422523,DepthScenes,duration_discrimination,discrim_jsons/shuffled_g0_rotated_dr.json,http://54.89.209.186/DepthDuration/depth_discrimination_MTurk/DepthDiscrim_HTML.html#2,2,1425,821,1440,900,7-20-2021,11-33-50,135,,,,,,,1734,503,1003,1001,1000,499,,3,3,depth_discrimination_stimuli/000506_2014-06-08_23-21-00_260595134347_rgbf000070-resize_7/000506_2014-06-08_23-21-00_260595134347_rgbf000070-resize-original.jpg,5449,1288098,1458797,33
422523,DepthScenes,duration_discrimination,discrim_jsons/shuffled_g0_rotated_dr.json,http://54.89.209.186/DepthDuration/depth_discrimination_MTurk/DepthDiscrim_HTML.html#2,2,1425,821,1440,900,7-20-2021,11-33-50,136,,,,,,,1734,503,1003,1001,1000,499,,2,5,depth_discrimination_stimuli/002805_2014-06-22_19-54-03_094959634447_rgbf000079-resize_1/002805_2014-06-22_19-54-03_094959634447_rgbf000079-resize-original.jpg,8071,1288098,1458797,33
422523,DepthScenes,duration_discrimination,discrim_jsons/shuffled_g0_rotated_dr.json,http://54.89.209.186/DepthDuration/depth_discrimination_MTurk/DepthDiscrim_HTML.html#2,2,1425,821,1440,900,7-20-2021,11-33-50,137,,,,,,,1734,503,1003,1001,1000,499,,4,3,depth_discrimination_stimuli/000436_2014-06-09_22-25-11_260595134347_rgbf000137-resize_1/000436_2014-06-09_22-25-11_260595134347_rgbf000137-resize-original.jpg,8972,1288098,1458797,33
422523,DepthScenes,duration_discrimination,discrim_jsons/shuffled_g0_rotated_dr.json,http://54.89.209.186/DepthDuration/depth_discrimination_MTurk/DepthDiscrim_HTML.html#2,2,1425,821,1440,900,7-20-2021,11-33-50,138,,,,,,,1734,503,1003,1001,1000,499,,2,1,depth_discrimination_stimuli/000866_2014-06-09_20-45-42_260595134347_rgbf000139-resize_1/000866_2014-06-09_20-45-42_260595134347_rgbf000139-resize-original.jpg,5895,1288098,1458797,33
422523,DepthScenes,duration_discrimination,discrim_jsons/shuffled_g0_rotated_dr.json,http://54.89.209.186/DepthDuration/depth_discrimination_MTurk/DepthDiscrim_HTML.html#2,2,1425,821,1440,900,7-20-2021,11-33-50,139,,,,,,,1734,503,1003,1001,1000,499,,3,4,depth_discrimination_stimuli/001449_2014-06-19_17-01-27_260595134347_rgbf000116-resize_2/001449_2014-06-19_17-01-27_260595134347_rgbf000116-resize-original.jpg,5537,1288098,1458797,33
422523,DepthScenes,duration_discrimination,discrim_jsons/shuffled_g0_rotated_dr.json,http://54.89.209.186/DepthDuration/depth_discrimination_MTurk/DepthDiscrim_HTML.html#2,2,1425,821,1440,900,7-20-2021,11-33-50,140,,,,,,,1734,503,1003,1001,1000,499,,3,2,depth_discrimination_stimuli/002344_2014-06-28_20-06-29_260595134347_rgbf000030-resize_1/002344_2014-06-28_20-06-29_260595134347_rgbf000030-resize-original.jpg,6773,1288098,1458797,33
422523,DepthScenes,duration_discrimination,discrim_jsons/shuffled_g0_rotated_dr.json,http://54.89.209.186/DepthDuration/depth_discrimination_MTurk/DepthDiscrim_HTML.html#2,2,1425,821,1440,900,7-20-2021,11-33-50,141,,,,,,,1734,503,1003,1001,1000,499,,4,3,depth_discrimination_stimuli/001150_2014-06-17_15-27-34_260595134347_rgbf000108-resize_2/001150_2014-06-17_15-27-34_260595134347_rgbf000108-resize-original.jpg,8049,1288098,1458797,33
422523,DepthScenes,duration_discrimination,discrim_jsons/shuffled_g0_rotated_dr.json,http://54.89.209.186/DepthDuration/depth_discrimination_MTurk/DepthDiscrim_HTML.html#2,2,1425,821,1440,900,7-20-2021,11-33-50,142,,,,,,,1734,503,1003,1001,1000,499,,2,4,depth_discrimination_stimuli/000854_2014-06-09_19-43-13_260595134347_rgbf000066-resize_0/000854_2014-06-09_19-43-13_260595134347_rgbf000066-resize-original.jpg,5743,1288098,1458797,33
422523,DepthScenes,duration_discrimination,discrim_jsons/shuffled_g0_rotated_dr.json,http://54.89.209.186/DepthDuration/depth_discrimination_MTurk/DepthDiscrim_HTML.html#2,2,1425,821,1440,900,7-20-2021,11-33-50,143,,,,,,,1734,503,1003,1001,1000,499,,3,3,depth_discrimination_stimuli/000470_2014-06-09_19-42-40_260595134347_rgbf000094-resize_1/000470_2014-06-09_19-42-40_260595134347_rgbf000094-resize-original.jpg,6728,1288098,1458797,33
422523,DepthScenes,duration_discrimination,discrim_jsons/shuffled_g0_rotated_dr.json,http://54.89.209.186/DepthDuration/depth_discrimination_MTurk/DepthDiscrim_HTML.html#2,2,1425,821,1440,900,7-20-2021,11-33-50,144,,,,,,,1734,503,1003,1001,1000,499,,3,2,depth_discrimination_stimuli/002987_2014-06-08_18-48-20_094959634447_rgbf000022-resize_0/002987_2014-06-08_18-48-20_094959634447_rgbf000022-resize-original.jpg,4681,1288098,1458797,33
422523,DepthScenes,duration_discrimination,discrim_jsons/shuffled_g0_rotated_dr.json,http://54.89.209.186/DepthDuration/depth_discrimination_MTurk/DepthDiscrim_HTML.html#2,2,1425,821,1440,900,7-20-2021,11-33-50,145,,,,,,,1734,503,1003,1001,1000,499,,2,4,depth_discrimination_stimuli/001244_2014-06-17_16-47-45_260595134347_rgbf000030-resize_4/001244_2014-06-17_16-47-45_260595134347_rgbf000030-resize-original.jpg,3846,1288098,1458797,33
422523,DepthScenes,duration_discrimination,discrim_jsons/shuffled_g0_rotated_dr.json,http://54.89.209.186/DepthDuration/depth_discrimination_MTurk/DepthDiscrim_HTML.html#2,2,1425,821,1440,900,7-20-2021,11-33-50,146,,,,,,,1734,503,1003,1001,1000,499,,4,3,depth_discrimination_stimuli/001724_2014-06-26_19-28-50_260595134347_rgbf000037-resize_7/001724_2014-06-26_19-28-50_260595134347_rgbf000037-resize-original.jpg,5191,1288098,1458797,33
422523,DepthScenes,duration_discrimination,discrim_jsons/shuffled_g0_rotated_dr.json,http://54.89.209.186/DepthDuration/depth_discrimination_MTurk/DepthDiscrim_HTML.html#2,2,1425,821,1440,900,7-20-2021,11-33-50,147,,,,,,,1734,503,1003,1001,1000,499,,3,2,scene_property_catch_stimuli/sun_bpzzatthlcapxzol.jpg,5312,1288098,1458797,33
422523,DepthScenes,duration_discrimination,discrim_jsons/shuffled_g0_rotated_dr.json,http://54.89.209.186/DepthDuration/depth_discrimination_MTurk/DepthDiscrim_HTML.html#2,2,1425,821,1440,900,7-20-2021,11-33-50,148,,,,,,,1734,503,1003,1001,1000,499,,4,2,depth_discrimination_stimuli/001056_2014-06-08_18-46-44_260595134347_rgbf000068-resize_0/001056_2014-06-08_18-46-44_260595134347_rgbf000068-resize-original.jpg,2874,1288098,1458797,33
422523,DepthScenes,duration_discrimination,discrim_jsons/shuffled_g0_rotated_dr.json,http://54.89.209.186/DepthDuration/depth_discrimination_MTurk/DepthDiscrim_HTML.html#2,2,1425,821,1440,900,7-20-2021,11-33-50,149,,,,,,,1734,503,1003,1001,1000,499,,4,2,depth_discrimination_stimuli/000457_2014-06-08_16-52-43_260595134347_rgbf000199-resize_1/000457_2014-06-08_16-52-43_260595134347_rgbf000199-resize-original.jpg,7982,1288098,1458797,33
422523,DepthScenes,duration_discrimination,discrim_jsons/shuffled_g0_rotated_dr.json,http://54.89.209.186/DepthDuration/depth_discrimination_MTurk/DepthDiscrim_HTML.html#2,2,1425,821,1440,900,7-20-2021,11-33-50,150,,,,,,,1734,503,1003,1001,1000,499,,3,3,depth_discrimination_stimuli/000493_2014-06-09_21-01-18_260595134347_rgbf000196-resize_3/000493_2014-06-09_21-01-18_260595134347_rgbf000196-resize-original.jpg,6875,1288098,1458797,33
422523,DepthScenes,duration_discrimination,discrim_jsons/shuffled_g0_rotated_dr.json,http://54.89.209.186/DepthDuration/depth_discrimination_MTurk/DepthDiscrim_HTML.html#2,2,1425,821,1440,900,7-20-2021,11-33-50,151,,,,,,,1734,503,1003,1001,1000,499,,4,2,depth_discrimination_stimuli/002949_2014-06-26_15-57-42_094959634447_rgbf000079-resize_1/002949_2014-06-26_15-57-42_094959634447_rgbf000079-resize-original.jpg,5131,1288098,1458797,33
422523,DepthScenes,duration_discrimination,discrim_jsons/shuffled_g0_rotated_dr.json,http://54.89.209.186/DepthDuration/depth_discrimination_MTurk/DepthDiscrim_HTML.html#2,2,1425,821,1440,900,7-20-2021,11-33-50,152,,,,,,,1734,503,1003,1001,1000,499,,4,2,depth_discrimination_stimuli/000735_2014-06-08_18-23-50_260595134347_rgbf000163-resize_2/000735_2014-06-08_18-23-50_260595134347_rgbf000163-resize-original.jpg,6572,1288098,1458797,33
422523,DepthScenes,duration_discrimination,discrim_jsons/shuffled_g0_rotated_dr.json,http://54.89.209.186/DepthDuration/depth_discrimination_MTurk/DepthDiscrim_HTML.html#2,2,1425,821,1440,900,7-20-2021,11-33-50,153,,,,,,,1734,503,1003,1001,1000,499,,3,5,depth_discrimination_stimuli/002570_2014-06-24_13-59-54_094959634447_rgbf000059-resize_0/002570_2014-06-24_13-59-54_094959634447_rgbf000059-resize-original.jpg,8358,1288098,1458797,33
422523,DepthScenes,duration_discrimination,discrim_jsons/shuffled_g0_rotated_dr.json,http://54.89.209.186/DepthDuration/depth_discrimination_MTurk/DepthDiscrim_HTML.html#2,2,1425,821,1440,900,7-20-2021,11-33-50,154,,,,,,,1734,503,1003,1001,1000,499,,5,3,depth_discrimination_stimuli/002199_2014-06-28_18-33-56_260595134347_rgbf000074-resize_0/002199_2014-06-28_18-33-56_260595134347_rgbf000074-resize-original.jpg,5975,1288098,1458797,33
422523,DepthScenes,duration_discrimination,discrim_jsons/shuffled_g0_rotated_dr.json,http://54.89.209.186/DepthDuration/depth_discrimination_MTurk/DepthDiscrim_HTML.html#2,2,1425,821,1440,900,7-20-2021,11-33-50,155,,,,,,,1734,503,1003,1001,1000,499,,3,2,depth_discrimination_stimuli/002788_2014-06-22_19-36-03_094959634447_rgbf000088-resize_2/002788_2014-06-22_19-36-03_094959634447_rgbf000088-resize-original.jpg,4682,1288098,1458797,33
422523,DepthScenes,duration_discrimination,discrim_jsons/shuffled_g0_rotated_dr.json,http://54.89.209.186/DepthDuration/depth_discrimination_MTurk/DepthDiscrim_HTML.html#2,2,1425,821,1440,900,7-20-2021,11-33-50,156,,,,,,,1734,503,1003,1001,1000,499,,5,4,depth_discrimination_stimuli/000009_2014-05-26_14-32-05_260595134347_rgbf000034-resize_3/000009_2014-05-26_14-32-05_260595134347_rgbf000034-resize-original.jpg,4502,1288098,1458797,33
422523,DepthScenes,duration_discrimination,discrim_jsons/shuffled_g0_rotated_dr.json,http://54.89.209.186/DepthDuration/depth_discrimination_MTurk/DepthDiscrim_HTML.html#2,2,1425,821,1440,900,7-20-2021,11-33-50,157,,,,,,,1734,503,1003,1001,1000,499,,3,2,depth_discrimination_stimuli/002131_2014-06-25_21-12-01_260595134347_rgbf000083-resize_0/002131_2014-06-25_21-12-01_260595134347_rgbf000083-resize-original.jpg,4313,1288098,1458797,33
422523,DepthScenes,duration_discrimination,discrim_jsons/shuffled_g0_rotated_dr.json,http://54.89.209.186/DepthDuration/depth_discrimination_MTurk/DepthDiscrim_HTML.html#2,2,1425,821,1440,900,7-20-2021,11-33-50,158,,,,,,,1734,503,1003,1001,1000,499,,4,2,depth_discrimination_stimuli/002657_2014-06-13_15-29-54_094959634447_rgbf000150-resize_1/002657_2014-06-13_15-29-54_094959634447_rgbf000150-resize-original.jpg,4367,1288098,1458797,33
422523,DepthScenes,duration_discrimination,discrim_jsons/shuffled_g0_rotated_dr.json,http://54.89.209.186/DepthDuration/depth_discrimination_MTurk/DepthDiscrim_HTML.html#2,2,1425,821,1440,900,7-20-2021,11-33-50,159,,,,,,,1734,503,1003,1001,1000,499,,3,4,depth_discrimination_stimuli/000691_2014-06-08_13-08-50_260595134347_rgbf000132-resize_3/000691_2014-06-08_13-08-50_260595134347_rgbf000132-resize-original.jpg,4094,1288098,1458797,33
422523,DepthScenes,duration_discrimination,discrim_jsons/shuffled_g0_rotated_dr.json,http://54.89.209.186/DepthDuration/depth_discrimination_MTurk/DepthDiscrim_HTML.html#2,2,1425,821,1440,900,7-20-2021,11-33-50,160,,,,,,,1734,503,1003,1001,1000,499,,3,3,depth_discrimination_stimuli/000739_2014-06-08_18-45-58_260595134347_rgbf000068-resize_1/000739_2014-06-08_18-45-58_260595134347_rgbf000068-resize-original.jpg,6776,1288098,1458797,33
422523,DepthScenes,duration_discrimination,discrim_jsons/shuffled_g0_rotated_dr.json,http://54.89.209.186/DepthDuration/depth_discrimination_MTurk/DepthDiscrim_HTML.html#2,2,1425,821,1440,900,7-20-2021,11-33-50,161,,,,,,,1734,503,1003,1001,1000,499,,3,5,depth_discrimination_stimuli/000409_2014-06-04_19-23-33_260595134347_rgbf000067-resize_0/000409_2014-06-04_19-23-33_260595134347_rgbf000067-resize-original.jpg,3150,1288098,1458797,33
422523,DepthScenes,duration_discrimination,discrim_jsons/shuffled_g0_rotated_dr.json,http://54.89.209.186/DepthDuration/depth_discrimination_MTurk/DepthDiscrim_HTML.html#2,2,1425,821,1440,900,7-20-2021,11-33-50,162,,,,,,,1734,503,1003,1001,1000,499,,4,3,depth_discrimination_stimuli/000642_2014-06-08_16-59-25_260595134347_rgbf000098-resize_2/000642_2014-06-08_16-59-25_260595134347_rgbf000098-resize-original.jpg,4062,1288098,1458797,33
422523,DepthScenes,duration_discrimination,discrim_jsons/shuffled_g0_rotated_dr.json,http://54.89.209.186/DepthDuration/depth_discrimination_MTurk/DepthDiscrim_HTML.html#2,2,1425,821,1440,900,7-20-2021,11-33-50,163,,,,,,,1734,503,1003,1001,1000,499,,2,3,depth_discrimination_stimuli/000636_2014-06-08_16-39-02_260595134347_rgbf000108-resize_4/000636_2014-06-08_16-39-02_260595134347_rgbf000108-resize-original.jpg,4941,1288098,1458797,33
422523,DepthScenes,duration_discrimination,discrim_jsons/shuffled_g0_rotated_dr.json,http://54.89.209.186/DepthDuration/depth_discrimination_MTurk/DepthDiscrim_HTML.html#2,2,1425,821,1440,900,7-20-2021,11-33-50,164,,,,,,,1734,503,1003,1001,1000,499,,3,4,depth_discrimination_stimuli/000749_2014-06-08_21-55-06_260595134347_rgbf000070-resize_2/000749_2014-06-08_21-55-06_260595134347_rgbf000070-resize-original.jpg,8060,1288098,1458797,33
422523,DepthScenes,duration_discrimination,discrim_jsons/shuffled_g0_rotated_dr.json,http://54.89.209.186/DepthDuration/depth_discrimination_MTurk/DepthDiscrim_HTML.html#2,2,1425,821,1440,900,7-20-2021,11-33-50,165,,,,,,,1734,503,1003,1001,1000,499,,2,3,depth_discrimination_stimuli/001618_2014-06-20_11-37-31_260595134347_rgbf000027-resize_3/001618_2014-06-20_11-37-31_260595134347_rgbf000027-resize-original.jpg,3774,1288098,1458797,33
422523,DepthScenes,duration_discrimination,discrim_jsons/shuffled_g0_rotated_dr.json,http://54.89.209.186/DepthDuration/depth_discrimination_MTurk/DepthDiscrim_HTML.html#2,2,1425,821,1440,900,7-20-2021,11-33-50,166,,,,,,,1734,503,1003,1001,1000,499,,4,5,scene_property_catch_stimuli/sun_aoquhiddlfqapdlz.jpg,2933,1288098,1458797,33
422523,DepthScenes,duration_discrimination,discrim_jsons/shuffled_g0_rotated_dr.json,http://54.89.209.186/DepthDuration/depth_discrimination_MTurk/DepthDiscrim_HTML.html#2,2,1425,821,1440,900,7-20-2021,11-33-50,167,,,,,,,1734,503,1003,1001,1000,499,,3,4,depth_discrimination_stimuli/002365_2014-06-28_20-11-21_260595134347_rgbf000102-resize_1/002365_2014-06-28_20-11-21_260595134347_rgbf000102-resize-original.jpg,3855,1288098,1458797,33
422523,DepthScenes,duration_discrimination,discrim_jsons/shuffled_g0_rotated_dr.json,http://54.89.209.186/DepthDuration/depth_discrimination_MTurk/DepthDiscrim_HTML.html#2,2,1425,821,1440,900,7-20-2021,11-33-50,168,,,,,,,1734,503,1003,1001,1000,499,,4,2,depth_discrimination_stimuli/000505_2014-06-08_23-03-23_260595134347_rgbf000091-resize_0/000505_2014-06-08_23-03-23_260595134347_rgbf000091-resize-original.jpg,5812,1288098,1458797,33
422523,DepthScenes,duration_discrimination,discrim_jsons/shuffled_g0_rotated_dr.json,http://54.89.209.186/DepthDuration/depth_discrimination_MTurk/DepthDiscrim_HTML.html#2,2,1425,821,1440,900,7-20-2021,11-33-50,169,,,,,,,1734,503,1003,1001,1000,499,,2,3,depth_discrimination_stimuli/003069_2014-06-15_14-57-50_094959634447_rgbf000150-resize_4/003069_2014-06-15_14-57-50_094959634447_rgbf000150-resize-original.jpg,9172,1288098,1458797,33
422523,DepthScenes,duration_discrimination,discrim_jsons/shuffled_g0_rotated_dr.json,http://54.89.209.186/DepthDuration/depth_discrimination_MTurk/DepthDiscrim_HTML.html#2,2,1425,821,1440,900,7-20-2021,11-33-50,170,,,,,,,1734,503,1003,1001,1000,499,,3,2,depth_discrimination_stimuli/003228_2014-05-14_13-42-35_094959634447_rgbf000101-resize_1/003228_2014-05-14_13-42-35_094959634447_rgbf000101-resize-original.jpg,4029,1288098,1458797,33
422523,DepthScenes,duration_discrimination,discrim_jsons/shuffled_g0_rotated_dr.json,http://54.89.209.186/DepthDuration/depth_discrimination_MTurk/DepthDiscrim_HTML.html#2,2,1425,821,1440,900,7-20-2021,11-33-50,171,,,,,,,1734,503,1003,1001,1000,499,,3,3,depth_discrimination_stimuli/002444_2014-06-28_20-32-08_260595134347_rgbf000027-resize_0/002444_2014-06-28_20-32-08_260595134347_rgbf000027-resize-original.jpg,3189,1288098,1458797,33
422523,DepthScenes,duration_discrimination,discrim_jsons/shuffled_g0_rotated_dr.json,http://54.89.209.186/DepthDuration/depth_discrimination_MTurk/DepthDiscrim_HTML.html#2,2,1425,821,1440,900,7-20-2021,11-33-50,172,,,,,,,1734,503,1003,1001,1000,499,,5,2,depth_discrimination_stimuli/001032_2014-06-08_13-23-17_260595134347_rgbf000021-resize_3/001032_2014-06-08_13-23-17_260595134347_rgbf000021-resize-original.jpg,5400,1288098,1458797,33
422523,DepthScenes,duration_discrimination,discrim_jsons/shuffled_g0_rotated_dr.json,http://54.89.209.186/DepthDuration/depth_discrimination_MTurk/DepthDiscrim_HTML.html#2,2,1425,821,1440,900,7-20-2021,11-33-50,173,,,,,,,1734,503,1003,1001,1000,499,,4,2,depth_discrimination_stimuli/003546_2014-05-22_15-48-53_094959634447_rgbf004816-resize_3/003546_2014-05-22_15-48-53_094959634447_rgbf004816-resize-original.jpg,4737,1288098,1458797,33
422523,DepthScenes,duration_discrimination,discrim_jsons/shuffled_g0_rotated_dr.json,http://54.89.209.186/DepthDuration/depth_discrimination_MTurk/DepthDiscrim_HTML.html#2,2,1425,821,1440,900,7-20-2021,11-33-50,174,,,,,,,1734,503,1003,1001,1000,499,,4,2,depth_discrimination_stimuli/000709_2014-06-08_13-51-55_260595134347_rgbf000068-resize_3/000709_2014-06-08_13-51-55_260595134347_rgbf000068-resize-original.jpg,5451,1288098,1458797,33
422523,DepthScenes,duration_discrimination,discrim_jsons/shuffled_g0_rotated_dr.json,http://54.89.209.186/DepthDuration/depth_discrimination_MTurk/DepthDiscrim_HTML.html#2,2,1425,821,1440,900,7-20-2021,11-33-50,175,,,,,,,1734,503,1003,1001,1000,499,,4,2,depth_discrimination_stimuli/000682_2014-06-08_23-14-58_260595134347_rgbf000041-resize_5/000682_2014-06-08_23-14-58_260595134347_rgbf000041-resize-original.jpg,5609,1288098,1458797,33
422523,DepthScenes,duration_discrimination,discrim_jsons/shuffled_g0_rotated_dr.json,http://54.89.209.186/DepthDuration/depth_discrimination_MTurk/DepthDiscrim_HTML.html#2,2,1425,821,1440,900,7-20-2021,11-33-50,176,,,,,,,1734,503,1003,1001,1000,499,,3,4,depth_discrimination_stimuli/001570_2014-06-20_17-21-09_260595134347_rgbf000135-resize_4/001570_2014-06-20_17-21-09_260595134347_rgbf000135-resize-original.jpg,5678,1288098,1458797,33
422523,DepthScenes,duration_discrimination,discrim_jsons/shuffled_g0_rotated_dr.json,http://54.89.209.186/DepthDuration/depth_discrimination_MTurk/DepthDiscrim_HTML.html#2,2,1425,821,1440,900,7-20-2021,11-33-50,177,,,,,,,1734,503,1003,1001,1000,499,,2,4,depth_discrimination_stimuli/000878_2014-06-08_22-52-45_260595134347_rgbf000045-resize_2/000878_2014-06-08_22-52-45_260595134347_rgbf000045-resize-original.jpg,4596,1288098,1458797,33
422523,DepthScenes,duration_discrimination,discrim_jsons/shuffled_g0_rotated_dr.json,http://54.89.209.186/DepthDuration/depth_discrimination_MTurk/DepthDiscrim_HTML.html#2,2,1425,821,1440,900,7-20-2021,11-33-50,178,,,,,,,1734,503,1003,1001,1000,499,,3,3,depth_discrimination_stimuli/002995_2014-06-15_12-31-26_094959634447_rgbf000150-resize_1/002995_2014-06-15_12-31-26_094959634447_rgbf000150-resize-original.jpg,5556,1288098,1458797,33
422523,DepthScenes,duration_discrimination,discrim_jsons/shuffled_g0_rotated_dr.json,http://54.89.209.186/DepthDuration/depth_discrimination_MTurk/DepthDiscrim_HTML.html#2,2,1425,821,1440,900,7-20-2021,11-33-50,179,,,,,,,1734,503,1003,1001,1000,499,,3,3,depth_discrimination_stimuli/002989_2014-06-15_12-25-03_094959634447_rgbf000150-resize_3/002989_2014-06-15_12-25-03_094959634447_rgbf000150-resize-original.jpg,3211,1288098,1458797,33
422523,DepthScenes,duration_discrimination,discrim_jsons/shuffled_g0_rotated_dr.json,http://54.89.209.186/DepthDuration/depth_discrimination_MTurk/DepthDiscrim_HTML.html#2,2,1425,821,1440,900,7-20-2021,11-33-50,180,,,,,,,1734,503,1003,1001,1000,499,,2,1,scene_property_catch_stimuli/000675_2014-06-08_22-59-18_260595134347_rgbf000096-resize.jpg,5707,1288098,1458797,33
422523,DepthScenes,duration_discrimination,discrim_jsons/shuffled_g0_rotated_dr.json,http://54.89.209.186/DepthDuration/depth_discrimination_MTurk/DepthDiscrim_HTML.html#2,2,1425,821,1440,900,7-20-2021,11-33-50,181,,,,,,,1734,503,1003,1001,1000,499,,3,2,depth_discrimination_stimuli/001617_2014-06-20_11-35-32_260595134347_rgbf000066-resize_1/001617_2014-06-20_11-35-32_260595134347_rgbf000066-resize-original.jpg,5418,1288098,1458797,33
422523,DepthScenes,duration_discrimination,discrim_jsons/shuffled_g0_rotated_dr.json,http://54.89.209.186/DepthDuration/depth_discrimination_MTurk/DepthDiscrim_HTML.html#2,2,1425,821,1440,900,7-20-2021,11-33-50,182,,,,,,,1734,503,1003,1001,1000,499,,3,2,depth_discrimination_stimuli/000773_2014-06-08_22-24-54_260595134347_rgbf000093-resize_1/000773_2014-06-08_22-24-54_260595134347_rgbf000093-resize-original.jpg,5152,1288098,1458797,33
422523,DepthScenes,duration_discrimination,discrim_jsons/shuffled_g0_rotated_dr.json,http://54.89.209.186/DepthDuration/depth_discrimination_MTurk/DepthDiscrim_HTML.html#2,2,1425,821,1440,900,7-20-2021,11-33-50,183,,,,,,,1734,503,1003,1001,1000,499,,2,3,depth_discrimination_stimuli/000542_2014-06-08_18-27-08_260595134347_rgbf000118-resize_1/000542_2014-06-08_18-27-08_260595134347_rgbf000118-resize-original.jpg,7128,1288098,1458797,33
422523,DepthScenes,duration_discrimination,discrim_jsons/shuffled_g0_rotated_dr.json,http://54.89.209.186/DepthDuration/depth_discrimination_MTurk/DepthDiscrim_HTML.html#2,2,1425,821,1440,900,7-20-2021,11-33-50,184,,,,,,,1734,503,1003,1001,1000,499,,4,3,depth_discrimination_stimuli/003492_2014-05-21_15-50-55_094959634447_rgbf000828-resize_1/003492_2014-05-21_15-50-55_094959634447_rgbf000828-resize-original.jpg,8594,1288098,1458797,33
422523,DepthScenes,duration_discrimination,discrim_jsons/shuffled_g0_rotated_dr.json,http://54.89.209.186/DepthDuration/depth_discrimination_MTurk/DepthDiscrim_HTML.html#2,2,1425,821,1440,900,7-20-2021,11-33-50,185,,,,,,,1734,503,1003,1001,1000,499,,4,3,depth_discrimination_stimuli/000447_2014-06-08_16-15-46_260595134347_rgbf000130-resize_1/000447_2014-06-08_16-15-46_260595134347_rgbf000130-resize-original.jpg,7118,1288098,1458797,33
422523,DepthScenes,duration_discrimination,discrim_jsons/shuffled_g0_rotated_dr.json,http://54.89.209.186/DepthDuration/depth_discrimination_MTurk/DepthDiscrim_HTML.html#2,2,1425,821,1440,900,7-20-2021,11-33-50,186,,,,,,,1734,503,1003,1001,1000,499,,3,3,depth_discrimination_stimuli/002425_2014-06-28_20-27-29_260595134347_rgbf000031-resize_8/002425_2014-06-28_20-27-29_260595134347_rgbf000031-resize-original.jpg,3262,1288098,1458797,33
422523,DepthScenes,duration_discrimination,discrim_jsons/shuffled_g0_rotated_dr.json,http://54.89.209.186/DepthDuration/depth_discrimination_MTurk/DepthDiscrim_HTML.html#2,2,1425,821,1440,900,7-20-2021,11-33-50,187,,,,,,,1734,503,1003,1001,1000,499,,5,4,scene_property_catch_stimuli/sun_aatxlublfjchvvzu.jpg,4270,1288098,1458797,33
422523,DepthScenes,duration_discrimination,discrim_jsons/shuffled_g0_rotated_dr.json,http://54.89.209.186/DepthDuration/depth_discrimination_MTurk/DepthDiscrim_HTML.html#2,2,1425,821,1440,900,7-20-2021,11-33-50,188,,,,,,,1734,503,1003,1001,1000,499,,5,2,depth_discrimination_stimuli/001066_2014-06-08_22-03-20_260595134347_rgbf000066-resize_4/001066_2014-06-08_22-03-20_260595134347_rgbf000066-resize-original.jpg,3108,1288098,1458797,33
422523,DepthScenes,duration_discrimination,discrim_jsons/shuffled_g0_rotated_dr.json,http://54.89.209.186/DepthDuration/depth_discrimination_MTurk/DepthDiscrim_HTML.html#2,2,1425,821,1440,900,7-20-2021,11-33-50,189,,,,,,,1734,503,1003,1001,1000,499,,4,4,depth_discrimination_stimuli/000927_2014-06-09_16-32-30_260595134347_rgbf000123-resize_3/000927_2014-06-09_16-32-30_260595134347_rgbf000123-resize-original.jpg,6171,1288098,1458797,33
422523,DepthScenes,duration_discrimination,discrim_jsons/shuffled_g0_rotated_dr.json,http://54.89.209.186/DepthDuration/depth_discrimination_MTurk/DepthDiscrim_HTML.html#2,2,1425,821,1440,900,7-20-2021,11-33-50,190,,,,,,,1734,503,1003,1001,1000,499,,5,3,depth_discrimination_stimuli/002700_2014-06-22_11-27-02_094959634447_rgbf000124-resize_3/002700_2014-06-22_11-27-02_094959634447_rgbf000124-resize-original.jpg,7289,1288098,1458797,33
422523,DepthScenes,duration_discrimination,discrim_jsons/shuffled_g0_rotated_dr.json,http://54.89.209.186/DepthDuration/depth_discrimination_MTurk/DepthDiscrim_HTML.html#2,2,1425,821,1440,900,7-20-2021,11-33-50,191,,,,,,,1734,503,1003,1001,1000,499,,3,5,depth_discrimination_stimuli/003534_2014-05-22_15-06-10_094959634447_rgbf000102-resize_4/003534_2014-05-22_15-06-10_094959634447_rgbf000102-resize-original.jpg,4650,1288098,1458797,33
422523,DepthScenes,duration_discrimination,discrim_jsons/shuffled_g0_rotated_dr.json,http://54.89.209.186/DepthDuration/depth_discrimination_MTurk/DepthDiscrim_HTML.html#2,2,1425,821,1440,900,7-20-2021,11-33-50,192,,,,,,,1734,503,1003,1001,1000,499,,3,2,depth_discrimination_stimuli/000109_2014-05-14_23-41-52_260595134347_rgbf000035-resize_9/000109_2014-05-14_23-41-52_260595134347_rgbf000035-resize-original.jpg,6002,1288098,1458797,33
422523,DepthScenes,duration_discrimination,discrim_jsons/shuffled_g0_rotated_dr.json,http://54.89.209.186/DepthDuration/depth_discrimination_MTurk/DepthDiscrim_HTML.html#2,2,1425,821,1440,900,7-20-2021,11-33-50,193,,,,,,,1734,503,1003,1001,1000,499,,2,1,depth_discrimination_stimuli/002549_2014-06-24_13-41-39_094959634447_rgbf000022-resize_3/002549_2014-06-24_13-41-39_094959634447_rgbf000022-resize-original.jpg,7202,1288098,1458797,33
422523,DepthScenes,duration_discrimination,discrim_jsons/shuffled_g0_rotated_dr.json,http://54.89.209.186/DepthDuration/depth_discrimination_MTurk/DepthDiscrim_HTML.html#2,2,1425,821,1440,900,7-20-2021,11-33-50,194,,,,,,,1734,503,1003,1001,1000,499,,3,2,depth_discrimination_stimuli/002660_2014-06-13_15-44-18_094959634447_rgbf001878-resize_2/002660_2014-06-13_15-44-18_094959634447_rgbf001878-resize-original.jpg,4157,1288098,1458797,33
422523,DepthScenes,duration_discrimination,discrim_jsons/shuffled_g0_rotated_dr.json,http://54.89.209.186/DepthDuration/depth_discrimination_MTurk/DepthDiscrim_HTML.html#2,2,1425,821,1440,900,7-20-2021,11-33-50,195,,,,,,,1734,503,1003,1001,1000,499,,3,3,depth_discrimination_stimuli/000742_2014-06-08_18-48-09_260595134347_rgbf000164-resize_4/000742_2014-06-08_18-48-09_260595134347_rgbf000164-resize-original.jpg,2853,1288098,1458797,33
422523,DepthScenes,duration_discrimination,discrim_jsons/shuffled_g0_rotated_dr.json,http://54.89.209.186/DepthDuration/depth_discrimination_MTurk/DepthDiscrim_HTML.html#2,2,1425,821,1440,900,7-20-2021,11-33-50,196,,,,,,,1734,503,1003,1001,1000,499,,5,4,depth_discrimination_stimuli/000103_2014-05-14_22-01-17_260595134347_rgbf000152-resize_5/000103_2014-05-14_22-01-17_260595134347_rgbf000152-resize-original.jpg,2693,1288098,1458797,33
422523,DepthScenes,duration_discrimination,discrim_jsons/shuffled_g0_rotated_dr.json,http://54.89.209.186/DepthDuration/depth_discrimination_MTurk/DepthDiscrim_HTML.html#2,2,1425,821,1440,900,7-20-2021,11-33-50,197,,,,,,,1734,503,1003,1001,1000,499,,3,2,depth_discrimination_stimuli/001806_2014-06-26_20-50-20_260595134347_rgbf000091-resize_1/001806_2014-06-26_20-50-20_260595134347_rgbf000091-resize-original.jpg,4907,1288098,1458797,33
422523,DepthScenes,duration_discrimination,discrim_jsons/shuffled_g0_rotated_dr.json,http://54.89.209.186/DepthDuration/depth_discrimination_MTurk/DepthDiscrim_HTML.html#2,2,1425,821,1440,900,7-20-2021,11-33-50,198,,,,,,,1734,503,1003,1001,1000,499,,3,2,depth_discrimination_stimuli/000906_2014-06-08_13-35-43_260595134347_rgbf000155-resize_1/000906_2014-06-08_13-35-43_260595134347_rgbf000155-resize-original.jpg,2756,1288098,1458797,33
422523,DepthScenes,duration_discrimination,discrim_jsons/shuffled_g0_rotated_dr.json,http://54.89.209.186/DepthDuration/depth_discrimination_MTurk/DepthDiscrim_HTML.html#2,2,1425,821,1440,900,7-20-2021,11-33-50,199,,,,,,,1734,503,1003,1001,1000,499,,3,3,depth_discrimination_stimuli/000191_2014-05-12_17-07-38_260595134347_rgbf000199-resize_0/000191_2014-05-12_17-07-38_260595134347_rgbf000199-resize-original.jpg,7062,1288098,1458797,33
422523,DepthScenes,duration_discrimination,discrim_jsons/shuffled_g0_rotated_dr.json,http://54.89.209.186/DepthDuration/depth_discrimination_MTurk/DepthDiscrim_HTML.html#2,2,1425,821,1440,900,7-20-2021,11-33-50,200,,,,,,,1734,503,1003,1001,1000,499,,5,4,depth_discrimination_stimuli/001392_2014-06-19_16-07-59_260595134347_rgbf000046-resize_1/001392_2014-06-19_16-07-59_260595134347_rgbf000046-resize-original.jpg,6352,1288098,1458797,33
422523,DepthScenes,duration_discrimination,discrim_jsons/shuffled_g0_rotated_dr.json,http://54.89.209.186/DepthDuration/depth_discrimination_MTurk/DepthDiscrim_HTML.html#2,2,1425,821,1440,900,7-20-2021,11-33-50,201,,,,,,,1734,503,1003,1001,1000,499,,4,3,depth_discrimination_stimuli/000635_2014-06-08_16-38-42_260595134347_rgbf000106-resize_1/000635_2014-06-08_16-38-42_260595134347_rgbf000106-resize-original.jpg,10792,1288098,1458797,33
422523,DepthScenes,duration_discrimination,discrim_jsons/shuffled_g0_rotated_dr.json,http://54.89.209.186/DepthDuration/depth_discrimination_MTurk/DepthDiscrim_HTML.html#2,2,1425,821,1440,900,7-20-2021,11-33-50,202,,,,,,,1734,503,1003,1001,1000,499,,3,5,depth_discrimination_stimuli/003587_2014-05-23_16-48-02_094959634447_rgbf002384-resize_2/003587_2014-05-23_16-48-02_094959634447_rgbf002384-resize-original.jpg,4441,1288098,1458797,33
422523,DepthScenes,duration_discrimination,discrim_jsons/shuffled_g0_rotated_dr.json,http://54.89.209.186/DepthDuration/depth_discrimination_MTurk/DepthDiscrim_HTML.html#2,2,1425,821,1440,900,7-20-2021,11-33-50,203,,,,,,,1734,503,1003,1001,1000,499,,3,4,depth_discrimination_stimuli/003048_2014-06-15_13-49-43_094959634447_rgbf000150-resize_1/003048_2014-06-15_13-49-43_094959634447_rgbf000150-resize-original.jpg,6355,1288098,1458797,33
422523,DepthScenes,duration_discrimination,discrim_jsons/shuffled_g0_rotated_dr.json,http://54.89.209.186/DepthDuration/depth_discrimination_MTurk/DepthDiscrim_HTML.html#2,2,1425,821,1440,900,7-20-2021,11-33-50,204,,,,,,,1734,503,1003,1001,1000,499,,4,5,depth_discrimination_stimuli/001181_2014-06-17_15-50-57_260595134347_rgbf000106-resize_4/001181_2014-06-17_15-50-57_260595134347_rgbf000106-resize-original.jpg,3231,1288098,1458797,33
422523,DepthScenes,duration_discrimination,discrim_jsons/shuffled_g0_rotated_dr.json,http://54.89.209.186/DepthDuration/depth_discrimination_MTurk/DepthDiscrim_HTML.html#2,2,1425,821,1440,900,7-20-2021,11-33-50,205,,,,,,,1734,503,1003,1001,1000,499,,4,5,depth_discrimination_stimuli/001175_2014-06-17_15-45-55_260595134347_rgbf000129-resize_4/001175_2014-06-17_15-45-55_260595134347_rgbf000129-resize-original.jpg,5397,1288098,1458797,33
422523,DepthScenes,duration_discrimination,discrim_jsons/shuffled_g0_rotated_dr.json,http://54.89.209.186/DepthDuration/depth_discrimination_MTurk/DepthDiscrim_HTML.html#2,2,1425,821,1440,900,7-20-2021,11-33-50,206,,,,,,,1734,503,1003,1001,1000,499,,4,3,depth_discrimination_stimuli/001029_2014-06-08_13-17-57_260595134347_rgbf000065-resize_1/001029_2014-06-08_13-17-57_260595134347_rgbf000065-resize-original.jpg,4268,1288098,1458797,33
422523,DepthScenes,duration_discrimination,discrim_jsons/shuffled_g0_rotated_dr.json,http://54.89.209.186/DepthDuration/depth_discrimination_MTurk/DepthDiscrim_HTML.html#2,2,1425,821,1440,900,7-20-2021,11-33-50,207,,,,,,,1734,503,1003,1001,1000,499,,3,3,depth_discrimination_stimuli/001235_2014-06-17_16-37-36_260595134347_rgbf000084-resize_4/001235_2014-06-17_16-37-36_260595134347_rgbf000084-resize-original.jpg,3383,1288098,1458797,33
422523,DepthScenes,duration_discrimination,discrim_jsons/shuffled_g0_rotated_dr.json,http://54.89.209.186/DepthDuration/depth_discrimination_MTurk/DepthDiscrim_HTML.html#2,2,1425,821,1440,900,7-20-2021,11-33-50,208,,,,,,,1734,503,1003,1001,1000,499,,4,2,depth_discrimination_stimuli/002953_2014-06-08_17-32-18_094959634447_rgbf000059-resize_5/002953_2014-06-08_17-32-18_094959634447_rgbf000059-resize-original.jpg,3915,1288098,1458797,33
422523,DepthScenes,duration_discrimination,discrim_jsons/shuffled_g0_rotated_dr.json,http://54.89.209.186/DepthDuration/depth_discrimination_MTurk/DepthDiscrim_HTML.html#2,2,1425,821,1440,900,7-20-2021,11-33-50,209,,,,,,,1734,503,1003,1001,1000,499,,3,2,depth_discrimination_stimuli/000800_2014-06-08_22-42-09_260595134347_rgbf000095-resize_3/000800_2014-06-08_22-42-09_260595134347_rgbf000095-resize-original.jpg,3053,1288098,1458797,33
422523,DepthScenes,duration_discrimination,discrim_jsons/shuffled_g0_rotated_dr.json,http://54.89.209.186/DepthDuration/depth_discrimination_MTurk/DepthDiscrim_HTML.html#2,2,1425,821,1440,900,7-20-2021,11-33-50,210,,,,,,,1734,503,1003,1001,1000,499,,5,3,depth_discrimination_stimuli/003338_2014-05-20_11-01-23_094959634447_rgbf000051-resize_6/003338_2014-05-20_11-01-23_094959634447_rgbf000051-resize-original.jpg,4390,1288098,1458797,33
422523,DepthScenes,duration_discrimination,discrim_jsons/shuffled_g0_rotated_dr.json,http://54.89.209.186/DepthDuration/depth_discrimination_MTurk/DepthDiscrim_HTML.html#2,2,1425,821,1440,900,7-20-2021,11-33-50,211,,,,,,,1734,503,1003,1001,1000,499,,5,4,depth_discrimination_stimuli/002468_2014-06-28_20-38-39_260595134347_rgbf000045-resize_1/002468_2014-06-28_20-38-39_260595134347_rgbf000045-resize-original.jpg,3456,1288098,1458797,33
422523,DepthScenes,duration_discrimination,discrim_jsons/shuffled_g0_rotated_dr.json,http://54.89.209.186/DepthDuration/depth_discrimination_MTurk/DepthDiscrim_HTML.html#2,2,1425,821,1440,900,7-20-2021,11-33-50,212,,,,,,,1734,503,1003,1001,1000,499,,4,5,depth_discrimination_stimuli/001188_2014-06-17_15-54-10_260595134347_rgbf000090-resize_2/001188_2014-06-17_15-54-10_260595134347_rgbf000090-resize-original.jpg,5791,1288098,1458797,33
422523,DepthScenes,duration_discrimination,discrim_jsons/shuffled_g0_rotated_dr.json,http://54.89.209.186/DepthDuration/depth_discrimination_MTurk/DepthDiscrim_HTML.html#2,2,1425,821,1440,900,7-20-2021,11-33-50,213,,,,,,,1734,503,1003,1001,1000,499,,4,3,depth_discrimination_stimuli/002964_2014-06-08_17-46-11_094959634447_rgbf000091-resize_4/002964_2014-06-08_17-46-11_094959634447_rgbf000091-resize-original.jpg,6781,1288098,1458797,33
