subjID,experimentName,versionName,sequenceName,url,selected_row,windowWidth,windowHeight,screenWidth,screenHeight,startDate,startTime,trial,stimulus_0,stimulus_1,duration,actual_depth_0,actual_depth_1,discrim_choice,trial_RT,log_fixation,log_sceneDuration1,log_mask1,log_sceneDuration2,log_mask2,unitSelection,meanDepth_rating,navigability_rating,rated_stimulus,rating_RT,experimentTime,totalTime,age
546393,DepthScenes,duration_discrimination,discrim_jsons/shuffled_g0.json,http://54.89.209.186/DepthDuration/depth_discrimination_MTurk/DepthDiscrim_HTML.html#4,4,1366,657,1366,768,7-20-2021,15-19-18,1,depth_discrimination_stimuli/002043_2014-06-24_20-29-38_260595134347_rgbf000039-resize_4/002043_2014-06-24_20-29-38_260595134347_rgbf000039-resize_4-target.png,depth_discrimination_stimuli/001011_2014-06-08_23-18-54_260595134347_rgbf000044-resize_4/001011_2014-06-08_23-18-54_260595134347_rgbf000044-resize_4-target.png,250,2.8435,2.473,0,2300,502,266,1004,241,492,,,,,,930870,1184686,29
546393,DepthScenes,duration_discrimination,discrim_jsons/shuffled_g0.json,http://54.89.209.186/DepthDuration/depth_discrimination_MTurk/DepthDiscrim_HTML.html#4,4,1366,657,1366,768,7-20-2021,15-19-18,2,depth_discrimination_stimuli/000953_2014-06-08_11-42-19_260595134347_rgbf000083-resize_0/000953_2014-06-08_11-42-19_260595134347_rgbf000083-resize_0-target.png,depth_discrimination_stimuli/000787_2014-06-08_22-33-53_260595134347_rgbf000175-resize_1/000787_2014-06-08_22-33-53_260595134347_rgbf000175-resize_1-target.png,250,1.369,4.784,1,1715,514,291,994,205,509,,,,,,930870,1184686,29
546393,DepthScenes,duration_discrimination,discrim_jsons/shuffled_g0.json,http://54.89.209.186/DepthDuration/depth_discrimination_MTurk/DepthDiscrim_HTML.html#4,4,1366,657,1366,768,7-20-2021,15-19-18,3,depth_discrimination_stimuli/003083_2014-06-15_15-21-03_094959634447_rgbf000063-resize_1/003083_2014-06-15_15-21-03_094959634447_rgbf000063-resize_1-target.png,depth_discrimination_stimuli/000742_2014-06-08_18-48-09_260595134347_rgbf000164-resize_4/000742_2014-06-08_18-48-09_260595134347_rgbf000164-resize_4-target.png,250,4.1405,4.632,1,3534,503,252,1010,239,499,,,,,,930870,1184686,29
546393,DepthScenes,duration_discrimination,discrim_jsons/shuffled_g0.json,http://54.89.209.186/DepthDuration/depth_discrimination_MTurk/DepthDiscrim_HTML.html#4,4,1366,657,1366,768,7-20-2021,15-19-18,4,depth_discrimination_stimuli/001092_2014-06-15_17-34-58_260595134347_rgbf000171-resize_3/001092_2014-06-15_17-34-58_260595134347_rgbf000171-resize_3-target.png,depth_discrimination_stimuli/000502_2014-06-08_23-02-32_260595134347_rgbf000063-resize_4/000502_2014-06-08_23-02-32_260595134347_rgbf000063-resize_4-target.png,1000,2.6935,2.431,0,2288,517,993,1000,1006,487,,,,,,930870,1184686,29
546393,DepthScenes,duration_discrimination,discrim_jsons/shuffled_g0.json,http://54.89.209.186/DepthDuration/depth_discrimination_MTurk/DepthDiscrim_HTML.html#4,4,1366,657,1366,768,7-20-2021,15-19-18,5,depth_discrimination_stimuli/001532_2014-06-20_16-50-41_260595134347_rgbf000081-resize_4/001532_2014-06-20_16-50-41_260595134347_rgbf000081-resize_4-target.png,depth_discrimination_stimuli/000943_2014-06-09_19-31-07_260595134347_rgbf000128-resize_1/000943_2014-06-09_19-31-07_260595134347_rgbf000128-resize_1-target.png,1000,1.5758333333333,1.9765,0,3504,512,995,1004,1003,493,,,,,,930870,1184686,29
546393,DepthScenes,duration_discrimination,discrim_jsons/shuffled_g0.json,http://54.89.209.186/DepthDuration/depth_discrimination_MTurk/DepthDiscrim_HTML.html#4,4,1366,657,1366,768,7-20-2021,15-19-18,6,depth_discrimination_stimuli/002103_2014-06-25_20-00-40_260595134347_rgbf000049-resize_0/002103_2014-06-25_20-00-40_260595134347_rgbf000049-resize_0-target.png,depth_discrimination_stimuli/002444_2014-06-28_20-32-08_260595134347_rgbf000027-resize_0/002444_2014-06-28_20-32-08_260595134347_rgbf000027-resize_0-target.png,250,4.105,4.389,0,1982,506,250,1004,246,496,,,,,,930870,1184686,29
546393,DepthScenes,duration_discrimination,discrim_jsons/shuffled_g0.json,http://54.89.209.186/DepthDuration/depth_discrimination_MTurk/DepthDiscrim_HTML.html#4,4,1366,657,1366,768,7-20-2021,15-19-18,7,depth_discrimination_stimuli/000800_2014-06-08_22-42-09_260595134347_rgbf000095-resize_3/000800_2014-06-08_22-42-09_260595134347_rgbf000095-resize_3-target.png,depth_discrimination_stimuli/000869_2014-06-09_20-50-18_260595134347_rgbf000060-resize_3/000869_2014-06-09_20-50-18_260595134347_rgbf000060-resize_3-target.png,1000,2.8,2.266,1,1752,514,988,1044,958,508,,,,,,930870,1184686,29
546393,DepthScenes,duration_discrimination,discrim_jsons/shuffled_g0.json,http://54.89.209.186/DepthDuration/depth_discrimination_MTurk/DepthDiscrim_HTML.html#4,4,1366,657,1366,768,7-20-2021,15-19-18,8,depth_discrimination_stimuli/001618_2014-06-20_11-37-31_260595134347_rgbf000027-resize_3/001618_2014-06-20_11-37-31_260595134347_rgbf000027-resize_3-target.png,depth_discrimination_stimuli/000109_2014-05-14_23-41-52_260595134347_rgbf000035-resize_9/000109_2014-05-14_23-41-52_260595134347_rgbf000035-resize_9-target.png,250,1.8725,1.3545,0,3019,505,263,1008,303,434,,,,,,930870,1184686,29
546393,DepthScenes,duration_discrimination,discrim_jsons/shuffled_g0.json,http://54.89.209.186/DepthDuration/depth_discrimination_MTurk/DepthDiscrim_HTML.html#4,4,1366,657,1366,768,7-20-2021,15-19-18,9,depth_discrimination_stimuli/000454_2014-06-08_16-37-28_260595134347_rgbf000048-resize_2/000454_2014-06-08_16-37-28_260595134347_rgbf000048-resize_2-target.png,depth_discrimination_stimuli/000375_2014-06-08_11-17-29_260595134347_rgbf000133-resize_2/000375_2014-06-08_11-17-29_260595134347_rgbf000133-resize_2-target.png,1000,1.213,4.718,0,2597,515,1055,939,1013,489,,,,,,930870,1184686,29
546393,DepthScenes,duration_discrimination,discrim_jsons/shuffled_g0.json,http://54.89.209.186/DepthDuration/depth_discrimination_MTurk/DepthDiscrim_HTML.html#4,4,1366,657,1366,768,7-20-2021,15-19-18,10,depth_discrimination_stimuli/000749_2014-06-08_21-55-06_260595134347_rgbf000070-resize_2/000749_2014-06-08_21-55-06_260595134347_rgbf000070-resize_2-target.png,depth_discrimination_stimuli/001056_2014-06-08_18-46-44_260595134347_rgbf000068-resize_0/001056_2014-06-08_18-46-44_260595134347_rgbf000068-resize_0-target.png,1000,2.331,2.6625,0,3123,517,999,1005,996,500,,,,,,930870,1184686,29
546393,DepthScenes,duration_discrimination,discrim_jsons/shuffled_g0.json,http://54.89.209.186/DepthDuration/depth_discrimination_MTurk/DepthDiscrim_HTML.html#4,4,1366,657,1366,768,7-20-2021,15-19-18,11,depth_discrimination_stimuli/002199_2014-06-28_18-33-56_260595134347_rgbf000074-resize_0/002199_2014-06-28_18-33-56_260595134347_rgbf000074-resize_0-target.png,depth_discrimination_stimuli/001016_2014-06-09_16-16-10_260595134347_rgbf000112-resize_5/001016_2014-06-09_16-16-10_260595134347_rgbf000112-resize_5-target.png,250,1.996,1.6565,0,2403,521,237,998,263,499,,,,,,930870,1184686,29
546393,DepthScenes,duration_discrimination,discrim_jsons/shuffled_g0.json,http://54.89.209.186/DepthDuration/depth_discrimination_MTurk/DepthDiscrim_HTML.html#4,4,1366,657,1366,768,7-20-2021,15-19-18,12,depth_discrimination_stimuli/002118_2014-06-25_20-32-08_260595134347_rgbf000078-resize_1/002118_2014-06-25_20-32-08_260595134347_rgbf000078-resize_1-target.png,depth_discrimination_stimuli/001164_2014-06-17_15-35-46_260595134347_rgbf000085-resize_3/001164_2014-06-17_15-35-46_260595134347_rgbf000085-resize_3-target.png,1000,2.646,2.354,1,2294,521,1001,991,1003,501,,,,,,930870,1184686,29
546393,DepthScenes,duration_discrimination,discrim_jsons/shuffled_g0.json,http://54.89.209.186/DepthDuration/depth_discrimination_MTurk/DepthDiscrim_HTML.html#4,4,1366,657,1366,768,7-20-2021,15-19-18,13,depth_discrimination_stimuli/002953_2014-06-08_17-32-18_094959634447_rgbf000059-resize_5/002953_2014-06-08_17-32-18_094959634447_rgbf000059-resize_5-target.png,depth_discrimination_stimuli/000470_2014-06-09_19-42-40_260595134347_rgbf000094-resize_1/000470_2014-06-09_19-42-40_260595134347_rgbf000094-resize_1-target.png,250,1.551,1.831,1,3310,518,355,895,253,510,,,,,,930870,1184686,29
546393,DepthScenes,duration_discrimination,discrim_jsons/shuffled_g0.json,http://54.89.209.186/DepthDuration/depth_discrimination_MTurk/DepthDiscrim_HTML.html#4,4,1366,657,1366,768,7-20-2021,15-19-18,14,depth_discrimination_stimuli/000929_2014-06-09_16-33-19_260595134347_rgbf000139-resize_0/000929_2014-06-09_16-33-19_260595134347_rgbf000139-resize_0-target.png,depth_discrimination_stimuli/001055_2014-06-08_18-45-35_260595134347_rgbf000111-resize_4/001055_2014-06-08_18-45-35_260595134347_rgbf000111-resize_4-target.png,1000,2.868,2.429,0,2259,514,998,1000,1000,510,,,,,,930870,1184686,29
546393,DepthScenes,duration_discrimination,discrim_jsons/shuffled_g0.json,http://54.89.209.186/DepthDuration/depth_discrimination_MTurk/DepthDiscrim_HTML.html#4,4,1366,657,1366,768,7-20-2021,15-19-18,15,depth_discrimination_stimuli/000493_2014-06-09_21-01-18_260595134347_rgbf000196-resize_3/000493_2014-06-09_21-01-18_260595134347_rgbf000196-resize_3-target.png,depth_discrimination_stimuli/000409_2014-06-04_19-23-33_260595134347_rgbf000067-resize_0/000409_2014-06-04_19-23-33_260595134347_rgbf000067-resize_0-target.png,250,3.44,3.7335,0,2193,515,282,985,220,512,,,,,,930870,1184686,29
546393,DepthScenes,duration_discrimination,discrim_jsons/shuffled_g0.json,http://54.89.209.186/DepthDuration/depth_discrimination_MTurk/DepthDiscrim_HTML.html#4,4,1366,657,1366,768,7-20-2021,15-19-18,16,depth_discrimination_stimuli/000569_2014-06-09_22-51-47_260595134347_rgbf000141-resize_3/000569_2014-06-09_22-51-47_260595134347_rgbf000141-resize_3-target.png,depth_discrimination_stimuli/000868_2014-06-09_20-49-52_260595134347_rgbf000064-resize_4/000868_2014-06-09_20-49-52_260595134347_rgbf000064-resize_4-target.png,250,4.512,1.2815,1,1640,510,248,998,255,497,,,,,,930870,1184686,29
546393,DepthScenes,duration_discrimination,discrim_jsons/shuffled_g0.json,http://54.89.209.186/DepthDuration/depth_discrimination_MTurk/DepthDiscrim_HTML.html#4,4,1366,657,1366,768,7-20-2021,15-19-18,17,depth_discrimination_stimuli/003587_2014-05-23_16-48-02_094959634447_rgbf002384-resize_2/003587_2014-05-23_16-48-02_094959634447_rgbf002384-resize_2-target.png,depth_discrimination_stimuli/000709_2014-06-08_13-51-55_260595134347_rgbf000068-resize_3/000709_2014-06-08_13-51-55_260595134347_rgbf000068-resize_3-target.png,1000,1.357,1.803,1,2396,512,995,1024,1011,467,,,,,,930870,1184686,29
546393,DepthScenes,duration_discrimination,discrim_jsons/shuffled_g0.json,http://54.89.209.186/DepthDuration/depth_discrimination_MTurk/DepthDiscrim_HTML.html#4,4,1366,657,1366,768,7-20-2021,15-19-18,18,depth_discrimination_stimuli/002675_2014-06-13_16-08-49_094959634447_rgbf000151-resize_2/002675_2014-06-13_16-08-49_094959634447_rgbf000151-resize_2-target.png,depth_discrimination_stimuli/001222_2014-06-17_16-24-06_260595134347_rgbf000073-resize_0/001222_2014-06-17_16-24-06_260595134347_rgbf000073-resize_0-target.png,1000,4.5065,1.4385,1,3060,509,1003,1009,988,508,,,,,,930870,1184686,29
546393,DepthScenes,duration_discrimination,discrim_jsons/shuffled_g0.json,http://54.89.209.186/DepthDuration/depth_discrimination_MTurk/DepthDiscrim_HTML.html#4,4,1366,657,1366,768,7-20-2021,15-19-18,19,depth_discrimination_stimuli/002340_2014-06-28_20-05-46_260595134347_rgbf000113-resize_0/002340_2014-06-28_20-05-46_260595134347_rgbf000113-resize_0-target.png,depth_discrimination_stimuli/002905_2014-06-03_18-04-43_094959634447_rgbf000151-resize_2/002905_2014-06-03_18-04-43_094959634447_rgbf000151-resize_2-target.png,1000,2.4735,2.0295,1,1848,527,995,998,1000,519,,,,,,930870,1184686,29
546393,DepthScenes,duration_discrimination,discrim_jsons/shuffled_g0.json,http://54.89.209.186/DepthDuration/depth_discrimination_MTurk/DepthDiscrim_HTML.html#4,4,1366,657,1366,768,7-20-2021,15-19-18,20,depth_discrimination_stimuli/000691_2014-06-08_13-08-50_260595134347_rgbf000132-resize_3/000691_2014-06-08_13-08-50_260595134347_rgbf000132-resize_3-target.png,depth_discrimination_stimuli/002039_2014-06-24_20-22-38_260595134347_rgbf000084-resize_1/002039_2014-06-24_20-22-38_260595134347_rgbf000084-resize_1-target.png,1000,4.153,4.408,1,3523,516,1023,996,978,501,,,,,,930870,1184686,29
546393,DepthScenes,duration_discrimination,discrim_jsons/shuffled_g0.json,http://54.89.209.186/DepthDuration/depth_discrimination_MTurk/DepthDiscrim_HTML.html#4,4,1366,657,1366,768,7-20-2021,15-19-18,21,depth_discrimination_stimuli/000549_2014-06-08_22-10-24_260595134347_rgbf000247-resize_3/000549_2014-06-08_22-10-24_260595134347_rgbf000247-resize_3-target.png,depth_discrimination_stimuli/002509_2014-06-24_13-19-22_094959634447_rgbf000077-resize_0/002509_2014-06-24_13-19-22_094959634447_rgbf000077-resize_0-target.png,1000,1.841,1.3065,1,3391,512,995,1000,1003,503,,,,,,930870,1184686,29
546393,DepthScenes,duration_discrimination,discrim_jsons/shuffled_g0.json,http://54.89.209.186/DepthDuration/depth_discrimination_MTurk/DepthDiscrim_HTML.html#4,4,1366,657,1366,768,7-20-2021,15-19-18,22,depth_discrimination_stimuli/003495_2014-05-21_16-01-51_094959634447_rgbf000100-resize_3/003495_2014-05-21_16-01-51_094959634447_rgbf000100-resize_3-target.png,depth_discrimination_stimuli/002949_2014-06-26_15-57-42_094959634447_rgbf000079-resize_1/002949_2014-06-26_15-57-42_094959634447_rgbf000079-resize_1-target.png,250,1.6255,1.8915,1,6368,614,146,996,251,598,,,,,,930870,1184686,29
546393,DepthScenes,duration_discrimination,discrim_jsons/shuffled_g0.json,http://54.89.209.186/DepthDuration/depth_discrimination_MTurk/DepthDiscrim_HTML.html#4,4,1366,657,1366,768,7-20-2021,15-19-18,23,depth_discrimination_stimuli/001498_2014-06-19_17-45-14_260595134347_rgbf000129-resize_4/001498_2014-06-19_17-45-14_260595134347_rgbf000129-resize_4-target.png,depth_discrimination_stimuli/003125_2014-05-12_10-39-22_094959634447_rgbf000100-resize_0/003125_2014-05-12_10-39-22_094959634447_rgbf000100-resize_0-target.png,1000,1.4075,4.8655,0,3125,508,1004,997,995,503,,,,,,930870,1184686,29
546393,DepthScenes,duration_discrimination,discrim_jsons/shuffled_g0.json,http://54.89.209.186/DepthDuration/depth_discrimination_MTurk/DepthDiscrim_HTML.html#4,4,1366,657,1366,768,7-20-2021,15-19-18,24,depth_discrimination_stimuli/003490_2014-05-21_15-50-11_094959634447_rgbf000101-resize_3/003490_2014-05-21_15-50-11_094959634447_rgbf000101-resize_3-target.png,depth_discrimination_stimuli/000866_2014-06-09_20-45-42_260595134347_rgbf000139-resize_1/000866_2014-06-09_20-45-42_260595134347_rgbf000139-resize_1-target.png,1000,3.6445,3.2155,0,1957,520,995,1001,997,503,,,,,,930870,1184686,29
546393,DepthScenes,duration_discrimination,discrim_jsons/shuffled_g0.json,http://54.89.209.186/DepthDuration/depth_discrimination_MTurk/DepthDiscrim_HTML.html#4,4,1366,657,1366,768,7-20-2021,15-19-18,25,depth_discrimination_stimuli/002072_2014-06-24_21-48-06_260595134347_rgbf000115-resize_0/002072_2014-06-24_21-48-06_260595134347_rgbf000115-resize_0-target.png,depth_discrimination_stimuli/001012_2014-06-08_23-19-38_260595134347_rgbf000057-resize_0/001012_2014-06-08_23-19-38_260595134347_rgbf000057-resize_0-target.png,250,4.702,1.38325,1,1133,501,264,991,245,500,,,,,,930870,1184686,29
546393,DepthScenes,duration_discrimination,discrim_jsons/shuffled_g0.json,http://54.89.209.186/DepthDuration/depth_discrimination_MTurk/DepthDiscrim_HTML.html#4,4,1366,657,1366,768,7-20-2021,15-19-18,26,depth_discrimination_stimuli/002805_2014-06-22_19-54-03_094959634447_rgbf000079-resize_1/002805_2014-06-22_19-54-03_094959634447_rgbf000079-resize_1-target.png,depth_discrimination_stimuli/001584_2014-06-20_11-07-43_260595134347_rgbf000002-resize_1/001584_2014-06-20_11-07-43_260595134347_rgbf000002-resize_1-target.png,250,3.144,3.53,0,1583,512,287,974,242,508,,,,,,930870,1184686,29
546393,DepthScenes,duration_discrimination,discrim_jsons/shuffled_g0.json,http://54.89.209.186/DepthDuration/depth_discrimination_MTurk/DepthDiscrim_HTML.html#4,4,1366,657,1366,768,7-20-2021,15-19-18,27,depth_discrimination_stimuli/003292_2014-05-14_21-53-49_094959634447_rgbf000100-resize_2/003292_2014-05-14_21-53-49_094959634447_rgbf000100-resize_2-target.png,depth_discrimination_stimuli/000542_2014-06-08_18-27-08_260595134347_rgbf000118-resize_1/000542_2014-06-08_18-27-08_260595134347_rgbf000118-resize_1-target.png,1000,3.4815,3,0,2043,513,1003,1002,1008,515,,,,,,930870,1184686,29
546393,DepthScenes,duration_discrimination,discrim_jsons/shuffled_g0.json,http://54.89.209.186/DepthDuration/depth_discrimination_MTurk/DepthDiscrim_HTML.html#4,4,1366,657,1366,768,7-20-2021,15-19-18,28,depth_discrimination_stimuli/002549_2014-06-24_13-41-39_094959634447_rgbf000022-resize_3/002549_2014-06-24_13-41-39_094959634447_rgbf000022-resize_3-target.png,depth_discrimination_stimuli/001136_2014-06-17_15-19-41_260595134347_rgbf000076-resize_3/001136_2014-06-17_15-19-41_260595134347_rgbf000076-resize_3-target.png,1000,1.476,1.8655,0,2874,524,990,1010,990,561,,,,,,930870,1184686,29
546393,DepthScenes,duration_discrimination,discrim_jsons/shuffled_g0.json,http://54.89.209.186/DepthDuration/depth_discrimination_MTurk/DepthDiscrim_HTML.html#4,4,1366,657,1366,768,7-20-2021,15-19-18,29,depth_discrimination_stimuli/000556_2014-06-09_22-42-56_260595134347_rgbf000214-resize_1/000556_2014-06-09_22-42-56_260595134347_rgbf000214-resize_1-target.png,depth_discrimination_stimuli/001148_2014-06-17_15-26-42_260595134347_rgbf000129-resize_0/001148_2014-06-17_15-26-42_260595134347_rgbf000129-resize_0-target.png,1000,4.8415,4.368,0,2292,520,990,1000,1010,496,,,,,,930870,1184686,29
546393,DepthScenes,duration_discrimination,discrim_jsons/shuffled_g0.json,http://54.89.209.186/DepthDuration/depth_discrimination_MTurk/DepthDiscrim_HTML.html#4,4,1366,657,1366,768,7-20-2021,15-19-18,30,depth_discrimination_stimuli/001450_2014-06-19_17-02-03_260595134347_rgbf000203-resize_4/001450_2014-06-19_17-02-03_260595134347_rgbf000203-resize_4-target.png,depth_discrimination_stimuli/002414_2014-06-28_20-24-58_260595134347_rgbf000067-resize_4/002414_2014-06-28_20-24-58_260595134347_rgbf000067-resize_4-target.png,250,4.0106666666667,4.363,1,2606,526,251,998,245,499,,,,,,930870,1184686,29
546393,DepthScenes,duration_discrimination,discrim_jsons/shuffled_g0.json,http://54.89.209.186/DepthDuration/depth_discrimination_MTurk/DepthDiscrim_HTML.html#4,4,1366,657,1366,768,7-20-2021,15-19-18,31,depth_discrimination_stimuli/000927_2014-06-09_16-32-30_260595134347_rgbf000123-resize_3/000927_2014-06-09_16-32-30_260595134347_rgbf000123-resize_3-target.png,depth_discrimination_stimuli/002678_2014-06-13_16-15-32_094959634447_rgbf000151-resize_6/002678_2014-06-13_16-15-32_094959634447_rgbf000151-resize_6-target.png,250,2.6785,2.183,0,4119,512,249,1017,231,502,,,,,,930870,1184686,29
546393,DepthScenes,duration_discrimination,discrim_jsons/shuffled_g0.json,http://54.89.209.186/DepthDuration/depth_discrimination_MTurk/DepthDiscrim_HTML.html#4,4,1366,657,1366,768,7-20-2021,15-19-18,32,depth_discrimination_stimuli/003423_2014-05-21_10-23-26_094959634447_rgbf002665-resize_2/003423_2014-05-21_10-23-26_094959634447_rgbf002665-resize_2-target.png,depth_discrimination_stimuli/000137_2014-05-20_17-04-49_260595134347_rgbf000120-resize_1/000137_2014-05-20_17-04-49_260595134347_rgbf000120-resize_1-target.png,250,3.2575,3.786,1,3486,516,249,988,260,496,,,,,,930870,1184686,29
546393,DepthScenes,duration_discrimination,discrim_jsons/shuffled_g0.json,http://54.89.209.186/DepthDuration/depth_discrimination_MTurk/DepthDiscrim_HTML.html#4,4,1366,657,1366,768,7-20-2021,15-19-18,33,depth_discrimination_stimuli/001158_2014-06-17_15-32-16_260595134347_rgbf000138-resize_2/001158_2014-06-17_15-32-16_260595134347_rgbf000138-resize_2-target.png,depth_discrimination_stimuli/001181_2014-06-17_15-50-57_260595134347_rgbf000106-resize_4/001181_2014-06-17_15-50-57_260595134347_rgbf000106-resize_4-target.png,250,4.5315,4.149,0,1564,503,260,1094,146,499,,,,,,930870,1184686,29
546393,DepthScenes,duration_discrimination,discrim_jsons/shuffled_g0.json,http://54.89.209.186/DepthDuration/depth_discrimination_MTurk/DepthDiscrim_HTML.html#4,4,1366,657,1366,768,7-20-2021,15-19-18,34,depth_discrimination_stimuli/002467_2014-06-28_20-38-07_260595134347_rgbf000026-resize_2/002467_2014-06-28_20-38-07_260595134347_rgbf000026-resize_2-target.png,depth_discrimination_stimuli/001133_2014-06-17_14-49-16_260595134347_rgbf000100-resize_0/001133_2014-06-17_14-49-16_260595134347_rgbf000100-resize_0-target.png,250,4.742,4.2115,1,2508,538,233,1071,216,460,,,,,,930870,1184686,29
546393,DepthScenes,duration_discrimination,discrim_jsons/shuffled_g0.json,http://54.89.209.186/DepthDuration/depth_discrimination_MTurk/DepthDiscrim_HTML.html#4,4,1366,657,1366,768,7-20-2021,15-19-18,35,depth_discrimination_stimuli/001197_2014-06-17_16-01-50_260595134347_rgbf000103-resize_4/001197_2014-06-17_16-01-50_260595134347_rgbf000103-resize_4-target.png,depth_discrimination_stimuli/001235_2014-06-17_16-37-36_260595134347_rgbf000084-resize_4/001235_2014-06-17_16-37-36_260595134347_rgbf000084-resize_4-target.png,250,3.4025,3.6605,1,2037,500,263,988,270,484,,,,,,930870,1184686,29
546393,DepthScenes,duration_discrimination,discrim_jsons/shuffled_g0.json,http://54.89.209.186/DepthDuration/depth_discrimination_MTurk/DepthDiscrim_HTML.html#4,4,1366,657,1366,768,7-20-2021,15-19-18,36,depth_discrimination_stimuli/001170_2014-06-17_15-43-44_260595134347_rgbf000096-resize_6/001170_2014-06-17_15-43-44_260595134347_rgbf000096-resize_6-target.png,depth_discrimination_stimuli/002364_2014-06-28_20-11-05_260595134347_rgbf000042-resize_0/002364_2014-06-28_20-11-05_260595134347_rgbf000042-resize_0-target.png,250,1.191,4.682,0,1632,520,284,966,252,496,,,,,,930870,1184686,29
546393,DepthScenes,duration_discrimination,discrim_jsons/shuffled_g0.json,http://54.89.209.186/DepthDuration/depth_discrimination_MTurk/DepthDiscrim_HTML.html#4,4,1366,657,1366,768,7-20-2021,15-19-18,37,depth_discrimination_stimuli/002323_2014-06-28_20-01-54_260595134347_rgbf000051-resize_4/002323_2014-06-28_20-01-54_260595134347_rgbf000051-resize_4-target.png,depth_discrimination_stimuli/001032_2014-06-08_13-23-17_260595134347_rgbf000021-resize_3/001032_2014-06-08_13-23-17_260595134347_rgbf000021-resize_3-target.png,250,3.731,3.2725,1,1415,517,292,952,259,491,,,,,,930870,1184686,29
546393,DepthScenes,duration_discrimination,discrim_jsons/shuffled_g0.json,http://54.89.209.186/DepthDuration/depth_discrimination_MTurk/DepthDiscrim_HTML.html#4,4,1366,657,1366,768,7-20-2021,15-19-18,38,depth_discrimination_stimuli/001808_2014-06-26_20-50-58_260595134347_rgbf000029-resize_1/001808_2014-06-26_20-50-58_260595134347_rgbf000029-resize_1-target.png,depth_discrimination_stimuli/002748_2014-06-22_19-07-22_094959634447_rgbf000078-resize_1/002748_2014-06-22_19-07-22_094959634447_rgbf000078-resize_1-target.png,250,4.249,4.6705,1,1396,518,256,993,255,497,,,,,,930870,1184686,29
546393,DepthScenes,duration_discrimination,discrim_jsons/shuffled_g0.json,http://54.89.209.186/DepthDuration/depth_discrimination_MTurk/DepthDiscrim_HTML.html#4,4,1366,657,1366,768,7-20-2021,15-19-18,39,depth_discrimination_stimuli/002660_2014-06-13_15-44-18_094959634447_rgbf001878-resize_2/002660_2014-06-13_15-44-18_094959634447_rgbf001878-resize_2-target.png,depth_discrimination_stimuli/003081_2014-06-15_15-19-16_094959634447_rgbf000150-resize_1/003081_2014-06-15_15-19-16_094959634447_rgbf000150-resize_1-target.png,1000,3.576,3.9125,0,4283,512,1049,962,994,498,,,,,,930870,1184686,29
546393,DepthScenes,duration_discrimination,discrim_jsons/shuffled_g0.json,http://54.89.209.186/DepthDuration/depth_discrimination_MTurk/DepthDiscrim_HTML.html#4,4,1366,657,1366,768,7-20-2021,15-19-18,40,depth_discrimination_stimuli/003395_2014-05-20_15-39-18_094959634447_rgbf000101-resize_0/003395_2014-05-20_15-39-18_094959634447_rgbf000101-resize_0-target.png,depth_discrimination_stimuli/001540_2014-06-20_17-01-05_260595134347_rgbf000086-resize_2/001540_2014-06-20_17-01-05_260595134347_rgbf000086-resize_2-target.png,1000,4.835,1.459,1,3529,510,1005,996,1000,495,,,,,,930870,1184686,29
546393,DepthScenes,duration_discrimination,discrim_jsons/shuffled_g0.json,http://54.89.209.186/DepthDuration/depth_discrimination_MTurk/DepthDiscrim_HTML.html#4,4,1366,657,1366,768,7-20-2021,15-19-18,40,,,,,,,3529,510,1005,996,1000,495,,,,,,930870,1184686,29
546393,DepthScenes,duration_discrimination,discrim_jsons/shuffled_g0.json,http://54.89.209.186/DepthDuration/depth_discrimination_MTurk/DepthDiscrim_HTML.html#4,4,1349,657,1366,768,7-20-2021,15-19-18,42,,,,,,,3529,510,1005,996,1000,495,,1,3,depth_discrimination_stimuli/000506_2014-06-08_23-21-00_260595134347_rgbf000070-resize_7/000506_2014-06-08_23-21-00_260595134347_rgbf000070-resize-original.jpg,10468,930870,1184686,29
546393,DepthScenes,duration_discrimination,discrim_jsons/shuffled_g0.json,http://54.89.209.186/DepthDuration/depth_discrimination_MTurk/DepthDiscrim_HTML.html#4,4,1686,821,1366,768,7-20-2021,15-19-18,43,,,,,,,3529,510,1005,996,1000,495,,2,2,depth_discrimination_stimuli/001392_2014-06-19_16-07-59_260595134347_rgbf000046-resize_1/001392_2014-06-19_16-07-59_260595134347_rgbf000046-resize-original.jpg,12001,930870,1184686,29
546393,DepthScenes,duration_discrimination,discrim_jsons/shuffled_g0.json,http://54.89.209.186/DepthDuration/depth_discrimination_MTurk/DepthDiscrim_HTML.html#4,4,1686,821,1366,768,7-20-2021,15-19-18,44,,,,,,,3529,510,1005,996,1000,495,,1,3,depth_discrimination_stimuli/002549_2014-06-24_13-41-39_094959634447_rgbf000022-resize_3/002549_2014-06-24_13-41-39_094959634447_rgbf000022-resize-original.jpg,5749,930870,1184686,29
546393,DepthScenes,duration_discrimination,discrim_jsons/shuffled_g0.json,http://54.89.209.186/DepthDuration/depth_discrimination_MTurk/DepthDiscrim_HTML.html#4,4,1686,821,1366,768,7-20-2021,15-19-18,45,,,,,,,3529,510,1005,996,1000,495,,1,4,depth_discrimination_stimuli/002153_2014-06-25_21-27-18_260595134347_rgbf000038-resize_5/002153_2014-06-25_21-27-18_260595134347_rgbf000038-resize-original.jpg,2955,930870,1184686,29
546393,DepthScenes,duration_discrimination,discrim_jsons/shuffled_g0.json,http://54.89.209.186/DepthDuration/depth_discrimination_MTurk/DepthDiscrim_HTML.html#4,4,1686,821,1366,768,7-20-2021,15-19-18,46,,,,,,,3529,510,1005,996,1000,495,,1,3,depth_discrimination_stimuli/000692_2014-06-08_13-09-42_260595134347_rgbf000199-resize_2/000692_2014-06-08_13-09-42_260595134347_rgbf000199-resize-original.jpg,2589,930870,1184686,29
546393,DepthScenes,duration_discrimination,discrim_jsons/shuffled_g0.json,http://54.89.209.186/DepthDuration/depth_discrimination_MTurk/DepthDiscrim_HTML.html#4,4,1686,821,1366,768,7-20-2021,15-19-18,47,,,,,,,3529,510,1005,996,1000,495,,1,3,depth_discrimination_stimuli/003010_2014-06-15_12-54-35_094959634447_rgbf000112-resize_0/003010_2014-06-15_12-54-35_094959634447_rgbf000112-resize-original.jpg,3850,930870,1184686,29
546393,DepthScenes,duration_discrimination,discrim_jsons/shuffled_g0.json,http://54.89.209.186/DepthDuration/depth_discrimination_MTurk/DepthDiscrim_HTML.html#4,4,1686,821,1366,768,7-20-2021,15-19-18,48,,,,,,,3529,510,1005,996,1000,495,,1,2,depth_discrimination_stimuli/000642_2014-06-08_16-59-25_260595134347_rgbf000098-resize_2/000642_2014-06-08_16-59-25_260595134347_rgbf000098-resize-original.jpg,4163,930870,1184686,29
546393,DepthScenes,duration_discrimination,discrim_jsons/shuffled_g0.json,http://54.89.209.186/DepthDuration/depth_discrimination_MTurk/DepthDiscrim_HTML.html#4,4,1686,821,1366,768,7-20-2021,15-19-18,49,,,,,,,3529,510,1005,996,1000,495,,1,4,depth_discrimination_stimuli/002639_2014-06-24_14-51-37_094959634447_rgbf000074-resize_4/002639_2014-06-24_14-51-37_094959634447_rgbf000074-resize-original.jpg,9600,930870,1184686,29
546393,DepthScenes,duration_discrimination,discrim_jsons/shuffled_g0.json,http://54.89.209.186/DepthDuration/depth_discrimination_MTurk/DepthDiscrim_HTML.html#4,4,1686,821,1366,768,7-20-2021,15-19-18,50,,,,,,,3529,510,1005,996,1000,495,,1,4,depth_discrimination_stimuli/002199_2014-06-28_18-33-56_260595134347_rgbf000074-resize_0/002199_2014-06-28_18-33-56_260595134347_rgbf000074-resize-original.jpg,2089,930870,1184686,29
546393,DepthScenes,duration_discrimination,discrim_jsons/shuffled_g0.json,http://54.89.209.186/DepthDuration/depth_discrimination_MTurk/DepthDiscrim_HTML.html#4,4,1686,821,1366,768,7-20-2021,15-19-18,51,,,,,,,3529,510,1005,996,1000,495,,2,4,depth_discrimination_stimuli/001016_2014-06-09_16-16-10_260595134347_rgbf000112-resize_5/001016_2014-06-09_16-16-10_260595134347_rgbf000112-resize-original.jpg,2345,930870,1184686,29
546393,DepthScenes,duration_discrimination,discrim_jsons/shuffled_g0.json,http://54.89.209.186/DepthDuration/depth_discrimination_MTurk/DepthDiscrim_HTML.html#4,4,1686,821,1366,768,7-20-2021,15-19-18,52,,,,,,,3529,510,1005,996,1000,495,,2,5,depth_discrimination_stimuli/002272_2014-06-28_18-53-56_260595134347_rgbf000067-resize_2/002272_2014-06-28_18-53-56_260595134347_rgbf000067-resize-original.jpg,1548,930870,1184686,29
546393,DepthScenes,duration_discrimination,discrim_jsons/shuffled_g0.json,http://54.89.209.186/DepthDuration/depth_discrimination_MTurk/DepthDiscrim_HTML.html#4,4,1686,821,1366,768,7-20-2021,15-19-18,53,,,,,,,3529,510,1005,996,1000,495,,2,4,depth_discrimination_stimuli/003081_2014-06-15_15-19-16_094959634447_rgbf000150-resize_1/003081_2014-06-15_15-19-16_094959634447_rgbf000150-resize-original.jpg,2102,930870,1184686,29
546393,DepthScenes,duration_discrimination,discrim_jsons/shuffled_g0.json,http://54.89.209.186/DepthDuration/depth_discrimination_MTurk/DepthDiscrim_HTML.html#4,4,1686,821,1366,768,7-20-2021,15-19-18,54,,,,,,,3529,510,1005,996,1000,495,,1,4,depth_discrimination_stimuli/000929_2014-06-09_16-33-19_260595134347_rgbf000139-resize_0/000929_2014-06-09_16-33-19_260595134347_rgbf000139-resize-original.jpg,1947,930870,1184686,29
546393,DepthScenes,duration_discrimination,discrim_jsons/shuffled_g0.json,http://54.89.209.186/DepthDuration/depth_discrimination_MTurk/DepthDiscrim_HTML.html#4,4,1686,821,1366,768,7-20-2021,15-19-18,55,,,,,,,3529,510,1005,996,1000,495,,1,3,depth_discrimination_stimuli/000742_2014-06-08_18-48-09_260595134347_rgbf000164-resize_4/000742_2014-06-08_18-48-09_260595134347_rgbf000164-resize-original.jpg,1651,930870,1184686,29
546393,DepthScenes,duration_discrimination,discrim_jsons/shuffled_g0.json,http://54.89.209.186/DepthDuration/depth_discrimination_MTurk/DepthDiscrim_HTML.html#4,4,1686,821,1366,768,7-20-2021,15-19-18,56,,,,,,,3529,510,1005,996,1000,495,,2,4,depth_discrimination_stimuli/001199_2014-06-17_16-03-48_260595134347_rgbf000077-resize_0/001199_2014-06-17_16-03-48_260595134347_rgbf000077-resize-original.jpg,2863,930870,1184686,29
546393,DepthScenes,duration_discrimination,discrim_jsons/shuffled_g0.json,http://54.89.209.186/DepthDuration/depth_discrimination_MTurk/DepthDiscrim_HTML.html#4,4,1686,821,1366,768,7-20-2021,15-19-18,57,,,,,,,3529,510,1005,996,1000,495,,2,5,depth_discrimination_stimuli/000720_2014-06-08_18-37-27_260595134347_rgbf000203-resize_4/000720_2014-06-08_18-37-27_260595134347_rgbf000203-resize-original.jpg,1655,930870,1184686,29
546393,DepthScenes,duration_discrimination,discrim_jsons/shuffled_g0.json,http://54.89.209.186/DepthDuration/depth_discrimination_MTurk/DepthDiscrim_HTML.html#4,4,1686,821,1366,768,7-20-2021,15-19-18,58,,,,,,,3529,510,1005,996,1000,495,,1,4,depth_discrimination_stimuli/001150_2014-06-17_15-27-34_260595134347_rgbf000108-resize_2/001150_2014-06-17_15-27-34_260595134347_rgbf000108-resize-original.jpg,2723,930870,1184686,29
546393,DepthScenes,duration_discrimination,discrim_jsons/shuffled_g0.json,http://54.89.209.186/DepthDuration/depth_discrimination_MTurk/DepthDiscrim_HTML.html#4,4,1686,821,1366,768,7-20-2021,15-19-18,59,,,,,,,3529,510,1005,996,1000,495,,1,3,depth_discrimination_stimuli/000677_2014-06-08_23-10-32_260595134347_rgbf000158-resize_6/000677_2014-06-08_23-10-32_260595134347_rgbf000158-resize-original.jpg,2173,930870,1184686,29
546393,DepthScenes,duration_discrimination,discrim_jsons/shuffled_g0.json,http://54.89.209.186/DepthDuration/depth_discrimination_MTurk/DepthDiscrim_HTML.html#4,4,1686,821,1366,768,7-20-2021,15-19-18,60,,,,,,,3529,510,1005,996,1000,495,,1,5,depth_discrimination_stimuli/000556_2014-06-09_22-42-56_260595134347_rgbf000214-resize_1/000556_2014-06-09_22-42-56_260595134347_rgbf000214-resize-original.jpg,1860,930870,1184686,29
546393,DepthScenes,duration_discrimination,discrim_jsons/shuffled_g0.json,http://54.89.209.186/DepthDuration/depth_discrimination_MTurk/DepthDiscrim_HTML.html#4,4,1686,821,1366,768,7-20-2021,15-19-18,61,,,,,,,3529,510,1005,996,1000,495,,1,3,depth_discrimination_stimuli/002660_2014-06-13_15-44-18_094959634447_rgbf001878-resize_2/002660_2014-06-13_15-44-18_094959634447_rgbf001878-resize-original.jpg,1558,930870,1184686,29
546393,DepthScenes,duration_discrimination,discrim_jsons/shuffled_g0.json,http://54.89.209.186/DepthDuration/depth_discrimination_MTurk/DepthDiscrim_HTML.html#4,4,1686,821,1366,768,7-20-2021,15-19-18,62,,,,,,,3529,510,1005,996,1000,495,,1,4,scene_property_catch_stimuli/sun_aoquhiddlfqapdlz.jpg,1562,930870,1184686,29
546393,DepthScenes,duration_discrimination,discrim_jsons/shuffled_g0.json,http://54.89.209.186/DepthDuration/depth_discrimination_MTurk/DepthDiscrim_HTML.html#4,4,1686,821,1366,768,7-20-2021,15-19-18,63,,,,,,,3529,510,1005,996,1000,495,,1,3,depth_discrimination_stimuli/001056_2014-06-08_18-46-44_260595134347_rgbf000068-resize_0/001056_2014-06-08_18-46-44_260595134347_rgbf000068-resize-original.jpg,1820,930870,1184686,29
546393,DepthScenes,duration_discrimination,discrim_jsons/shuffled_g0.json,http://54.89.209.186/DepthDuration/depth_discrimination_MTurk/DepthDiscrim_HTML.html#4,4,1686,821,1366,768,7-20-2021,15-19-18,64,,,,,,,3529,510,1005,996,1000,495,,1,4,depth_discrimination_stimuli/002700_2014-06-22_11-27-02_094959634447_rgbf000124-resize_3/002700_2014-06-22_11-27-02_094959634447_rgbf000124-resize-original.jpg,1480,930870,1184686,29
546393,DepthScenes,duration_discrimination,discrim_jsons/shuffled_g0.json,http://54.89.209.186/DepthDuration/depth_discrimination_MTurk/DepthDiscrim_HTML.html#4,4,1686,821,1366,768,7-20-2021,15-19-18,65,,,,,,,3529,510,1005,996,1000,495,,2,4,depth_discrimination_stimuli/000739_2014-06-08_18-45-58_260595134347_rgbf000068-resize_1/000739_2014-06-08_18-45-58_260595134347_rgbf000068-resize-original.jpg,2303,930870,1184686,29
546393,DepthScenes,duration_discrimination,discrim_jsons/shuffled_g0.json,http://54.89.209.186/DepthDuration/depth_discrimination_MTurk/DepthDiscrim_HTML.html#4,4,1686,821,1366,768,7-20-2021,15-19-18,66,,,,,,,3529,510,1005,996,1000,495,,1,2,depth_discrimination_stimuli/001650_2014-06-20_12-09-00_260595134347_rgbf000087-resize_3/001650_2014-06-20_12-09-00_260595134347_rgbf000087-resize-original.jpg,2090,930870,1184686,29
546393,DepthScenes,duration_discrimination,discrim_jsons/shuffled_g0.json,http://54.89.209.186/DepthDuration/depth_discrimination_MTurk/DepthDiscrim_HTML.html#4,4,1686,821,1366,768,7-20-2021,15-19-18,67,,,,,,,3529,510,1005,996,1000,495,,1,3,depth_discrimination_stimuli/002425_2014-06-28_20-27-29_260595134347_rgbf000031-resize_8/002425_2014-06-28_20-27-29_260595134347_rgbf000031-resize-original.jpg,2821,930870,1184686,29
546393,DepthScenes,duration_discrimination,discrim_jsons/shuffled_g0.json,http://54.89.209.186/DepthDuration/depth_discrimination_MTurk/DepthDiscrim_HTML.html#4,4,1686,821,1366,768,7-20-2021,15-19-18,68,,,,,,,3529,510,1005,996,1000,495,,2,4,depth_discrimination_stimuli/002039_2014-06-24_20-22-38_260595134347_rgbf000084-resize_1/002039_2014-06-24_20-22-38_260595134347_rgbf000084-resize-original.jpg,12022,930870,1184686,29
546393,DepthScenes,duration_discrimination,discrim_jsons/shuffled_g0.json,http://54.89.209.186/DepthDuration/depth_discrimination_MTurk/DepthDiscrim_HTML.html#4,4,1686,821,1366,768,7-20-2021,15-19-18,69,,,,,,,3529,510,1005,996,1000,495,,2,4,depth_discrimination_stimuli/000830_2014-06-04_19-49-31_260595134347_rgbf000096-resize_2/000830_2014-06-04_19-49-31_260595134347_rgbf000096-resize-original.jpg,1672,930870,1184686,29
546393,DepthScenes,duration_discrimination,discrim_jsons/shuffled_g0.json,http://54.89.209.186/DepthDuration/depth_discrimination_MTurk/DepthDiscrim_HTML.html#4,4,1686,821,1366,768,7-20-2021,15-19-18,70,,,,,,,3529,510,1005,996,1000,495,,2,4,depth_discrimination_stimuli/002139_2014-06-25_21-19-37_260595134347_rgbf000124-resize_2/002139_2014-06-25_21-19-37_260595134347_rgbf000124-resize-original.jpg,2831,930870,1184686,29
546393,DepthScenes,duration_discrimination,discrim_jsons/shuffled_g0.json,http://54.89.209.186/DepthDuration/depth_discrimination_MTurk/DepthDiscrim_HTML.html#4,4,1686,821,1366,768,7-20-2021,15-19-18,71,,,,,,,3529,510,1005,996,1000,495,,1,4,depth_discrimination_stimuli/001447_2014-06-19_17-00-32_260595134347_rgbf000082-resize_5/001447_2014-06-19_17-00-32_260595134347_rgbf000082-resize-original.jpg,1803,930870,1184686,29
546393,DepthScenes,duration_discrimination,discrim_jsons/shuffled_g0.json,http://54.89.209.186/DepthDuration/depth_discrimination_MTurk/DepthDiscrim_HTML.html#4,4,1686,821,1366,768,7-20-2021,15-19-18,72,,,,,,,3529,510,1005,996,1000,495,,2,4,depth_discrimination_stimuli/000635_2014-06-08_16-38-42_260595134347_rgbf000106-resize_1/000635_2014-06-08_16-38-42_260595134347_rgbf000106-resize-original.jpg,1669,930870,1184686,29
546393,DepthScenes,duration_discrimination,discrim_jsons/shuffled_g0.json,http://54.89.209.186/DepthDuration/depth_discrimination_MTurk/DepthDiscrim_HTML.html#4,4,1686,821,1366,768,7-20-2021,15-19-18,73,,,,,,,3529,510,1005,996,1000,495,,1,4,depth_discrimination_stimuli/000735_2014-06-08_18-23-50_260595134347_rgbf000163-resize_2/000735_2014-06-08_18-23-50_260595134347_rgbf000163-resize-original.jpg,2117,930870,1184686,29
546393,DepthScenes,duration_discrimination,discrim_jsons/shuffled_g0.json,http://54.89.209.186/DepthDuration/depth_discrimination_MTurk/DepthDiscrim_HTML.html#4,4,1686,821,1366,768,7-20-2021,15-19-18,74,,,,,,,3529,510,1005,996,1000,495,,2,4,depth_discrimination_stimuli/000740_2014-06-08_18-46-23_260595134347_rgbf000049-resize_6/000740_2014-06-08_18-46-23_260595134347_rgbf000049-resize-original.jpg,2266,930870,1184686,29
546393,DepthScenes,duration_discrimination,discrim_jsons/shuffled_g0.json,http://54.89.209.186/DepthDuration/depth_discrimination_MTurk/DepthDiscrim_HTML.html#4,4,1686,821,1366,768,7-20-2021,15-19-18,75,,,,,,,3529,510,1005,996,1000,495,,1,4,depth_discrimination_stimuli/001532_2014-06-20_16-50-41_260595134347_rgbf000081-resize_4/001532_2014-06-20_16-50-41_260595134347_rgbf000081-resize-original.jpg,1909,930870,1184686,29
546393,DepthScenes,duration_discrimination,discrim_jsons/shuffled_g0.json,http://54.89.209.186/DepthDuration/depth_discrimination_MTurk/DepthDiscrim_HTML.html#4,4,1686,821,1366,768,7-20-2021,15-19-18,76,,,,,,,3529,510,1005,996,1000,495,,2,4,depth_discrimination_stimuli/001181_2014-06-17_15-50-57_260595134347_rgbf000106-resize_4/001181_2014-06-17_15-50-57_260595134347_rgbf000106-resize-original.jpg,2316,930870,1184686,29
546393,DepthScenes,duration_discrimination,discrim_jsons/shuffled_g0.json,http://54.89.209.186/DepthDuration/depth_discrimination_MTurk/DepthDiscrim_HTML.html#4,4,1686,821,1366,768,7-20-2021,15-19-18,77,,,,,,,3529,510,1005,996,1000,495,,1,3,depth_discrimination_stimuli/002279_2014-06-28_18-55-32_260595134347_rgbf000040-resize_5/002279_2014-06-28_18-55-32_260595134347_rgbf000040-resize-original.jpg,3188,930870,1184686,29
546393,DepthScenes,duration_discrimination,discrim_jsons/shuffled_g0.json,http://54.89.209.186/DepthDuration/depth_discrimination_MTurk/DepthDiscrim_HTML.html#4,4,1686,821,1366,768,7-20-2021,15-19-18,78,,,,,,,3529,510,1005,996,1000,495,,1,4,depth_discrimination_stimuli/002057_2014-06-24_21-00-13_260595134347_rgbf000120-resize_1/002057_2014-06-24_21-00-13_260595134347_rgbf000120-resize-original.jpg,2343,930870,1184686,29
546393,DepthScenes,duration_discrimination,discrim_jsons/shuffled_g0.json,http://54.89.209.186/DepthDuration/depth_discrimination_MTurk/DepthDiscrim_HTML.html#4,4,1686,821,1366,768,7-20-2021,15-19-18,79,,,,,,,3529,510,1005,996,1000,495,,1,3,depth_discrimination_stimuli/000457_2014-06-08_16-52-43_260595134347_rgbf000199-resize_1/000457_2014-06-08_16-52-43_260595134347_rgbf000199-resize-original.jpg,2556,930870,1184686,29
546393,DepthScenes,duration_discrimination,discrim_jsons/shuffled_g0.json,http://54.89.209.186/DepthDuration/depth_discrimination_MTurk/DepthDiscrim_HTML.html#4,4,1686,821,1366,768,7-20-2021,15-19-18,80,,,,,,,3529,510,1005,996,1000,495,,1,2,depth_discrimination_stimuli/002509_2014-06-24_13-19-22_094959634447_rgbf000077-resize_0/002509_2014-06-24_13-19-22_094959634447_rgbf000077-resize-original.jpg,2242,930870,1184686,29
546393,DepthScenes,duration_discrimination,discrim_jsons/shuffled_g0.json,http://54.89.209.186/DepthDuration/depth_discrimination_MTurk/DepthDiscrim_HTML.html#4,4,1686,821,1366,768,7-20-2021,15-19-18,81,,,,,,,3529,510,1005,996,1000,495,,1,2,depth_discrimination_stimuli/002460_2014-06-28_20-35-43_260595134347_rgbf000028-resize_4/002460_2014-06-28_20-35-43_260595134347_rgbf000028-resize-original.jpg,2337,930870,1184686,29
546393,DepthScenes,duration_discrimination,discrim_jsons/shuffled_g0.json,http://54.89.209.186/DepthDuration/depth_discrimination_MTurk/DepthDiscrim_HTML.html#4,4,1686,821,1366,768,7-20-2021,15-19-18,82,,,,,,,3529,510,1005,996,1000,495,,1,4,depth_discrimination_stimuli/002905_2014-06-03_18-04-43_094959634447_rgbf000151-resize_2/002905_2014-06-03_18-04-43_094959634447_rgbf000151-resize-original.jpg,2143,930870,1184686,29
546393,DepthScenes,duration_discrimination,discrim_jsons/shuffled_g0.json,http://54.89.209.186/DepthDuration/depth_discrimination_MTurk/DepthDiscrim_HTML.html#4,4,1686,821,1366,768,7-20-2021,15-19-18,83,,,,,,,3529,510,1005,996,1000,495,,2,4,depth_discrimination_stimuli/000736_2014-06-08_18-24-15_260595134347_rgbf000206-resize_3/000736_2014-06-08_18-24-15_260595134347_rgbf000206-resize-original.jpg,4282,930870,1184686,29
546393,DepthScenes,duration_discrimination,discrim_jsons/shuffled_g0.json,http://54.89.209.186/DepthDuration/depth_discrimination_MTurk/DepthDiscrim_HTML.html#4,4,1686,821,1366,768,7-20-2021,15-19-18,84,,,,,,,3529,510,1005,996,1000,495,,1,4,depth_discrimination_stimuli/000009_2014-05-26_14-32-05_260595134347_rgbf000034-resize_3/000009_2014-05-26_14-32-05_260595134347_rgbf000034-resize-original.jpg,7516,930870,1184686,29
546393,DepthScenes,duration_discrimination,discrim_jsons/shuffled_g0.json,http://54.89.209.186/DepthDuration/depth_discrimination_MTurk/DepthDiscrim_HTML.html#4,4,1686,821,1366,768,7-20-2021,15-19-18,85,,,,,,,3529,510,1005,996,1000,495,,1,2,depth_discrimination_stimuli/003070_2014-06-15_14-58-27_094959634447_rgbf000150-resize_3/003070_2014-06-15_14-58-27_094959634447_rgbf000150-resize-original.jpg,3956,930870,1184686,29
546393,DepthScenes,duration_discrimination,discrim_jsons/shuffled_g0.json,http://54.89.209.186/DepthDuration/depth_discrimination_MTurk/DepthDiscrim_HTML.html#4,4,1686,821,1366,768,7-20-2021,15-19-18,86,,,,,,,3529,510,1005,996,1000,495,,1,3,depth_discrimination_stimuli/001450_2014-06-19_17-02-03_260595134347_rgbf000203-resize_4/001450_2014-06-19_17-02-03_260595134347_rgbf000203-resize-original.jpg,5071,930870,1184686,29
546393,DepthScenes,duration_discrimination,discrim_jsons/shuffled_g0.json,http://54.89.209.186/DepthDuration/depth_discrimination_MTurk/DepthDiscrim_HTML.html#4,4,1686,821,1366,768,7-20-2021,15-19-18,87,,,,,,,3529,510,1005,996,1000,495,,2,4,depth_discrimination_stimuli/001244_2014-06-17_16-47-45_260595134347_rgbf000030-resize_4/001244_2014-06-17_16-47-45_260595134347_rgbf000030-resize-original.jpg,3590,930870,1184686,29
546393,DepthScenes,duration_discrimination,discrim_jsons/shuffled_g0.json,http://54.89.209.186/DepthDuration/depth_discrimination_MTurk/DepthDiscrim_HTML.html#4,4,1686,821,1366,768,7-20-2021,15-19-18,88,,,,,,,3529,510,1005,996,1000,495,,1,5,depth_discrimination_stimuli/000691_2014-06-08_13-08-50_260595134347_rgbf000132-resize_3/000691_2014-06-08_13-08-50_260595134347_rgbf000132-resize-original.jpg,2613,930870,1184686,29
546393,DepthScenes,duration_discrimination,discrim_jsons/shuffled_g0.json,http://54.89.209.186/DepthDuration/depth_discrimination_MTurk/DepthDiscrim_HTML.html#4,4,1686,821,1366,768,7-20-2021,15-19-18,89,,,,,,,3529,510,1005,996,1000,495,,2,4,depth_discrimination_stimuli/002467_2014-06-28_20-38-07_260595134347_rgbf000026-resize_2/002467_2014-06-28_20-38-07_260595134347_rgbf000026-resize-original.jpg,2472,930870,1184686,29
546393,DepthScenes,duration_discrimination,discrim_jsons/shuffled_g0.json,http://54.89.209.186/DepthDuration/depth_discrimination_MTurk/DepthDiscrim_HTML.html#4,4,1686,821,1366,768,7-20-2021,15-19-18,90,,,,,,,3529,510,1005,996,1000,495,,2,4,depth_discrimination_stimuli/002988_2014-06-15_12-24-20_094959634447_rgbf000150-resize_1/002988_2014-06-15_12-24-20_094959634447_rgbf000150-resize-original.jpg,18605,930870,1184686,29
546393,DepthScenes,duration_discrimination,discrim_jsons/shuffled_g0.json,http://54.89.209.186/DepthDuration/depth_discrimination_MTurk/DepthDiscrim_HTML.html#4,4,1686,821,1366,768,7-20-2021,15-19-18,91,,,,,,,3529,510,1005,996,1000,495,,2,4,depth_discrimination_stimuli/003069_2014-06-15_14-57-50_094959634447_rgbf000150-resize_4/003069_2014-06-15_14-57-50_094959634447_rgbf000150-resize-original.jpg,4651,930870,1184686,29
546393,DepthScenes,duration_discrimination,discrim_jsons/shuffled_g0.json,http://54.89.209.186/DepthDuration/depth_discrimination_MTurk/DepthDiscrim_HTML.html#4,4,1686,821,1366,768,7-20-2021,15-19-18,92,,,,,,,3529,510,1005,996,1000,495,,1,3,depth_discrimination_stimuli/000869_2014-06-09_20-50-18_260595134347_rgbf000060-resize_3/000869_2014-06-09_20-50-18_260595134347_rgbf000060-resize-original.jpg,1993,930870,1184686,29
546393,DepthScenes,duration_discrimination,discrim_jsons/shuffled_g0.json,http://54.89.209.186/DepthDuration/depth_discrimination_MTurk/DepthDiscrim_HTML.html#4,4,1686,821,1366,768,7-20-2021,15-19-18,93,,,,,,,3529,510,1005,996,1000,495,,1,3,depth_discrimination_stimuli/002790_2014-06-22_19-36-35_094959634447_rgbf000074-resize_4/002790_2014-06-22_19-36-35_094959634447_rgbf000074-resize-original.jpg,1640,930870,1184686,29
546393,DepthScenes,duration_discrimination,discrim_jsons/shuffled_g0.json,http://54.89.209.186/DepthDuration/depth_discrimination_MTurk/DepthDiscrim_HTML.html#4,4,1686,821,1366,768,7-20-2021,15-19-18,94,,,,,,,3529,510,1005,996,1000,495,,2,4,depth_discrimination_stimuli/001235_2014-06-17_16-37-36_260595134347_rgbf000084-resize_4/001235_2014-06-17_16-37-36_260595134347_rgbf000084-resize-original.jpg,2256,930870,1184686,29
546393,DepthScenes,duration_discrimination,discrim_jsons/shuffled_g0.json,http://54.89.209.186/DepthDuration/depth_discrimination_MTurk/DepthDiscrim_HTML.html#4,4,1686,821,1366,768,7-20-2021,15-19-18,95,,,,,,,3529,510,1005,996,1000,495,,2,3,depth_discrimination_stimuli/002657_2014-06-13_15-29-54_094959634447_rgbf000150-resize_1/002657_2014-06-13_15-29-54_094959634447_rgbf000150-resize-original.jpg,4004,930870,1184686,29
546393,DepthScenes,duration_discrimination,discrim_jsons/shuffled_g0.json,http://54.89.209.186/DepthDuration/depth_discrimination_MTurk/DepthDiscrim_HTML.html#4,4,1686,821,1366,768,7-20-2021,15-19-18,96,,,,,,,3529,510,1005,996,1000,495,,3,4,depth_discrimination_stimuli/002637_2014-06-24_14-51-13_094959634447_rgbf000066-resize_4/002637_2014-06-24_14-51-13_094959634447_rgbf000066-resize-original.jpg,2838,930870,1184686,29
546393,DepthScenes,duration_discrimination,discrim_jsons/shuffled_g0.json,http://54.89.209.186/DepthDuration/depth_discrimination_MTurk/DepthDiscrim_HTML.html#4,4,1686,821,1366,768,7-20-2021,15-19-18,97,,,,,,,3529,510,1005,996,1000,495,,2,3,depth_discrimination_stimuli/002630_2014-06-24_14-47-50_094959634447_rgbf000055-resize_1/002630_2014-06-24_14-47-50_094959634447_rgbf000055-resize-original.jpg,2253,930870,1184686,29
546393,DepthScenes,duration_discrimination,discrim_jsons/shuffled_g0.json,http://54.89.209.186/DepthDuration/depth_discrimination_MTurk/DepthDiscrim_HTML.html#4,4,1686,821,1366,768,7-20-2021,15-19-18,98,,,,,,,3529,510,1005,996,1000,495,,1,3,depth_discrimination_stimuli/001555_2014-06-20_17-12-10_260595134347_rgbf000065-resize_4/001555_2014-06-20_17-12-10_260595134347_rgbf000065-resize-original.jpg,2206,930870,1184686,29
546393,DepthScenes,duration_discrimination,discrim_jsons/shuffled_g0.json,http://54.89.209.186/DepthDuration/depth_discrimination_MTurk/DepthDiscrim_HTML.html#4,4,1686,821,1366,768,7-20-2021,15-19-18,99,,,,,,,3529,510,1005,996,1000,495,,1,3,depth_discrimination_stimuli/002949_2014-06-26_15-57-42_094959634447_rgbf000079-resize_1/002949_2014-06-26_15-57-42_094959634447_rgbf000079-resize-original.jpg,2408,930870,1184686,29
546393,DepthScenes,duration_discrimination,discrim_jsons/shuffled_g0.json,http://54.89.209.186/DepthDuration/depth_discrimination_MTurk/DepthDiscrim_HTML.html#4,4,1686,821,1366,768,7-20-2021,15-19-18,100,,,,,,,3529,510,1005,996,1000,495,,1,4,depth_discrimination_stimuli/000943_2014-06-09_19-31-07_260595134347_rgbf000128-resize_1/000943_2014-06-09_19-31-07_260595134347_rgbf000128-resize-original.jpg,1973,930870,1184686,29
546393,DepthScenes,duration_discrimination,discrim_jsons/shuffled_g0.json,http://54.89.209.186/DepthDuration/depth_discrimination_MTurk/DepthDiscrim_HTML.html#4,4,1686,821,1366,768,7-20-2021,15-19-18,101,,,,,,,3529,510,1005,996,1000,495,,2,4,depth_discrimination_stimuli/000470_2014-06-09_19-42-40_260595134347_rgbf000094-resize_1/000470_2014-06-09_19-42-40_260595134347_rgbf000094-resize-original.jpg,2026,930870,1184686,29
546393,DepthScenes,duration_discrimination,discrim_jsons/shuffled_g0.json,http://54.89.209.186/DepthDuration/depth_discrimination_MTurk/DepthDiscrim_HTML.html#4,4,1686,821,1366,768,7-20-2021,15-19-18,102,,,,,,,3529,510,1005,996,1000,495,,1,3,depth_discrimination_stimuli/002209_2014-06-28_18-36-10_260595134347_rgbf000051-resize_1/002209_2014-06-28_18-36-10_260595134347_rgbf000051-resize-original.jpg,3010,930870,1184686,29
546393,DepthScenes,duration_discrimination,discrim_jsons/shuffled_g0.json,http://54.89.209.186/DepthDuration/depth_discrimination_MTurk/DepthDiscrim_HTML.html#4,4,1686,821,1366,768,7-20-2021,15-19-18,103,,,,,,,3529,510,1005,996,1000,495,,2,4,depth_discrimination_stimuli/002444_2014-06-28_20-32-08_260595134347_rgbf000027-resize_0/002444_2014-06-28_20-32-08_260595134347_rgbf000027-resize-original.jpg,23867,930870,1184686,29
546393,DepthScenes,duration_discrimination,discrim_jsons/shuffled_g0.json,http://54.89.209.186/DepthDuration/depth_discrimination_MTurk/DepthDiscrim_HTML.html#4,4,1686,821,1366,768,7-20-2021,15-19-18,104,,,,,,,3529,510,1005,996,1000,495,,1,3,depth_discrimination_stimuli/002875_2014-06-01_15-19-00_094959634447_rgbf000151-resize_1/002875_2014-06-01_15-19-00_094959634447_rgbf000151-resize-original.jpg,2750,930870,1184686,29
546393,DepthScenes,duration_discrimination,discrim_jsons/shuffled_g0.json,http://54.89.209.186/DepthDuration/depth_discrimination_MTurk/DepthDiscrim_HTML.html#4,4,1686,821,1366,768,7-20-2021,15-19-18,105,,,,,,,3529,510,1005,996,1000,495,,2,3,depth_discrimination_stimuli/002953_2014-06-08_17-32-18_094959634447_rgbf000059-resize_5/002953_2014-06-08_17-32-18_094959634447_rgbf000059-resize-original.jpg,2010,930870,1184686,29
546393,DepthScenes,duration_discrimination,discrim_jsons/shuffled_g0.json,http://54.89.209.186/DepthDuration/depth_discrimination_MTurk/DepthDiscrim_HTML.html#4,4,1686,821,1366,768,7-20-2021,15-19-18,106,,,,,,,3529,510,1005,996,1000,495,,1,4,depth_discrimination_stimuli/003587_2014-05-23_16-48-02_094959634447_rgbf002384-resize_2/003587_2014-05-23_16-48-02_094959634447_rgbf002384-resize-original.jpg,2114,930870,1184686,29
546393,DepthScenes,duration_discrimination,discrim_jsons/shuffled_g0.json,http://54.89.209.186/DepthDuration/depth_discrimination_MTurk/DepthDiscrim_HTML.html#4,4,1686,821,1366,768,7-20-2021,15-19-18,107,,,,,,,3529,510,1005,996,1000,495,,2,4,depth_discrimination_stimuli/000758_2014-06-08_22-05-08_260595134347_rgbf000085-resize_0/000758_2014-06-08_22-05-08_260595134347_rgbf000085-resize-original.jpg,2362,930870,1184686,29
546393,DepthScenes,duration_discrimination,discrim_jsons/shuffled_g0.json,http://54.89.209.186/DepthDuration/depth_discrimination_MTurk/DepthDiscrim_HTML.html#4,4,1686,821,1366,768,7-20-2021,15-19-18,108,,,,,,,3529,510,1005,996,1000,495,,2,3,depth_discrimination_stimuli/000109_2014-05-14_23-41-52_260595134347_rgbf000035-resize_9/000109_2014-05-14_23-41-52_260595134347_rgbf000035-resize-original.jpg,1786,930870,1184686,29
546393,DepthScenes,duration_discrimination,discrim_jsons/shuffled_g0.json,http://54.89.209.186/DepthDuration/depth_discrimination_MTurk/DepthDiscrim_HTML.html#4,4,1686,821,1366,768,7-20-2021,15-19-18,109,,,,,,,3529,510,1005,996,1000,495,,2,4,depth_discrimination_stimuli/001133_2014-06-17_14-49-16_260595134347_rgbf000100-resize_0/001133_2014-06-17_14-49-16_260595134347_rgbf000100-resize-original.jpg,10056,930870,1184686,29
546393,DepthScenes,duration_discrimination,discrim_jsons/shuffled_g0.json,http://54.89.209.186/DepthDuration/depth_discrimination_MTurk/DepthDiscrim_HTML.html#4,4,1686,821,1366,768,7-20-2021,15-19-18,110,,,,,,,3529,510,1005,996,1000,495,,1,4,depth_discrimination_stimuli/002579_2014-06-24_14-08-03_094959634447_rgbf000061-resize_2/002579_2014-06-24_14-08-03_094959634447_rgbf000061-resize-original.jpg,2119,930870,1184686,29
546393,DepthScenes,duration_discrimination,discrim_jsons/shuffled_g0.json,http://54.89.209.186/DepthDuration/depth_discrimination_MTurk/DepthDiscrim_HTML.html#4,4,1686,821,1366,768,7-20-2021,15-19-18,111,,,,,,,3529,510,1005,996,1000,495,,2,4,depth_discrimination_stimuli/003495_2014-05-21_16-01-51_094959634447_rgbf000100-resize_3/003495_2014-05-21_16-01-51_094959634447_rgbf000100-resize-original.jpg,2161,930870,1184686,29
546393,DepthScenes,duration_discrimination,discrim_jsons/shuffled_g0.json,http://54.89.209.186/DepthDuration/depth_discrimination_MTurk/DepthDiscrim_HTML.html#4,4,1686,821,1366,768,7-20-2021,15-19-18,112,,,,,,,3529,510,1005,996,1000,495,,1,3,depth_discrimination_stimuli/002570_2014-06-24_13-59-54_094959634447_rgbf000059-resize_0/002570_2014-06-24_13-59-54_094959634447_rgbf000059-resize-original.jpg,1434,930870,1184686,29
546393,DepthScenes,duration_discrimination,discrim_jsons/shuffled_g0.json,http://54.89.209.186/DepthDuration/depth_discrimination_MTurk/DepthDiscrim_HTML.html#4,4,1686,821,1366,768,7-20-2021,15-19-18,113,,,,,,,3529,510,1005,996,1000,495,,1,5,depth_discrimination_stimuli/000502_2014-06-08_23-02-32_260595134347_rgbf000063-resize_4/000502_2014-06-08_23-02-32_260595134347_rgbf000063-resize-original.jpg,8804,930870,1184686,29
546393,DepthScenes,duration_discrimination,discrim_jsons/shuffled_g0.json,http://54.89.209.186/DepthDuration/depth_discrimination_MTurk/DepthDiscrim_HTML.html#4,4,1686,821,1366,768,7-20-2021,15-19-18,114,,,,,,,3529,510,1005,996,1000,495,,1,2,depth_discrimination_stimuli/001066_2014-06-08_22-03-20_260595134347_rgbf000066-resize_4/001066_2014-06-08_22-03-20_260595134347_rgbf000066-resize-original.jpg,3091,930870,1184686,29
546393,DepthScenes,duration_discrimination,discrim_jsons/shuffled_g0.json,http://54.89.209.186/DepthDuration/depth_discrimination_MTurk/DepthDiscrim_HTML.html#4,4,1686,821,1366,768,7-20-2021,15-19-18,115,,,,,,,3529,510,1005,996,1000,495,,1,5,depth_discrimination_stimuli/002118_2014-06-25_20-32-08_260595134347_rgbf000078-resize_1/002118_2014-06-25_20-32-08_260595134347_rgbf000078-resize-original.jpg,1999,930870,1184686,29
546393,DepthScenes,duration_discrimination,discrim_jsons/shuffled_g0.json,http://54.89.209.186/DepthDuration/depth_discrimination_MTurk/DepthDiscrim_HTML.html#4,4,1686,821,1366,768,7-20-2021,15-19-18,116,,,,,,,3529,510,1005,996,1000,495,,2,4,depth_discrimination_stimuli/000436_2014-06-09_22-25-11_260595134347_rgbf000137-resize_1/000436_2014-06-09_22-25-11_260595134347_rgbf000137-resize-original.jpg,16639,930870,1184686,29
546393,DepthScenes,duration_discrimination,discrim_jsons/shuffled_g0.json,http://54.89.209.186/DepthDuration/depth_discrimination_MTurk/DepthDiscrim_HTML.html#4,4,1686,821,1366,768,7-20-2021,15-19-18,117,,,,,,,3529,510,1005,996,1000,495,,2,5,depth_discrimination_stimuli/002784_2014-06-22_19-26-30_094959634447_rgbf000083-resize_3/002784_2014-06-22_19-26-30_094959634447_rgbf000083-resize-original.jpg,18128,930870,1184686,29
546393,DepthScenes,duration_discrimination,discrim_jsons/shuffled_g0.json,http://54.89.209.186/DepthDuration/depth_discrimination_MTurk/DepthDiscrim_HTML.html#4,4,1686,821,1366,768,7-20-2021,15-19-18,118,,,,,,,3529,510,1005,996,1000,495,,3,1,depth_discrimination_stimuli/002136_2014-06-25_21-18-03_260595134347_rgbf000109-resize_3/002136_2014-06-25_21-18-03_260595134347_rgbf000109-resize-original.jpg,4520,930870,1184686,29
546393,DepthScenes,duration_discrimination,discrim_jsons/shuffled_g0.json,http://54.89.209.186/DepthDuration/depth_discrimination_MTurk/DepthDiscrim_HTML.html#4,4,1686,821,1366,768,7-20-2021,15-19-18,119,,,,,,,3529,510,1005,996,1000,495,,3,3,depth_discrimination_stimuli/001094_2014-06-15_17-36-00_260595134347_rgbf000205-resize_0/001094_2014-06-15_17-36-00_260595134347_rgbf000205-resize-original.jpg,3000,930870,1184686,29
546393,DepthScenes,duration_discrimination,discrim_jsons/shuffled_g0.json,http://54.89.209.186/DepthDuration/depth_discrimination_MTurk/DepthDiscrim_HTML.html#4,4,1686,821,1366,768,7-20-2021,15-19-18,120,,,,,,,3529,510,1005,996,1000,495,,2,3,depth_discrimination_stimuli/003079_2014-06-15_15-18-20_094959634447_rgbf000152-resize_8/003079_2014-06-15_15-18-20_094959634447_rgbf000152-resize-original.jpg,4366,930870,1184686,29
546393,DepthScenes,duration_discrimination,discrim_jsons/shuffled_g0.json,http://54.89.209.186/DepthDuration/depth_discrimination_MTurk/DepthDiscrim_HTML.html#4,4,1686,821,1366,768,7-20-2021,15-19-18,121,,,,,,,3529,510,1005,996,1000,495,,1,4,depth_discrimination_stimuli/002213_2014-06-28_18-37-58_260595134347_rgbf000055-resize_1/002213_2014-06-28_18-37-58_260595134347_rgbf000055-resize-original.jpg,2453,930870,1184686,29
546393,DepthScenes,duration_discrimination,discrim_jsons/shuffled_g0.json,http://54.89.209.186/DepthDuration/depth_discrimination_MTurk/DepthDiscrim_HTML.html#4,4,1686,821,1366,768,7-20-2021,15-19-18,122,,,,,,,3529,510,1005,996,1000,495,,1,3,depth_discrimination_stimuli/000709_2014-06-08_13-51-55_260595134347_rgbf000068-resize_3/000709_2014-06-08_13-51-55_260595134347_rgbf000068-resize-original.jpg,2464,930870,1184686,29
546393,DepthScenes,duration_discrimination,discrim_jsons/shuffled_g0.json,http://54.89.209.186/DepthDuration/depth_discrimination_MTurk/DepthDiscrim_HTML.html#4,4,1686,821,1366,768,7-20-2021,15-19-18,123,,,,,,,3529,510,1005,996,1000,495,,1,2,depth_discrimination_stimuli/003338_2014-05-20_11-01-23_094959634447_rgbf000051-resize_6/003338_2014-05-20_11-01-23_094959634447_rgbf000051-resize-original.jpg,1738,930870,1184686,29
546393,DepthScenes,duration_discrimination,discrim_jsons/shuffled_g0.json,http://54.89.209.186/DepthDuration/depth_discrimination_MTurk/DepthDiscrim_HTML.html#4,4,1686,821,1366,768,7-20-2021,15-19-18,124,,,,,,,3529,510,1005,996,1000,495,,1,3,depth_discrimination_stimuli/001214_2014-06-17_16-13-55_260595134347_rgbf000111-resize_0/001214_2014-06-17_16-13-55_260595134347_rgbf000111-resize-original.jpg,1590,930870,1184686,29
546393,DepthScenes,duration_discrimination,discrim_jsons/shuffled_g0.json,http://54.89.209.186/DepthDuration/depth_discrimination_MTurk/DepthDiscrim_HTML.html#4,4,1686,821,1366,768,7-20-2021,15-19-18,125,,,,,,,3529,510,1005,996,1000,495,,2,4,depth_discrimination_stimuli/000505_2014-06-08_23-03-23_260595134347_rgbf000091-resize_0/000505_2014-06-08_23-03-23_260595134347_rgbf000091-resize-original.jpg,2003,930870,1184686,29
546393,DepthScenes,duration_discrimination,discrim_jsons/shuffled_g0.json,http://54.89.209.186/DepthDuration/depth_discrimination_MTurk/DepthDiscrim_HTML.html#4,4,1686,821,1366,768,7-20-2021,15-19-18,126,,,,,,,3529,510,1005,996,1000,495,,1,4,depth_discrimination_stimuli/001449_2014-06-19_17-01-27_260595134347_rgbf000116-resize_2/001449_2014-06-19_17-01-27_260595134347_rgbf000116-resize-original.jpg,1352,930870,1184686,29
546393,DepthScenes,duration_discrimination,discrim_jsons/shuffled_g0.json,http://54.89.209.186/DepthDuration/depth_discrimination_MTurk/DepthDiscrim_HTML.html#4,4,1686,821,1366,768,7-20-2021,15-19-18,127,,,,,,,3529,510,1005,996,1000,495,,2,1,depth_discrimination_stimuli/000522_2014-06-08_13-35-06_260595134347_rgbf000244-resize_1/000522_2014-06-08_13-35-06_260595134347_rgbf000244-resize-original.jpg,2339,930870,1184686,29
546393,DepthScenes,duration_discrimination,discrim_jsons/shuffled_g0.json,http://54.89.209.186/DepthDuration/depth_discrimination_MTurk/DepthDiscrim_HTML.html#4,4,1686,821,1366,768,7-20-2021,15-19-18,128,,,,,,,3529,510,1005,996,1000,495,,4,1,depth_discrimination_stimuli/001618_2014-06-20_11-37-31_260595134347_rgbf000027-resize_3/001618_2014-06-20_11-37-31_260595134347_rgbf000027-resize-original.jpg,1407,930870,1184686,29
546393,DepthScenes,duration_discrimination,discrim_jsons/shuffled_g0.json,http://54.89.209.186/DepthDuration/depth_discrimination_MTurk/DepthDiscrim_HTML.html#4,4,1686,821,1366,768,7-20-2021,15-19-18,129,,,,,,,3529,510,1005,996,1000,495,,1,4,depth_discrimination_stimuli/000191_2014-05-12_17-07-38_260595134347_rgbf000199-resize_0/000191_2014-05-12_17-07-38_260595134347_rgbf000199-resize-original.jpg,6025,930870,1184686,29
546393,DepthScenes,duration_discrimination,discrim_jsons/shuffled_g0.json,http://54.89.209.186/DepthDuration/depth_discrimination_MTurk/DepthDiscrim_HTML.html#4,4,1686,821,1366,768,7-20-2021,15-19-18,130,,,,,,,3529,510,1005,996,1000,495,,2,4,depth_discrimination_stimuli/000749_2014-06-08_21-55-06_260595134347_rgbf000070-resize_2/000749_2014-06-08_21-55-06_260595134347_rgbf000070-resize-original.jpg,2041,930870,1184686,29
546393,DepthScenes,duration_discrimination,discrim_jsons/shuffled_g0.json,http://54.89.209.186/DepthDuration/depth_discrimination_MTurk/DepthDiscrim_HTML.html#4,4,1686,821,1366,768,7-20-2021,15-19-18,131,,,,,,,3529,510,1005,996,1000,495,,1,4,depth_discrimination_stimuli/000486_2014-06-09_20-47-20_260595134347_rgbf000143-resize_2/000486_2014-06-09_20-47-20_260595134347_rgbf000143-resize-original.jpg,1461,930870,1184686,29
546393,DepthScenes,duration_discrimination,discrim_jsons/shuffled_g0.json,http://54.89.209.186/DepthDuration/depth_discrimination_MTurk/DepthDiscrim_HTML.html#4,4,1686,821,1366,768,7-20-2021,15-19-18,132,,,,,,,3529,510,1005,996,1000,495,,1,4,depth_discrimination_stimuli/001188_2014-06-17_15-54-10_260595134347_rgbf000090-resize_2/001188_2014-06-17_15-54-10_260595134347_rgbf000090-resize-original.jpg,1468,930870,1184686,29
546393,DepthScenes,duration_discrimination,discrim_jsons/shuffled_g0.json,http://54.89.209.186/DepthDuration/depth_discrimination_MTurk/DepthDiscrim_HTML.html#4,4,1686,821,1366,768,7-20-2021,15-19-18,133,,,,,,,3529,510,1005,996,1000,495,,1,1,depth_discrimination_stimuli/001289_2014-06-16_16-25-52_260595134347_rgbf000067-resize_1/001289_2014-06-16_16-25-52_260595134347_rgbf000067-resize-original.jpg,2287,930870,1184686,29
546393,DepthScenes,duration_discrimination,discrim_jsons/shuffled_g0.json,http://54.89.209.186/DepthDuration/depth_discrimination_MTurk/DepthDiscrim_HTML.html#4,4,1686,821,1366,768,7-20-2021,15-19-18,134,,,,,,,3529,510,1005,996,1000,495,,2,4,depth_discrimination_stimuli/002375_2014-06-28_20-13-44_260595134347_rgbf000032-resize_1/002375_2014-06-28_20-13-44_260595134347_rgbf000032-resize-original.jpg,3413,930870,1184686,29
546393,DepthScenes,duration_discrimination,discrim_jsons/shuffled_g0.json,http://54.89.209.186/DepthDuration/depth_discrimination_MTurk/DepthDiscrim_HTML.html#4,4,1686,821,1366,768,7-20-2021,15-19-18,135,,,,,,,3529,510,1005,996,1000,495,,1,4,depth_discrimination_stimuli/002103_2014-06-25_20-00-40_260595134347_rgbf000049-resize_0/002103_2014-06-25_20-00-40_260595134347_rgbf000049-resize-original.jpg,1754,930870,1184686,29
546393,DepthScenes,duration_discrimination,discrim_jsons/shuffled_g0.json,http://54.89.209.186/DepthDuration/depth_discrimination_MTurk/DepthDiscrim_HTML.html#4,4,1686,821,1366,768,7-20-2021,15-19-18,136,,,,,,,3529,510,1005,996,1000,495,,1,5,depth_discrimination_stimuli/000368_2014-06-09_15-53-01_260595134347_rgbf000155-resize_2/000368_2014-06-09_15-53-01_260595134347_rgbf000155-resize-original.jpg,3688,930870,1184686,29
546393,DepthScenes,duration_discrimination,discrim_jsons/shuffled_g0.json,http://54.89.209.186/DepthDuration/depth_discrimination_MTurk/DepthDiscrim_HTML.html#4,4,1686,821,1366,768,7-20-2021,15-19-18,137,,,,,,,3529,510,1005,996,1000,495,,2,4,depth_discrimination_stimuli/001175_2014-06-17_15-45-55_260595134347_rgbf000129-resize_4/001175_2014-06-17_15-45-55_260595134347_rgbf000129-resize-original.jpg,2842,930870,1184686,29
546393,DepthScenes,duration_discrimination,discrim_jsons/shuffled_g0.json,http://54.89.209.186/DepthDuration/depth_discrimination_MTurk/DepthDiscrim_HTML.html#4,4,1686,821,1366,768,7-20-2021,15-19-18,138,,,,,,,3529,510,1005,996,1000,495,,1,3,depth_discrimination_stimuli/001584_2014-06-20_11-07-43_260595134347_rgbf000002-resize_1/001584_2014-06-20_11-07-43_260595134347_rgbf000002-resize-original.jpg,2262,930870,1184686,29
546393,DepthScenes,duration_discrimination,discrim_jsons/shuffled_g0.json,http://54.89.209.186/DepthDuration/depth_discrimination_MTurk/DepthDiscrim_HTML.html#4,4,1686,821,1366,768,7-20-2021,15-19-18,139,,,,,,,3529,510,1005,996,1000,495,,1,4,depth_discrimination_stimuli/001164_2014-06-17_15-35-46_260595134347_rgbf000085-resize_3/001164_2014-06-17_15-35-46_260595134347_rgbf000085-resize-original.jpg,3361,930870,1184686,29
546393,DepthScenes,duration_discrimination,discrim_jsons/shuffled_g0.json,http://54.89.209.186/DepthDuration/depth_discrimination_MTurk/DepthDiscrim_HTML.html#4,4,1686,821,1366,768,7-20-2021,15-19-18,140,,,,,,,3529,510,1005,996,1000,495,,1,4,depth_discrimination_stimuli/002748_2014-06-22_19-07-22_094959634447_rgbf000078-resize_1/002748_2014-06-22_19-07-22_094959634447_rgbf000078-resize-original.jpg,7975,930870,1184686,29
546393,DepthScenes,duration_discrimination,discrim_jsons/shuffled_g0.json,http://54.89.209.186/DepthDuration/depth_discrimination_MTurk/DepthDiscrim_HTML.html#4,4,1686,821,1366,768,7-20-2021,15-19-18,141,,,,,,,3529,510,1005,996,1000,495,,1,3,depth_discrimination_stimuli/001055_2014-06-08_18-45-35_260595134347_rgbf000111-resize_4/001055_2014-06-08_18-45-35_260595134347_rgbf000111-resize-original.jpg,2119,930870,1184686,29
546393,DepthScenes,duration_discrimination,discrim_jsons/shuffled_g0.json,http://54.89.209.186/DepthDuration/depth_discrimination_MTurk/DepthDiscrim_HTML.html#4,4,1686,821,1366,768,7-20-2021,15-19-18,142,,,,,,,3529,510,1005,996,1000,495,,1,3,depth_discrimination_stimuli/003288_2014-05-14_21-50-30_094959634447_rgbf000028-resize_3/003288_2014-05-14_21-50-30_094959634447_rgbf000028-resize-original.jpg,2172,930870,1184686,29
546393,DepthScenes,duration_discrimination,discrim_jsons/shuffled_g0.json,http://54.89.209.186/DepthDuration/depth_discrimination_MTurk/DepthDiscrim_HTML.html#4,4,1686,821,1366,768,7-20-2021,15-19-18,143,,,,,,,3529,510,1005,996,1000,495,,1,4,depth_discrimination_stimuli/000917_2014-06-09_22-45-29_260595134347_rgbf000149-resize_3/000917_2014-06-09_22-45-29_260595134347_rgbf000149-resize-original.jpg,1801,930870,1184686,29
546393,DepthScenes,duration_discrimination,discrim_jsons/shuffled_g0.json,http://54.89.209.186/DepthDuration/depth_discrimination_MTurk/DepthDiscrim_HTML.html#4,4,1686,821,1366,768,7-20-2021,15-19-18,144,,,,,,,3529,510,1005,996,1000,495,,1,3,depth_discrimination_stimuli/002805_2014-06-22_19-54-03_094959634447_rgbf000079-resize_1/002805_2014-06-22_19-54-03_094959634447_rgbf000079-resize-original.jpg,1846,930870,1184686,29
546393,DepthScenes,duration_discrimination,discrim_jsons/shuffled_g0.json,http://54.89.209.186/DepthDuration/depth_discrimination_MTurk/DepthDiscrim_HTML.html#4,4,1686,821,1366,768,7-20-2021,15-19-18,145,,,,,,,3529,510,1005,996,1000,495,,1,4,depth_discrimination_stimuli/003490_2014-05-21_15-50-11_094959634447_rgbf000101-resize_3/003490_2014-05-21_15-50-11_094959634447_rgbf000101-resize-original.jpg,2203,930870,1184686,29
546393,DepthScenes,duration_discrimination,discrim_jsons/shuffled_g0.json,http://54.89.209.186/DepthDuration/depth_discrimination_MTurk/DepthDiscrim_HTML.html#4,4,1686,821,1366,768,7-20-2021,15-19-18,146,,,,,,,3529,510,1005,996,1000,495,,1,3,depth_discrimination_stimuli/000636_2014-06-08_16-39-02_260595134347_rgbf000108-resize_4/000636_2014-06-08_16-39-02_260595134347_rgbf000108-resize-original.jpg,2507,930870,1184686,29
546393,DepthScenes,duration_discrimination,discrim_jsons/shuffled_g0.json,http://54.89.209.186/DepthDuration/depth_discrimination_MTurk/DepthDiscrim_HTML.html#4,4,1686,821,1366,768,7-20-2021,15-19-18,147,,,,,,,3529,510,1005,996,1000,495,,1,2,depth_discrimination_stimuli/001032_2014-06-08_13-23-17_260595134347_rgbf000021-resize_3/001032_2014-06-08_13-23-17_260595134347_rgbf000021-resize-original.jpg,2297,930870,1184686,29
546393,DepthScenes,duration_discrimination,discrim_jsons/shuffled_g0.json,http://54.89.209.186/DepthDuration/depth_discrimination_MTurk/DepthDiscrim_HTML.html#4,4,1686,821,1366,768,7-20-2021,15-19-18,148,,,,,,,3529,510,1005,996,1000,495,,1,4,depth_discrimination_stimuli/002043_2014-06-24_20-29-38_260595134347_rgbf000039-resize_4/002043_2014-06-24_20-29-38_260595134347_rgbf000039-resize-original.jpg,2513,930870,1184686,29
546393,DepthScenes,duration_discrimination,discrim_jsons/shuffled_g0.json,http://54.89.209.186/DepthDuration/depth_discrimination_MTurk/DepthDiscrim_HTML.html#4,4,1686,821,1366,768,7-20-2021,15-19-18,149,,,,,,,3529,510,1005,996,1000,495,,1,3,depth_discrimination_stimuli/001570_2014-06-20_17-21-09_260595134347_rgbf000135-resize_4/001570_2014-06-20_17-21-09_260595134347_rgbf000135-resize-original.jpg,1782,930870,1184686,29
546393,DepthScenes,duration_discrimination,discrim_jsons/shuffled_g0.json,http://54.89.209.186/DepthDuration/depth_discrimination_MTurk/DepthDiscrim_HTML.html#4,4,1686,821,1366,768,7-20-2021,15-19-18,150,,,,,,,3529,510,1005,996,1000,495,,1,4,depth_discrimination_stimuli/003292_2014-05-14_21-53-49_094959634447_rgbf000100-resize_2/003292_2014-05-14_21-53-49_094959634447_rgbf000100-resize-original.jpg,2104,930870,1184686,29
546393,DepthScenes,duration_discrimination,discrim_jsons/shuffled_g0.json,http://54.89.209.186/DepthDuration/depth_discrimination_MTurk/DepthDiscrim_HTML.html#4,4,1686,821,1366,768,7-20-2021,15-19-18,151,,,,,,,3529,510,1005,996,1000,495,,1,3,depth_discrimination_stimuli/002365_2014-06-28_20-11-21_260595134347_rgbf000102-resize_1/002365_2014-06-28_20-11-21_260595134347_rgbf000102-resize-original.jpg,2071,930870,1184686,29
546393,DepthScenes,duration_discrimination,discrim_jsons/shuffled_g0.json,http://54.89.209.186/DepthDuration/depth_discrimination_MTurk/DepthDiscrim_HTML.html#4,4,1686,821,1366,768,7-20-2021,15-19-18,152,,,,,,,3529,510,1005,996,1000,495,,1,5,depth_discrimination_stimuli/002545_2014-06-24_13-38-53_094959634447_rgbf000080-resize_4/002545_2014-06-24_13-38-53_094959634447_rgbf000080-resize-original.jpg,2262,930870,1184686,29
546393,DepthScenes,duration_discrimination,discrim_jsons/shuffled_g0.json,http://54.89.209.186/DepthDuration/depth_discrimination_MTurk/DepthDiscrim_HTML.html#4,4,1686,821,1366,768,7-20-2021,15-19-18,153,,,,,,,3529,510,1005,996,1000,495,,1,3,depth_discrimination_stimuli/001092_2014-06-15_17-34-58_260595134347_rgbf000171-resize_3/001092_2014-06-15_17-34-58_260595134347_rgbf000171-resize-original.jpg,1629,930870,1184686,29
546393,DepthScenes,duration_discrimination,discrim_jsons/shuffled_g0.json,http://54.89.209.186/DepthDuration/depth_discrimination_MTurk/DepthDiscrim_HTML.html#4,4,1686,821,1366,768,7-20-2021,15-19-18,154,,,,,,,3529,510,1005,996,1000,495,,1,4,depth_discrimination_stimuli/000493_2014-06-09_21-01-18_260595134347_rgbf000196-resize_3/000493_2014-06-09_21-01-18_260595134347_rgbf000196-resize-original.jpg,1885,930870,1184686,29
546393,DepthScenes,duration_discrimination,discrim_jsons/shuffled_g0.json,http://54.89.209.186/DepthDuration/depth_discrimination_MTurk/DepthDiscrim_HTML.html#4,4,1686,821,1366,768,7-20-2021,15-19-18,155,,,,,,,3529,510,1005,996,1000,495,,1,3,depth_discrimination_stimuli/001148_2014-06-17_15-26-42_260595134347_rgbf000129-resize_0/001148_2014-06-17_15-26-42_260595134347_rgbf000129-resize-original.jpg,2147,930870,1184686,29
546393,DepthScenes,duration_discrimination,discrim_jsons/shuffled_g0.json,http://54.89.209.186/DepthDuration/depth_discrimination_MTurk/DepthDiscrim_HTML.html#4,4,1686,821,1366,768,7-20-2021,15-19-18,156,,,,,,,3529,510,1005,996,1000,495,,2,4,depth_discrimination_stimuli/000854_2014-06-09_19-43-13_260595134347_rgbf000066-resize_0/000854_2014-06-09_19-43-13_260595134347_rgbf000066-resize-original.jpg,12937,930870,1184686,29
546393,DepthScenes,duration_discrimination,discrim_jsons/shuffled_g0.json,http://54.89.209.186/DepthDuration/depth_discrimination_MTurk/DepthDiscrim_HTML.html#4,4,1686,821,1366,768,7-20-2021,15-19-18,157,,,,,,,3529,510,1005,996,1000,495,,1,3,depth_discrimination_stimuli/002305_2014-06-28_19-56-50_260595134347_rgbf000102-resize_7/002305_2014-06-28_19-56-50_260595134347_rgbf000102-resize-original.jpg,1859,930870,1184686,29
546393,DepthScenes,duration_discrimination,discrim_jsons/shuffled_g0.json,http://54.89.209.186/DepthDuration/depth_discrimination_MTurk/DepthDiscrim_HTML.html#4,4,1686,821,1366,768,7-20-2021,15-19-18,158,,,,,,,3529,510,1005,996,1000,495,,2,4,depth_discrimination_stimuli/000549_2014-06-08_22-10-24_260595134347_rgbf000247-resize_3/000549_2014-06-08_22-10-24_260595134347_rgbf000247-resize-original.jpg,2330,930870,1184686,29
546393,DepthScenes,duration_discrimination,discrim_jsons/shuffled_g0.json,http://54.89.209.186/DepthDuration/depth_discrimination_MTurk/DepthDiscrim_HTML.html#4,4,1686,821,1366,768,7-20-2021,15-19-18,159,,,,,,,3529,510,1005,996,1000,495,,1,3,depth_discrimination_stimuli/000866_2014-06-09_20-45-42_260595134347_rgbf000139-resize_1/000866_2014-06-09_20-45-42_260595134347_rgbf000139-resize-original.jpg,1479,930870,1184686,29
546393,DepthScenes,duration_discrimination,discrim_jsons/shuffled_g0.json,http://54.89.209.186/DepthDuration/depth_discrimination_MTurk/DepthDiscrim_HTML.html#4,4,1686,821,1366,768,7-20-2021,15-19-18,160,,,,,,,3529,510,1005,996,1000,495,,4,1,depth_discrimination_stimuli/002758_2014-06-22_19-11-20_094959634447_rgbf000128-resize_1/002758_2014-06-22_19-11-20_094959634447_rgbf000128-resize-original.jpg,2870,930870,1184686,29
546393,DepthScenes,duration_discrimination,discrim_jsons/shuffled_g0.json,http://54.89.209.186/DepthDuration/depth_discrimination_MTurk/DepthDiscrim_HTML.html#4,4,1686,821,1366,768,7-20-2021,15-19-18,161,,,,,,,3529,510,1005,996,1000,495,,1,3,depth_discrimination_stimuli/002750_2014-06-22_19-08-03_094959634447_rgbf000094-resize_4/002750_2014-06-22_19-08-03_094959634447_rgbf000094-resize-original.jpg,2819,930870,1184686,29
546393,DepthScenes,duration_discrimination,discrim_jsons/shuffled_g0.json,http://54.89.209.186/DepthDuration/depth_discrimination_MTurk/DepthDiscrim_HTML.html#4,4,1686,821,1366,768,7-20-2021,15-19-18,162,,,,,,,3529,510,1005,996,1000,495,,1,3,depth_discrimination_stimuli/003621_2014-05-23_18-06-08_094959634447_rgbf000101-resize_1/003621_2014-05-23_18-06-08_094959634447_rgbf000101-resize-original.jpg,2305,930870,1184686,29
546393,DepthScenes,duration_discrimination,discrim_jsons/shuffled_g0.json,http://54.89.209.186/DepthDuration/depth_discrimination_MTurk/DepthDiscrim_HTML.html#4,4,1686,821,1366,768,7-20-2021,15-19-18,163,,,,,,,3529,510,1005,996,1000,495,,1,4,depth_discrimination_stimuli/002663_2014-06-13_15-50-26_094959634447_rgbf000075-resize_1/002663_2014-06-13_15-50-26_094959634447_rgbf000075-resize-original.jpg,1824,930870,1184686,29
546393,DepthScenes,duration_discrimination,discrim_jsons/shuffled_g0.json,http://54.89.209.186/DepthDuration/depth_discrimination_MTurk/DepthDiscrim_HTML.html#4,4,1686,821,1366,768,7-20-2021,15-19-18,164,,,,,,,3529,510,1005,996,1000,495,,1,3,depth_discrimination_stimuli/002344_2014-06-28_20-06-29_260595134347_rgbf000030-resize_1/002344_2014-06-28_20-06-29_260595134347_rgbf000030-resize-original.jpg,2600,930870,1184686,29
546393,DepthScenes,duration_discrimination,discrim_jsons/shuffled_g0.json,http://54.89.209.186/DepthDuration/depth_discrimination_MTurk/DepthDiscrim_HTML.html#4,4,1686,821,1366,768,7-20-2021,15-19-18,165,,,,,,,3529,510,1005,996,1000,495,,1,2,depth_discrimination_stimuli/002987_2014-06-08_18-48-20_094959634447_rgbf000022-resize_0/002987_2014-06-08_18-48-20_094959634447_rgbf000022-resize-original.jpg,2203,930870,1184686,29
546393,DepthScenes,duration_discrimination,discrim_jsons/shuffled_g0.json,http://54.89.209.186/DepthDuration/depth_discrimination_MTurk/DepthDiscrim_HTML.html#4,4,1686,821,1366,768,7-20-2021,15-19-18,166,,,,,,,3529,510,1005,996,1000,495,,1,3,depth_discrimination_stimuli/000800_2014-06-08_22-42-09_260595134347_rgbf000095-resize_3/000800_2014-06-08_22-42-09_260595134347_rgbf000095-resize-original.jpg,1556,930870,1184686,29
546393,DepthScenes,duration_discrimination,discrim_jsons/shuffled_g0.json,http://54.89.209.186/DepthDuration/depth_discrimination_MTurk/DepthDiscrim_HTML.html#4,4,1686,821,1366,768,7-20-2021,15-19-18,167,,,,,,,3529,510,1005,996,1000,495,,1,4,depth_discrimination_stimuli/000521_2014-06-08_13-34-35_260595134347_rgbf000191-resize_2/000521_2014-06-08_13-34-35_260595134347_rgbf000191-resize-original.jpg,2341,930870,1184686,29
546393,DepthScenes,duration_discrimination,discrim_jsons/shuffled_g0.json,http://54.89.209.186/DepthDuration/depth_discrimination_MTurk/DepthDiscrim_HTML.html#4,4,1686,821,1366,768,7-20-2021,15-19-18,168,,,,,,,3529,510,1005,996,1000,495,,1,3,depth_discrimination_stimuli/000780_2014-06-08_22-28-29_260595134347_rgbf000126-resize_1/000780_2014-06-08_22-28-29_260595134347_rgbf000126-resize-original.jpg,2736,930870,1184686,29
546393,DepthScenes,duration_discrimination,discrim_jsons/shuffled_g0.json,http://54.89.209.186/DepthDuration/depth_discrimination_MTurk/DepthDiscrim_HTML.html#4,4,1686,821,1366,768,7-20-2021,15-19-18,169,,,,,,,3529,510,1005,996,1000,495,,1,4,depth_discrimination_stimuli/000927_2014-06-09_16-32-30_260595134347_rgbf000123-resize_3/000927_2014-06-09_16-32-30_260595134347_rgbf000123-resize-original.jpg,1949,930870,1184686,29
546393,DepthScenes,duration_discrimination,discrim_jsons/shuffled_g0.json,http://54.89.209.186/DepthDuration/depth_discrimination_MTurk/DepthDiscrim_HTML.html#4,4,1686,821,1366,768,7-20-2021,15-19-18,170,,,,,,,3529,510,1005,996,1000,495,,1,3,depth_discrimination_stimuli/001158_2014-06-17_15-32-16_260595134347_rgbf000138-resize_2/001158_2014-06-17_15-32-16_260595134347_rgbf000138-resize-original.jpg,6347,930870,1184686,29
546393,DepthScenes,duration_discrimination,discrim_jsons/shuffled_g0.json,http://54.89.209.186/DepthDuration/depth_discrimination_MTurk/DepthDiscrim_HTML.html#4,4,1686,821,1366,768,7-20-2021,15-19-18,171,,,,,,,3529,510,1005,996,1000,495,,1,4,depth_discrimination_stimuli/003228_2014-05-14_13-42-35_094959634447_rgbf000101-resize_1/003228_2014-05-14_13-42-35_094959634447_rgbf000101-resize-original.jpg,1777,930870,1184686,29
546393,DepthScenes,duration_discrimination,discrim_jsons/shuffled_g0.json,http://54.89.209.186/DepthDuration/depth_discrimination_MTurk/DepthDiscrim_HTML.html#4,4,1686,821,1366,768,7-20-2021,15-19-18,172,,,,,,,3529,510,1005,996,1000,495,,1,3,depth_discrimination_stimuli/001571_2014-06-20_17-21-32_260595134347_rgbf000089-resize_1/001571_2014-06-20_17-21-32_260595134347_rgbf000089-resize-original.jpg,1749,930870,1184686,29
546393,DepthScenes,duration_discrimination,discrim_jsons/shuffled_g0.json,http://54.89.209.186/DepthDuration/depth_discrimination_MTurk/DepthDiscrim_HTML.html#4,4,1686,821,1366,768,7-20-2021,15-19-18,173,,,,,,,3529,510,1005,996,1000,495,,1,5,depth_discrimination_stimuli/001617_2014-06-20_11-35-32_260595134347_rgbf000066-resize_1/001617_2014-06-20_11-35-32_260595134347_rgbf000066-resize-original.jpg,2069,930870,1184686,29
546393,DepthScenes,duration_discrimination,discrim_jsons/shuffled_g0.json,http://54.89.209.186/DepthDuration/depth_discrimination_MTurk/DepthDiscrim_HTML.html#4,4,1686,821,1366,768,7-20-2021,15-19-18,174,,,,,,,3529,510,1005,996,1000,495,,1,3,depth_discrimination_stimuli/002464_2014-06-28_20-36-57_260595134347_rgbf000029-resize_0/002464_2014-06-28_20-36-57_260595134347_rgbf000029-resize-original.jpg,2226,930870,1184686,29
546393,DepthScenes,duration_discrimination,discrim_jsons/shuffled_g0.json,http://54.89.209.186/DepthDuration/depth_discrimination_MTurk/DepthDiscrim_HTML.html#4,4,1686,821,1366,768,7-20-2021,15-19-18,175,,,,,,,3529,510,1005,996,1000,495,,1,2,depth_discrimination_stimuli/000542_2014-06-08_18-27-08_260595134347_rgbf000118-resize_1/000542_2014-06-08_18-27-08_260595134347_rgbf000118-resize-original.jpg,1564,930870,1184686,29
546393,DepthScenes,duration_discrimination,discrim_jsons/shuffled_g0.json,http://54.89.209.186/DepthDuration/depth_discrimination_MTurk/DepthDiscrim_HTML.html#4,4,1686,821,1366,768,7-20-2021,15-19-18,176,,,,,,,3529,510,1005,996,1000,495,,1,3,depth_discrimination_stimuli/002323_2014-06-28_20-01-54_260595134347_rgbf000051-resize_4/002323_2014-06-28_20-01-54_260595134347_rgbf000051-resize-original.jpg,1840,930870,1184686,29
546393,DepthScenes,duration_discrimination,discrim_jsons/shuffled_g0.json,http://54.89.209.186/DepthDuration/depth_discrimination_MTurk/DepthDiscrim_HTML.html#4,4,1686,821,1366,768,7-20-2021,15-19-18,177,,,,,,,3529,510,1005,996,1000,495,,1,5,depth_discrimination_stimuli/002600_2014-06-24_14-27-04_094959634447_rgbf000074-resize_2/002600_2014-06-24_14-27-04_094959634447_rgbf000074-resize-original.jpg,2181,930870,1184686,29
546393,DepthScenes,duration_discrimination,discrim_jsons/shuffled_g0.json,http://54.89.209.186/DepthDuration/depth_discrimination_MTurk/DepthDiscrim_HTML.html#4,4,1686,821,1366,768,7-20-2021,15-19-18,178,,,,,,,3529,510,1005,996,1000,495,,1,3,depth_discrimination_stimuli/001059_2014-06-08_21-53-27_260595134347_rgbf000061-resize_4/001059_2014-06-08_21-53-27_260595134347_rgbf000061-resize-original.jpg,2415,930870,1184686,29
546393,DepthScenes,duration_discrimination,discrim_jsons/shuffled_g0.json,http://54.89.209.186/DepthDuration/depth_discrimination_MTurk/DepthDiscrim_HTML.html#4,4,1686,821,1366,768,7-20-2021,15-19-18,179,,,,,,,3529,510,1005,996,1000,495,,1,4,depth_discrimination_stimuli/000469_2014-06-09_19-42-10_260595134347_rgbf000081-resize_1/000469_2014-06-09_19-42-10_260595134347_rgbf000081-resize-original.jpg,1515,930870,1184686,29
546393,DepthScenes,duration_discrimination,discrim_jsons/shuffled_g0.json,http://54.89.209.186/DepthDuration/depth_discrimination_MTurk/DepthDiscrim_HTML.html#4,4,1686,821,1366,768,7-20-2021,15-19-18,180,,,,,,,3529,510,1005,996,1000,495,,2,4,depth_discrimination_stimuli/003534_2014-05-22_15-06-10_094959634447_rgbf000102-resize_4/003534_2014-05-22_15-06-10_094959634447_rgbf000102-resize-original.jpg,2089,930870,1184686,29
546393,DepthScenes,duration_discrimination,discrim_jsons/shuffled_g0.json,http://54.89.209.186/DepthDuration/depth_discrimination_MTurk/DepthDiscrim_HTML.html#4,4,1686,821,1366,768,7-20-2021,15-19-18,181,,,,,,,3529,510,1005,996,1000,495,,2,4,depth_discrimination_stimuli/003129_2014-05-12_10-48-10_094959634447_rgbf000100-resize_0/003129_2014-05-12_10-48-10_094959634447_rgbf000100-resize-original.jpg,2180,930870,1184686,29
546393,DepthScenes,duration_discrimination,discrim_jsons/shuffled_g0.json,http://54.89.209.186/DepthDuration/depth_discrimination_MTurk/DepthDiscrim_HTML.html#4,4,1686,821,1366,768,7-20-2021,15-19-18,182,,,,,,,3529,510,1005,996,1000,495,,3,1,depth_discrimination_stimuli/000137_2014-05-20_17-04-49_260595134347_rgbf000120-resize_1/000137_2014-05-20_17-04-49_260595134347_rgbf000120-resize-original.jpg,3857,930870,1184686,29
546393,DepthScenes,duration_discrimination,discrim_jsons/shuffled_g0.json,http://54.89.209.186/DepthDuration/depth_discrimination_MTurk/DepthDiscrim_HTML.html#4,4,1686,821,1366,768,7-20-2021,15-19-18,183,,,,,,,3529,510,1005,996,1000,495,,2,4,depth_discrimination_stimuli/002468_2014-06-28_20-38-39_260595134347_rgbf000045-resize_1/002468_2014-06-28_20-38-39_260595134347_rgbf000045-resize-original.jpg,2641,930870,1184686,29
546393,DepthScenes,duration_discrimination,discrim_jsons/shuffled_g0.json,http://54.89.209.186/DepthDuration/depth_discrimination_MTurk/DepthDiscrim_HTML.html#4,4,1686,821,1366,768,7-20-2021,15-19-18,184,,,,,,,3529,510,1005,996,1000,495,,1,4,depth_discrimination_stimuli/001808_2014-06-26_20-50-58_260595134347_rgbf000029-resize_1/001808_2014-06-26_20-50-58_260595134347_rgbf000029-resize-original.jpg,1931,930870,1184686,29
546393,DepthScenes,duration_discrimination,discrim_jsons/shuffled_g0.json,http://54.89.209.186/DepthDuration/depth_discrimination_MTurk/DepthDiscrim_HTML.html#4,4,1686,821,1366,768,7-20-2021,15-19-18,185,,,,,,,3529,510,1005,996,1000,495,,2,4,depth_discrimination_stimuli/000753_2014-06-08_21-57-44_260595134347_rgbf000123-resize_3/000753_2014-06-08_21-57-44_260595134347_rgbf000123-resize-original.jpg,3728,930870,1184686,29
546393,DepthScenes,duration_discrimination,discrim_jsons/shuffled_g0.json,http://54.89.209.186/DepthDuration/depth_discrimination_MTurk/DepthDiscrim_HTML.html#4,4,1686,821,1366,768,7-20-2021,15-19-18,186,,,,,,,3529,510,1005,996,1000,495,,2,4,depth_discrimination_stimuli/001029_2014-06-08_13-17-57_260595134347_rgbf000065-resize_1/001029_2014-06-08_13-17-57_260595134347_rgbf000065-resize-original.jpg,2898,930870,1184686,29
546393,DepthScenes,duration_discrimination,discrim_jsons/shuffled_g0.json,http://54.89.209.186/DepthDuration/depth_discrimination_MTurk/DepthDiscrim_HTML.html#4,4,1686,821,1366,768,7-20-2021,15-19-18,187,,,,,,,3529,510,1005,996,1000,495,,1,4,depth_discrimination_stimuli/000810_2014-06-08_17-20-01_260595134347_rgbf000105-resize_0/000810_2014-06-08_17-20-01_260595134347_rgbf000105-resize-original.jpg,4169,930870,1184686,29
546393,DepthScenes,duration_discrimination,discrim_jsons/shuffled_g0.json,http://54.89.209.186/DepthDuration/depth_discrimination_MTurk/DepthDiscrim_HTML.html#4,4,1686,821,1366,768,7-20-2021,15-19-18,188,,,,,,,3529,510,1005,996,1000,495,,1,3,depth_discrimination_stimuli/000682_2014-06-08_23-14-58_260595134347_rgbf000041-resize_5/000682_2014-06-08_23-14-58_260595134347_rgbf000041-resize-original.jpg,2138,930870,1184686,29
546393,DepthScenes,duration_discrimination,discrim_jsons/shuffled_g0.json,http://54.89.209.186/DepthDuration/depth_discrimination_MTurk/DepthDiscrim_HTML.html#4,4,1686,821,1366,768,7-20-2021,15-19-18,189,,,,,,,3529,510,1005,996,1000,495,,1,4,depth_discrimination_stimuli/001197_2014-06-17_16-01-50_260595134347_rgbf000103-resize_4/001197_2014-06-17_16-01-50_260595134347_rgbf000103-resize-original.jpg,1857,930870,1184686,29
546393,DepthScenes,duration_discrimination,discrim_jsons/shuffled_g0.json,http://54.89.209.186/DepthDuration/depth_discrimination_MTurk/DepthDiscrim_HTML.html#4,4,1686,821,1366,768,7-20-2021,15-19-18,190,,,,,,,3529,510,1005,996,1000,495,,2,4,depth_discrimination_stimuli/001167_2014-06-17_15-38-07_260595134347_rgbf000108-resize_0/001167_2014-06-17_15-38-07_260595134347_rgbf000108-resize-original.jpg,1950,930870,1184686,29
546393,DepthScenes,duration_discrimination,discrim_jsons/shuffled_g0.json,http://54.89.209.186/DepthDuration/depth_discrimination_MTurk/DepthDiscrim_HTML.html#4,4,1686,821,1366,768,7-20-2021,15-19-18,191,,,,,,,3529,510,1005,996,1000,495,,1,3,depth_discrimination_stimuli/001011_2014-06-08_23-18-54_260595134347_rgbf000044-resize_4/001011_2014-06-08_23-18-54_260595134347_rgbf000044-resize-original.jpg,2321,930870,1184686,29
546393,DepthScenes,duration_discrimination,discrim_jsons/shuffled_g0.json,http://54.89.209.186/DepthDuration/depth_discrimination_MTurk/DepthDiscrim_HTML.html#4,4,1686,821,1366,768,7-20-2021,15-19-18,192,,,,,,,3529,510,1005,996,1000,495,,1,3,scene_property_catch_stimuli/sun_aatxlublfjchvvzu.jpg,2555,930870,1184686,29
546393,DepthScenes,duration_discrimination,discrim_jsons/shuffled_g0.json,http://54.89.209.186/DepthDuration/depth_discrimination_MTurk/DepthDiscrim_HTML.html#4,4,1686,821,1366,768,7-20-2021,15-19-18,193,,,,,,,3529,510,1005,996,1000,495,,1,3,depth_discrimination_stimuli/001516_2014-06-20_16-25-09_260595134347_rgbf000076-resize_2/001516_2014-06-20_16-25-09_260595134347_rgbf000076-resize-original.jpg,3890,930870,1184686,29
546393,DepthScenes,duration_discrimination,discrim_jsons/shuffled_g0.json,http://54.89.209.186/DepthDuration/depth_discrimination_MTurk/DepthDiscrim_HTML.html#4,4,1686,821,1366,768,7-20-2021,15-19-18,194,,,,,,,3529,510,1005,996,1000,495,,1,3,depth_discrimination_stimuli/000409_2014-06-04_19-23-33_260595134347_rgbf000067-resize_0/000409_2014-06-04_19-23-33_260595134347_rgbf000067-resize-original.jpg,1788,930870,1184686,29
546393,DepthScenes,duration_discrimination,discrim_jsons/shuffled_g0.json,http://54.89.209.186/DepthDuration/depth_discrimination_MTurk/DepthDiscrim_HTML.html#4,4,1686,821,1366,768,7-20-2021,15-19-18,195,,,,,,,3529,510,1005,996,1000,495,,1,4,depth_discrimination_stimuli/000555_2014-06-09_22-42-23_260595134347_rgbf000037-resize_4/000555_2014-06-09_22-42-23_260595134347_rgbf000037-resize-original.jpg,1990,930870,1184686,29
546393,DepthScenes,duration_discrimination,discrim_jsons/shuffled_g0.json,http://54.89.209.186/DepthDuration/depth_discrimination_MTurk/DepthDiscrim_HTML.html#4,4,1686,821,1366,768,7-20-2021,15-19-18,196,,,,,,,3529,510,1005,996,1000,495,,1,3,depth_discrimination_stimuli/000734_2014-06-08_17-39-11_260595134347_rgbf000128-resize_2/000734_2014-06-08_17-39-11_260595134347_rgbf000128-resize-original.jpg,1814,930870,1184686,29
546393,DepthScenes,duration_discrimination,discrim_jsons/shuffled_g0.json,http://54.89.209.186/DepthDuration/depth_discrimination_MTurk/DepthDiscrim_HTML.html#4,4,1686,821,1366,768,7-20-2021,15-19-18,197,,,,,,,3529,510,1005,996,1000,495,,1,3,depth_discrimination_stimuli/001417_2014-06-19_16-25-36_260595134347_rgbf000115-resize_5/001417_2014-06-19_16-25-36_260595134347_rgbf000115-resize-original.jpg,2291,930870,1184686,29
546393,DepthScenes,duration_discrimination,discrim_jsons/shuffled_g0.json,http://54.89.209.186/DepthDuration/depth_discrimination_MTurk/DepthDiscrim_HTML.html#4,4,1686,821,1366,768,7-20-2021,15-19-18,198,,,,,,,3529,510,1005,996,1000,495,,4,1,depth_discrimination_stimuli/000665_2014-06-09_20-42-35_260595134347_rgbf000110-resize_1/000665_2014-06-09_20-42-35_260595134347_rgbf000110-resize-original.jpg,3514,930870,1184686,29
546393,DepthScenes,duration_discrimination,discrim_jsons/shuffled_g0.json,http://54.89.209.186/DepthDuration/depth_discrimination_MTurk/DepthDiscrim_HTML.html#4,4,1686,821,1366,768,7-20-2021,15-19-18,199,,,,,,,3529,510,1005,996,1000,495,,2,4,depth_discrimination_stimuli/000773_2014-06-08_22-24-54_260595134347_rgbf000093-resize_1/000773_2014-06-08_22-24-54_260595134347_rgbf000093-resize-original.jpg,3338,930870,1184686,29
546393,DepthScenes,duration_discrimination,discrim_jsons/shuffled_g0.json,http://54.89.209.186/DepthDuration/depth_discrimination_MTurk/DepthDiscrim_HTML.html#4,4,1686,821,1366,768,7-20-2021,15-19-18,200,,,,,,,3529,510,1005,996,1000,495,,1,3,depth_discrimination_stimuli/003083_2014-06-15_15-21-03_094959634447_rgbf000063-resize_1/003083_2014-06-15_15-21-03_094959634447_rgbf000063-resize-original.jpg,1664,930870,1184686,29
546393,DepthScenes,duration_discrimination,discrim_jsons/shuffled_g0.json,http://54.89.209.186/DepthDuration/depth_discrimination_MTurk/DepthDiscrim_HTML.html#4,4,1686,821,1366,768,7-20-2021,15-19-18,201,,,,,,,3529,510,1005,996,1000,495,,1,4,depth_discrimination_stimuli/000906_2014-06-08_13-35-43_260595134347_rgbf000155-resize_1/000906_2014-06-08_13-35-43_260595134347_rgbf000155-resize-original.jpg,2302,930870,1184686,29
546393,DepthScenes,duration_discrimination,discrim_jsons/shuffled_g0.json,http://54.89.209.186/DepthDuration/depth_discrimination_MTurk/DepthDiscrim_HTML.html#4,4,1686,821,1366,768,7-20-2021,15-19-18,202,,,,,,,3529,510,1005,996,1000,495,,1,3,depth_discrimination_stimuli/002788_2014-06-22_19-36-03_094959634447_rgbf000088-resize_2/002788_2014-06-22_19-36-03_094959634447_rgbf000088-resize-original.jpg,1953,930870,1184686,29
546393,DepthScenes,duration_discrimination,discrim_jsons/shuffled_g0.json,http://54.89.209.186/DepthDuration/depth_discrimination_MTurk/DepthDiscrim_HTML.html#4,4,1686,821,1366,768,7-20-2021,15-19-18,203,,,,,,,3529,510,1005,996,1000,495,,1,3,depth_discrimination_stimuli/002964_2014-06-08_17-46-11_094959634447_rgbf000091-resize_4/002964_2014-06-08_17-46-11_094959634447_rgbf000091-resize-original.jpg,2042,930870,1184686,29
546393,DepthScenes,duration_discrimination,discrim_jsons/shuffled_g0.json,http://54.89.209.186/DepthDuration/depth_discrimination_MTurk/DepthDiscrim_HTML.html#4,4,1686,821,1366,768,7-20-2021,15-19-18,204,,,,,,,3529,510,1005,996,1000,495,,1,4,depth_discrimination_stimuli/002131_2014-06-25_21-12-01_260595134347_rgbf000083-resize_0/002131_2014-06-25_21-12-01_260595134347_rgbf000083-resize-original.jpg,1895,930870,1184686,29
546393,DepthScenes,duration_discrimination,discrim_jsons/shuffled_g0.json,http://54.89.209.186/DepthDuration/depth_discrimination_MTurk/DepthDiscrim_HTML.html#4,4,1686,821,1366,768,7-20-2021,15-19-18,205,,,,,,,3529,510,1005,996,1000,495,,2,4,depth_discrimination_stimuli/002725_2014-06-22_11-47-51_094959634447_rgbf000070-resize_1/002725_2014-06-22_11-47-51_094959634447_rgbf000070-resize-original.jpg,2456,930870,1184686,29
546393,DepthScenes,duration_discrimination,discrim_jsons/shuffled_g0.json,http://54.89.209.186/DepthDuration/depth_discrimination_MTurk/DepthDiscrim_HTML.html#4,4,1686,821,1366,768,7-20-2021,15-19-18,206,,,,,,,3529,510,1005,996,1000,495,,2,4,depth_discrimination_stimuli/001815_2014-06-26_20-52-55_260595134347_rgbf000020-resize_0/001815_2014-06-26_20-52-55_260595134347_rgbf000020-resize-original.jpg,5464,930870,1184686,29
546393,DepthScenes,duration_discrimination,discrim_jsons/shuffled_g0.json,http://54.89.209.186/DepthDuration/depth_discrimination_MTurk/DepthDiscrim_HTML.html#4,4,1686,821,1366,768,7-20-2021,15-19-18,207,,,,,,,3529,510,1005,996,1000,495,,1,3,depth_discrimination_stimuli/000483_2014-06-09_20-41-45_260595134347_rgbf000116-resize_4/000483_2014-06-09_20-41-45_260595134347_rgbf000116-resize-original.jpg,1757,930870,1184686,29
546393,DepthScenes,duration_discrimination,discrim_jsons/shuffled_g0.json,http://54.89.209.186/DepthDuration/depth_discrimination_MTurk/DepthDiscrim_HTML.html#4,4,1686,821,1366,768,7-20-2021,15-19-18,208,,,,,,,3529,510,1005,996,1000,495,,1,4,depth_discrimination_stimuli/000103_2014-05-14_22-01-17_260595134347_rgbf000152-resize_5/000103_2014-05-14_22-01-17_260595134347_rgbf000152-resize-original.jpg,1803,930870,1184686,29
546393,DepthScenes,duration_discrimination,discrim_jsons/shuffled_g0.json,http://54.89.209.186/DepthDuration/depth_discrimination_MTurk/DepthDiscrim_HTML.html#4,4,1686,821,1366,768,7-20-2021,15-19-18,209,,,,,,,3529,510,1005,996,1000,495,,5,1,depth_discrimination_stimuli/001110_2014-06-15_17-25-28_260595134347_rgbf000150-resize_1/001110_2014-06-15_17-25-28_260595134347_rgbf000150-resize-original.jpg,3131,930870,1184686,29
546393,DepthScenes,duration_discrimination,discrim_jsons/shuffled_g0.json,http://54.89.209.186/DepthDuration/depth_discrimination_MTurk/DepthDiscrim_HTML.html#4,4,1686,821,1366,768,7-20-2021,15-19-18,210,,,,,,,3529,510,1005,996,1000,495,,3,1,depth_discrimination_stimuli/002989_2014-06-15_12-25-03_094959634447_rgbf000150-resize_3/002989_2014-06-15_12-25-03_094959634447_rgbf000150-resize-original.jpg,1738,930870,1184686,29
546393,DepthScenes,duration_discrimination,discrim_jsons/shuffled_g0.json,http://54.89.209.186/DepthDuration/depth_discrimination_MTurk/DepthDiscrim_HTML.html#4,4,1686,821,1366,768,7-20-2021,15-19-18,211,,,,,,,3529,510,1005,996,1000,495,,4,1,depth_discrimination_stimuli/001132_2014-06-17_14-48-54_260595134347_rgbf000100-resize_2/001132_2014-06-17_14-48-54_260595134347_rgbf000100-resize-original.jpg,1530,930870,1184686,29
546393,DepthScenes,duration_discrimination,discrim_jsons/shuffled_g0.json,http://54.89.209.186/DepthDuration/depth_discrimination_MTurk/DepthDiscrim_HTML.html#4,4,1686,821,1366,768,7-20-2021,15-19-18,212,,,,,,,3529,510,1005,996,1000,495,,3,1,depth_discrimination_stimuli/001264_2014-06-16_16-10-23_260595134347_rgbf000109-resize_1/001264_2014-06-16_16-10-23_260595134347_rgbf000109-resize-original.jpg,2221,930870,1184686,29
546393,DepthScenes,duration_discrimination,discrim_jsons/shuffled_g0.json,http://54.89.209.186/DepthDuration/depth_discrimination_MTurk/DepthDiscrim_HTML.html#4,4,1686,821,1366,768,7-20-2021,15-19-18,213,,,,,,,3529,510,1005,996,1000,495,,1,4,depth_discrimination_stimuli/002678_2014-06-13_16-15-32_094959634447_rgbf000151-resize_6/002678_2014-06-13_16-15-32_094959634447_rgbf000151-resize-original.jpg,5443,930870,1184686,29
546393,DepthScenes,duration_discrimination,discrim_jsons/shuffled_g0.json,http://54.89.209.186/DepthDuration/depth_discrimination_MTurk/DepthDiscrim_HTML.html#4,4,1686,821,1366,768,7-20-2021,15-19-18,214,,,,,,,3529,510,1005,996,1000,495,,1,3,depth_discrimination_stimuli/002445_2014-06-28_20-32-16_260595134347_rgbf000029-resize_4/002445_2014-06-28_20-32-16_260595134347_rgbf000029-resize-original.jpg,2589,930870,1184686,29
546393,DepthScenes,duration_discrimination,discrim_jsons/shuffled_g0.json,http://54.89.209.186/DepthDuration/depth_discrimination_MTurk/DepthDiscrim_HTML.html#4,4,1686,821,1366,768,7-20-2021,15-19-18,215,,,,,,,3529,510,1005,996,1000,495,,1,3,depth_discrimination_stimuli/003423_2014-05-21_10-23-26_094959634447_rgbf002665-resize_2/003423_2014-05-21_10-23-26_094959634447_rgbf002665-resize-original.jpg,4730,930870,1184686,29
546393,DepthScenes,duration_discrimination,discrim_jsons/shuffled_g0.json,http://54.89.209.186/DepthDuration/depth_discrimination_MTurk/DepthDiscrim_HTML.html#4,4,1686,821,1366,768,7-20-2021,15-19-18,216,,,,,,,3529,510,1005,996,1000,495,,1,4,depth_discrimination_stimuli/002568_2014-06-24_13-59-21_094959634447_rgbf000062-resize_4/002568_2014-06-24_13-59-21_094959634447_rgbf000062-resize-original.jpg,7962,930870,1184686,29
546393,DepthScenes,duration_discrimination,discrim_jsons/shuffled_g0.json,http://54.89.209.186/DepthDuration/depth_discrimination_MTurk/DepthDiscrim_HTML.html#4,4,1686,821,1366,768,7-20-2021,15-19-18,217,,,,,,,3529,510,1005,996,1000,495,,1,4,depth_discrimination_stimuli/002995_2014-06-15_12-31-26_094959634447_rgbf000150-resize_1/002995_2014-06-15_12-31-26_094959634447_rgbf000150-resize-original.jpg,1633,930870,1184686,29
546393,DepthScenes,duration_discrimination,discrim_jsons/shuffled_g0.json,http://54.89.209.186/DepthDuration/depth_discrimination_MTurk/DepthDiscrim_HTML.html#4,4,1686,821,1366,768,7-20-2021,15-19-18,218,,,,,,,3529,510,1005,996,1000,495,,2,3,depth_discrimination_stimuli/003546_2014-05-22_15-48-53_094959634447_rgbf004816-resize_3/003546_2014-05-22_15-48-53_094959634447_rgbf004816-resize-original.jpg,1759,930870,1184686,29
546393,DepthScenes,duration_discrimination,discrim_jsons/shuffled_g0.json,http://54.89.209.186/DepthDuration/depth_discrimination_MTurk/DepthDiscrim_HTML.html#4,4,1686,821,1366,768,7-20-2021,15-19-18,219,,,,,,,3529,510,1005,996,1000,495,,1,4,depth_discrimination_stimuli/001100_2014-06-15_17-46-26_260595134347_rgbf000225-resize_2/001100_2014-06-15_17-46-26_260595134347_rgbf000225-resize-original.jpg,5945,930870,1184686,29
