subjID,experimentName,versionName,sequenceName,url,selected_row,windowWidth,windowHeight,screenWidth,screenHeight,startDate,startTime,trial,stimulus_0,stimulus_1,duration,actual_depth_0,actual_depth_1,discrim_choice,trial_RT,log_fixation,log_sceneDuration1,log_mask1,log_sceneDuration2,log_mask2,unitSelection,meanDepth_rating,navigability_rating,rated_stimulus,rating_RT,experimentTime,totalTime,age
788965,DepthScenes,duration_discrimination,discrim_jsons/shuffled_g0_rotated.json,http://54.89.209.186/DepthDuration/depth_discrimination_MTurk/DepthDiscrim_HTML.html#3,3,1536,753,1536,864,7-20-2021,22-32-47,1,depth_discrimination_stimuli/000109_2014-05-14_23-41-52_260595134347_rgbf000035-resize_9/000109_2014-05-14_23-41-52_260595134347_rgbf000035-resize_9-target.png,depth_discrimination_stimuli/001618_2014-06-20_11-37-31_260595134347_rgbf000027-resize_3/001618_2014-06-20_11-37-31_260595134347_rgbf000027-resize_3-target.png,250,1.3545,1.8725,1,1716,501,265,992,249,494,,,,,,1551468,1747787,27
788965,DepthScenes,duration_discrimination,discrim_jsons/shuffled_g0_rotated.json,http://54.89.209.186/DepthDuration/depth_discrimination_MTurk/DepthDiscrim_HTML.html#3,3,1536,753,1536,864,7-20-2021,22-32-47,2,depth_discrimination_stimuli/000502_2014-06-08_23-02-32_260595134347_rgbf000063-resize_4/000502_2014-06-08_23-02-32_260595134347_rgbf000063-resize_4-target.png,depth_discrimination_stimuli/001092_2014-06-15_17-34-58_260595134347_rgbf000171-resize_3/001092_2014-06-15_17-34-58_260595134347_rgbf000171-resize_3-target.png,1000,2.431,2.6935,0,1749,511,994,1004,1005,488,,,,,,1551468,1747787,27
788965,DepthScenes,duration_discrimination,discrim_jsons/shuffled_g0_rotated.json,http://54.89.209.186/DepthDuration/depth_discrimination_MTurk/DepthDiscrim_HTML.html#3,3,1536,753,1536,864,7-20-2021,22-32-47,3,depth_discrimination_stimuli/000953_2014-06-08_11-42-19_260595134347_rgbf000083-resize_0/000953_2014-06-08_11-42-19_260595134347_rgbf000083-resize_0-target.png,depth_discrimination_stimuli/000787_2014-06-08_22-33-53_260595134347_rgbf000175-resize_1/000787_2014-06-08_22-33-53_260595134347_rgbf000175-resize_1-target.png,250,1.369,4.784,0,1236,513,238,1004,251,498,,,,,,1551468,1747787,27
788965,DepthScenes,duration_discrimination,discrim_jsons/shuffled_g0_rotated.json,http://54.89.209.186/DepthDuration/depth_discrimination_MTurk/DepthDiscrim_HTML.html#3,3,1536,753,1536,864,7-20-2021,22-32-47,4,depth_discrimination_stimuli/000742_2014-06-08_18-48-09_260595134347_rgbf000164-resize_4/000742_2014-06-08_18-48-09_260595134347_rgbf000164-resize_4-target.png,depth_discrimination_stimuli/003083_2014-06-15_15-21-03_094959634447_rgbf000063-resize_1/003083_2014-06-15_15-21-03_094959634447_rgbf000063-resize_1-target.png,250,4.632,4.1405,1,1635,508,251,993,263,499,,,,,,1551468,1747787,27
788965,DepthScenes,duration_discrimination,discrim_jsons/shuffled_g0_rotated.json,http://54.89.209.186/DepthDuration/depth_discrimination_MTurk/DepthDiscrim_HTML.html#3,3,1536,753,1536,864,7-20-2021,22-32-47,5,depth_discrimination_stimuli/000943_2014-06-09_19-31-07_260595134347_rgbf000128-resize_1/000943_2014-06-09_19-31-07_260595134347_rgbf000128-resize_1-target.png,depth_discrimination_stimuli/001532_2014-06-20_16-50-41_260595134347_rgbf000081-resize_4/001532_2014-06-20_16-50-41_260595134347_rgbf000081-resize_4-target.png,1000,1.9765,1.5758333333333,1,1710,513,999,1003,988,502,,,,,,1551468,1747787,27
788965,DepthScenes,duration_discrimination,discrim_jsons/shuffled_g0_rotated.json,http://54.89.209.186/DepthDuration/depth_discrimination_MTurk/DepthDiscrim_HTML.html#3,3,1536,753,1536,864,7-20-2021,22-32-47,6,depth_discrimination_stimuli/001056_2014-06-08_18-46-44_260595134347_rgbf000068-resize_0/001056_2014-06-08_18-46-44_260595134347_rgbf000068-resize_0-target.png,depth_discrimination_stimuli/000749_2014-06-08_21-55-06_260595134347_rgbf000070-resize_2/000749_2014-06-08_21-55-06_260595134347_rgbf000070-resize_2-target.png,1000,2.6625,2.331,1,1644,501,1000,1000,1002,500,,,,,,1551468,1747787,27
788965,DepthScenes,duration_discrimination,discrim_jsons/shuffled_g0_rotated.json,http://54.89.209.186/DepthDuration/depth_discrimination_MTurk/DepthDiscrim_HTML.html#3,3,1536,753,1536,864,7-20-2021,22-32-47,7,depth_discrimination_stimuli/000869_2014-06-09_20-50-18_260595134347_rgbf000060-resize_3/000869_2014-06-09_20-50-18_260595134347_rgbf000060-resize_3-target.png,depth_discrimination_stimuli/000800_2014-06-08_22-42-09_260595134347_rgbf000095-resize_3/000800_2014-06-08_22-42-09_260595134347_rgbf000095-resize_3-target.png,1000,2.266,2.8,0,1730,504,999,1005,1002,493,,,,,,1551468,1747787,27
788965,DepthScenes,duration_discrimination,discrim_jsons/shuffled_g0_rotated.json,http://54.89.209.186/DepthDuration/depth_discrimination_MTurk/DepthDiscrim_HTML.html#3,3,1536,753,1536,864,7-20-2021,22-32-47,8,depth_discrimination_stimuli/002444_2014-06-28_20-32-08_260595134347_rgbf000027-resize_0/002444_2014-06-28_20-32-08_260595134347_rgbf000027-resize_0-target.png,depth_discrimination_stimuli/002103_2014-06-25_20-00-40_260595134347_rgbf000049-resize_0/002103_2014-06-25_20-00-40_260595134347_rgbf000049-resize_0-target.png,250,4.389,4.105,0,1436,513,238,1010,248,502,,,,,,1551468,1747787,27
788965,DepthScenes,duration_discrimination,discrim_jsons/shuffled_g0_rotated.json,http://54.89.209.186/DepthDuration/depth_discrimination_MTurk/DepthDiscrim_HTML.html#3,3,1536,753,1536,864,7-20-2021,22-32-47,9,depth_discrimination_stimuli/001011_2014-06-08_23-18-54_260595134347_rgbf000044-resize_4/001011_2014-06-08_23-18-54_260595134347_rgbf000044-resize_4-target.png,depth_discrimination_stimuli/002043_2014-06-24_20-29-38_260595134347_rgbf000039-resize_4/002043_2014-06-24_20-29-38_260595134347_rgbf000039-resize_4-target.png,250,2.473,2.8435,1,1171,511,250,993,252,504,,,,,,1551468,1747787,27
788965,DepthScenes,duration_discrimination,discrim_jsons/shuffled_g0_rotated.json,http://54.89.209.186/DepthDuration/depth_discrimination_MTurk/DepthDiscrim_HTML.html#3,3,1536,753,1536,864,7-20-2021,22-32-47,10,depth_discrimination_stimuli/000454_2014-06-08_16-37-28_260595134347_rgbf000048-resize_2/000454_2014-06-08_16-37-28_260595134347_rgbf000048-resize_2-target.png,depth_discrimination_stimuli/000375_2014-06-08_11-17-29_260595134347_rgbf000133-resize_2/000375_2014-06-08_11-17-29_260595134347_rgbf000133-resize_2-target.png,1000,1.213,4.718,0,1695,506,1007,993,1001,505,,,,,,1551468,1747787,27
788965,DepthScenes,duration_discrimination,discrim_jsons/shuffled_g0_rotated.json,http://54.89.209.186/DepthDuration/depth_discrimination_MTurk/DepthDiscrim_HTML.html#3,3,1536,753,1536,864,7-20-2021,22-32-47,11,depth_discrimination_stimuli/002039_2014-06-24_20-22-38_260595134347_rgbf000084-resize_1/002039_2014-06-24_20-22-38_260595134347_rgbf000084-resize_1-target.png,depth_discrimination_stimuli/000691_2014-06-08_13-08-50_260595134347_rgbf000132-resize_3/000691_2014-06-08_13-08-50_260595134347_rgbf000132-resize_3-target.png,1000,4.408,4.153,1,1573,505,1001,995,1014,485,,,,,,1551468,1747787,27
788965,DepthScenes,duration_discrimination,discrim_jsons/shuffled_g0_rotated.json,http://54.89.209.186/DepthDuration/depth_discrimination_MTurk/DepthDiscrim_HTML.html#3,3,1536,753,1536,864,7-20-2021,22-32-47,12,depth_discrimination_stimuli/000709_2014-06-08_13-51-55_260595134347_rgbf000068-resize_3/000709_2014-06-08_13-51-55_260595134347_rgbf000068-resize_3-target.png,depth_discrimination_stimuli/003587_2014-05-23_16-48-02_094959634447_rgbf002384-resize_2/003587_2014-05-23_16-48-02_094959634447_rgbf002384-resize_2-target.png,1000,1.803,1.357,1,1644,506,997,1000,1013,486,,,,,,1551468,1747787,27
788965,DepthScenes,duration_discrimination,discrim_jsons/shuffled_g0_rotated.json,http://54.89.209.186/DepthDuration/depth_discrimination_MTurk/DepthDiscrim_HTML.html#3,3,1536,753,1536,864,7-20-2021,22-32-47,13,depth_discrimination_stimuli/002905_2014-06-03_18-04-43_094959634447_rgbf000151-resize_2/002905_2014-06-03_18-04-43_094959634447_rgbf000151-resize_2-target.png,depth_discrimination_stimuli/002340_2014-06-28_20-05-46_260595134347_rgbf000113-resize_0/002340_2014-06-28_20-05-46_260595134347_rgbf000113-resize_0-target.png,1000,2.0295,2.4735,0,2116,516,992,993,1003,501,,,,,,1551468,1747787,27
788965,DepthScenes,duration_discrimination,discrim_jsons/shuffled_g0_rotated.json,http://54.89.209.186/DepthDuration/depth_discrimination_MTurk/DepthDiscrim_HTML.html#3,3,1536,753,1536,864,7-20-2021,22-32-47,14,depth_discrimination_stimuli/000409_2014-06-04_19-23-33_260595134347_rgbf000067-resize_0/000409_2014-06-04_19-23-33_260595134347_rgbf000067-resize_0-target.png,depth_discrimination_stimuli/000493_2014-06-09_21-01-18_260595134347_rgbf000196-resize_3/000493_2014-06-09_21-01-18_260595134347_rgbf000196-resize_3-target.png,250,3.7335,3.44,0,867,501,251,1000,249,501,,,,,,1551468,1747787,27
788965,DepthScenes,duration_discrimination,discrim_jsons/shuffled_g0_rotated.json,http://54.89.209.186/DepthDuration/depth_discrimination_MTurk/DepthDiscrim_HTML.html#3,3,1536,753,1536,864,7-20-2021,22-32-47,15,depth_discrimination_stimuli/002675_2014-06-13_16-08-49_094959634447_rgbf000151-resize_2/002675_2014-06-13_16-08-49_094959634447_rgbf000151-resize_2-target.png,depth_discrimination_stimuli/001222_2014-06-17_16-24-06_260595134347_rgbf000073-resize_0/001222_2014-06-17_16-24-06_260595134347_rgbf000073-resize_0-target.png,1000,4.5065,1.4385,1,1641,518,985,998,1002,500,,,,,,1551468,1747787,27
788965,DepthScenes,duration_discrimination,discrim_jsons/shuffled_g0_rotated.json,http://54.89.209.186/DepthDuration/depth_discrimination_MTurk/DepthDiscrim_HTML.html#3,3,1536,753,1536,864,7-20-2021,22-32-47,16,depth_discrimination_stimuli/001016_2014-06-09_16-16-10_260595134347_rgbf000112-resize_5/001016_2014-06-09_16-16-10_260595134347_rgbf000112-resize_5-target.png,depth_discrimination_stimuli/002199_2014-06-28_18-33-56_260595134347_rgbf000074-resize_0/002199_2014-06-28_18-33-56_260595134347_rgbf000074-resize_0-target.png,250,1.6565,1.996,1,1420,503,254,1008,236,513,,,,,,1551468,1747787,27
788965,DepthScenes,duration_discrimination,discrim_jsons/shuffled_g0_rotated.json,http://54.89.209.186/DepthDuration/depth_discrimination_MTurk/DepthDiscrim_HTML.html#3,3,1536,753,1536,864,7-20-2021,22-32-47,17,depth_discrimination_stimuli/000470_2014-06-09_19-42-40_260595134347_rgbf000094-resize_1/000470_2014-06-09_19-42-40_260595134347_rgbf000094-resize_1-target.png,depth_discrimination_stimuli/002953_2014-06-08_17-32-18_094959634447_rgbf000059-resize_5/002953_2014-06-08_17-32-18_094959634447_rgbf000059-resize_5-target.png,250,1.831,1.551,1,1004,506,251,1008,236,504,,,,,,1551468,1747787,27
788965,DepthScenes,duration_discrimination,discrim_jsons/shuffled_g0_rotated.json,http://54.89.209.186/DepthDuration/depth_discrimination_MTurk/DepthDiscrim_HTML.html#3,3,1536,753,1536,864,7-20-2021,22-32-47,18,depth_discrimination_stimuli/000569_2014-06-09_22-51-47_260595134347_rgbf000141-resize_3/000569_2014-06-09_22-51-47_260595134347_rgbf000141-resize_3-target.png,depth_discrimination_stimuli/000868_2014-06-09_20-49-52_260595134347_rgbf000064-resize_4/000868_2014-06-09_20-49-52_260595134347_rgbf000064-resize_4-target.png,250,4.512,1.2815,1,822,500,252,1012,248,502,,,,,,1551468,1747787,27
788965,DepthScenes,duration_discrimination,discrim_jsons/shuffled_g0_rotated.json,http://54.89.209.186/DepthDuration/depth_discrimination_MTurk/DepthDiscrim_HTML.html#3,3,1536,753,1536,864,7-20-2021,22-32-47,19,depth_discrimination_stimuli/001055_2014-06-08_18-45-35_260595134347_rgbf000111-resize_4/001055_2014-06-08_18-45-35_260595134347_rgbf000111-resize_4-target.png,depth_discrimination_stimuli/000929_2014-06-09_16-33-19_260595134347_rgbf000139-resize_0/000929_2014-06-09_16-33-19_260595134347_rgbf000139-resize_0-target.png,1000,2.429,2.868,1,1751,509,992,1006,999,503,,,,,,1551468,1747787,27
788965,DepthScenes,duration_discrimination,discrim_jsons/shuffled_g0_rotated.json,http://54.89.209.186/DepthDuration/depth_discrimination_MTurk/DepthDiscrim_HTML.html#3,3,1536,753,1536,864,7-20-2021,22-32-47,20,depth_discrimination_stimuli/001164_2014-06-17_15-35-46_260595134347_rgbf000085-resize_3/001164_2014-06-17_15-35-46_260595134347_rgbf000085-resize_3-target.png,depth_discrimination_stimuli/002118_2014-06-25_20-32-08_260595134347_rgbf000078-resize_1/002118_2014-06-25_20-32-08_260595134347_rgbf000078-resize_1-target.png,1000,2.354,2.646,0,2055,508,999,1000,1005,504,,,,,,1551468,1747787,27
788965,DepthScenes,duration_discrimination,discrim_jsons/shuffled_g0_rotated.json,http://54.89.209.186/DepthDuration/depth_discrimination_MTurk/DepthDiscrim_HTML.html#3,3,1536,753,1536,864,7-20-2021,22-32-47,21,depth_discrimination_stimuli/000866_2014-06-09_20-45-42_260595134347_rgbf000139-resize_1/000866_2014-06-09_20-45-42_260595134347_rgbf000139-resize_1-target.png,depth_discrimination_stimuli/003490_2014-05-21_15-50-11_094959634447_rgbf000101-resize_3/003490_2014-05-21_15-50-11_094959634447_rgbf000101-resize_3-target.png,1000,3.2155,3.6445,1,2332,505,1005,996,1001,494,,,,,,1551468,1747787,27
788965,DepthScenes,duration_discrimination,discrim_jsons/shuffled_g0_rotated.json,http://54.89.209.186/DepthDuration/depth_discrimination_MTurk/DepthDiscrim_HTML.html#3,3,1536,753,1536,864,7-20-2021,22-32-47,22,depth_discrimination_stimuli/001584_2014-06-20_11-07-43_260595134347_rgbf000002-resize_1/001584_2014-06-20_11-07-43_260595134347_rgbf000002-resize_1-target.png,depth_discrimination_stimuli/002805_2014-06-22_19-54-03_094959634447_rgbf000079-resize_1/002805_2014-06-22_19-54-03_094959634447_rgbf000079-resize_1-target.png,250,3.53,3.144,0,1043,506,252,1006,252,486,,,,,,1551468,1747787,27
788965,DepthScenes,duration_discrimination,discrim_jsons/shuffled_g0_rotated.json,http://54.89.209.186/DepthDuration/depth_discrimination_MTurk/DepthDiscrim_HTML.html#3,3,1536,753,1536,864,7-20-2021,22-32-47,23,depth_discrimination_stimuli/002414_2014-06-28_20-24-58_260595134347_rgbf000067-resize_4/002414_2014-06-28_20-24-58_260595134347_rgbf000067-resize_4-target.png,depth_discrimination_stimuli/001450_2014-06-19_17-02-03_260595134347_rgbf000203-resize_4/001450_2014-06-19_17-02-03_260595134347_rgbf000203-resize_4-target.png,250,4.363,4.0106666666667,0,1042,508,254,1000,251,490,,,,,,1551468,1747787,27
788965,DepthScenes,duration_discrimination,discrim_jsons/shuffled_g0_rotated.json,http://54.89.209.186/DepthDuration/depth_discrimination_MTurk/DepthDiscrim_HTML.html#3,3,1536,753,1536,864,7-20-2021,22-32-47,24,depth_discrimination_stimuli/002072_2014-06-24_21-48-06_260595134347_rgbf000115-resize_0/002072_2014-06-24_21-48-06_260595134347_rgbf000115-resize_0-target.png,depth_discrimination_stimuli/001012_2014-06-08_23-19-38_260595134347_rgbf000057-resize_0/001012_2014-06-08_23-19-38_260595134347_rgbf000057-resize_0-target.png,250,4.702,1.38325,1,1057,511,245,1004,250,504,,,,,,1551468,1747787,27
788965,DepthScenes,duration_discrimination,discrim_jsons/shuffled_g0_rotated.json,http://54.89.209.186/DepthDuration/depth_discrimination_MTurk/DepthDiscrim_HTML.html#3,3,1536,753,1536,864,7-20-2021,22-32-47,25,depth_discrimination_stimuli/001498_2014-06-19_17-45-14_260595134347_rgbf000129-resize_4/001498_2014-06-19_17-45-14_260595134347_rgbf000129-resize_4-target.png,depth_discrimination_stimuli/003125_2014-05-12_10-39-22_094959634447_rgbf000100-resize_0/003125_2014-05-12_10-39-22_094959634447_rgbf000100-resize_0-target.png,1000,1.4075,4.8655,0,1686,509,998,994,1003,507,,,,,,1551468,1747787,27
788965,DepthScenes,duration_discrimination,discrim_jsons/shuffled_g0_rotated.json,http://54.89.209.186/DepthDuration/depth_discrimination_MTurk/DepthDiscrim_HTML.html#3,3,1536,753,1536,864,7-20-2021,22-32-47,26,depth_discrimination_stimuli/002949_2014-06-26_15-57-42_094959634447_rgbf000079-resize_1/002949_2014-06-26_15-57-42_094959634447_rgbf000079-resize_1-target.png,depth_discrimination_stimuli/003495_2014-05-21_16-01-51_094959634447_rgbf000100-resize_3/003495_2014-05-21_16-01-51_094959634447_rgbf000100-resize_3-target.png,250,1.8915,1.6255,1,973,503,252,1005,249,493,,,,,,1551468,1747787,27
788965,DepthScenes,duration_discrimination,discrim_jsons/shuffled_g0_rotated.json,http://54.89.209.186/DepthDuration/depth_discrimination_MTurk/DepthDiscrim_HTML.html#3,3,1536,753,1536,864,7-20-2021,22-32-47,27,depth_discrimination_stimuli/001136_2014-06-17_15-19-41_260595134347_rgbf000076-resize_3/001136_2014-06-17_15-19-41_260595134347_rgbf000076-resize_3-target.png,depth_discrimination_stimuli/002549_2014-06-24_13-41-39_094959634447_rgbf000022-resize_3/002549_2014-06-24_13-41-39_094959634447_rgbf000022-resize_3-target.png,1000,1.8655,1.476,1,1707,505,1001,1003,1001,501,,,,,,1551468,1747787,27
788965,DepthScenes,duration_discrimination,discrim_jsons/shuffled_g0_rotated.json,http://54.89.209.186/DepthDuration/depth_discrimination_MTurk/DepthDiscrim_HTML.html#3,3,1536,753,1536,864,7-20-2021,22-32-47,28,depth_discrimination_stimuli/002509_2014-06-24_13-19-22_094959634447_rgbf000077-resize_0/002509_2014-06-24_13-19-22_094959634447_rgbf000077-resize_0-target.png,depth_discrimination_stimuli/000549_2014-06-08_22-10-24_260595134347_rgbf000247-resize_3/000549_2014-06-08_22-10-24_260595134347_rgbf000247-resize_3-target.png,1000,1.3065,1.841,0,1618,506,1005,990,1001,503,,,,,,1551468,1747787,27
788965,DepthScenes,duration_discrimination,discrim_jsons/shuffled_g0_rotated.json,http://54.89.209.186/DepthDuration/depth_discrimination_MTurk/DepthDiscrim_HTML.html#3,3,1536,753,1536,864,7-20-2021,22-32-47,29,depth_discrimination_stimuli/000542_2014-06-08_18-27-08_260595134347_rgbf000118-resize_1/000542_2014-06-08_18-27-08_260595134347_rgbf000118-resize_1-target.png,depth_discrimination_stimuli/003292_2014-05-14_21-53-49_094959634447_rgbf000100-resize_2/003292_2014-05-14_21-53-49_094959634447_rgbf000100-resize_2-target.png,1000,3,3.4815,1,1725,511,992,1008,998,502,,,,,,1551468,1747787,27
788965,DepthScenes,duration_discrimination,discrim_jsons/shuffled_g0_rotated.json,http://54.89.209.186/DepthDuration/depth_discrimination_MTurk/DepthDiscrim_HTML.html#3,3,1536,753,1536,864,7-20-2021,22-32-47,30,depth_discrimination_stimuli/001148_2014-06-17_15-26-42_260595134347_rgbf000129-resize_0/001148_2014-06-17_15-26-42_260595134347_rgbf000129-resize_0-target.png,depth_discrimination_stimuli/000556_2014-06-09_22-42-56_260595134347_rgbf000214-resize_1/000556_2014-06-09_22-42-56_260595134347_rgbf000214-resize_1-target.png,1000,4.368,4.8415,1,1891,511,993,1008,991,503,,,,,,1551468,1747787,27
788965,DepthScenes,duration_discrimination,discrim_jsons/shuffled_g0_rotated.json,http://54.89.209.186/DepthDuration/depth_discrimination_MTurk/DepthDiscrim_HTML.html#3,3,1536,753,1536,864,7-20-2021,22-32-47,31,depth_discrimination_stimuli/001181_2014-06-17_15-50-57_260595134347_rgbf000106-resize_4/001181_2014-06-17_15-50-57_260595134347_rgbf000106-resize_4-target.png,depth_discrimination_stimuli/001158_2014-06-17_15-32-16_260595134347_rgbf000138-resize_2/001158_2014-06-17_15-32-16_260595134347_rgbf000138-resize_2-target.png,250,4.149,4.5315,0,1160,502,253,1005,259,493,,,,,,1551468,1747787,27
788965,DepthScenes,duration_discrimination,discrim_jsons/shuffled_g0_rotated.json,http://54.89.209.186/DepthDuration/depth_discrimination_MTurk/DepthDiscrim_HTML.html#3,3,1536,753,1536,864,7-20-2021,22-32-47,32,depth_discrimination_stimuli/001235_2014-06-17_16-37-36_260595134347_rgbf000084-resize_4/001235_2014-06-17_16-37-36_260595134347_rgbf000084-resize_4-target.png,depth_discrimination_stimuli/001197_2014-06-17_16-01-50_260595134347_rgbf000103-resize_4/001197_2014-06-17_16-01-50_260595134347_rgbf000103-resize_4-target.png,250,3.6605,3.4025,0,1118,516,250,1000,235,502,,,,,,1551468,1747787,27
788965,DepthScenes,duration_discrimination,discrim_jsons/shuffled_g0_rotated.json,http://54.89.209.186/DepthDuration/depth_discrimination_MTurk/DepthDiscrim_HTML.html#3,3,1536,753,1536,864,7-20-2021,22-32-47,33,depth_discrimination_stimuli/001032_2014-06-08_13-23-17_260595134347_rgbf000021-resize_3/001032_2014-06-08_13-23-17_260595134347_rgbf000021-resize_3-target.png,depth_discrimination_stimuli/002323_2014-06-28_20-01-54_260595134347_rgbf000051-resize_4/002323_2014-06-28_20-01-54_260595134347_rgbf000051-resize_4-target.png,250,3.2725,3.731,0,1117,514,237,1011,251,501,,,,,,1551468,1747787,27
788965,DepthScenes,duration_discrimination,discrim_jsons/shuffled_g0_rotated.json,http://54.89.209.186/DepthDuration/depth_discrimination_MTurk/DepthDiscrim_HTML.html#3,3,1536,753,1536,864,7-20-2021,22-32-47,34,depth_discrimination_stimuli/003395_2014-05-20_15-39-18_094959634447_rgbf000101-resize_0/003395_2014-05-20_15-39-18_094959634447_rgbf000101-resize_0-target.png,depth_discrimination_stimuli/001540_2014-06-20_17-01-05_260595134347_rgbf000086-resize_2/001540_2014-06-20_17-01-05_260595134347_rgbf000086-resize_2-target.png,1000,4.835,1.459,1,1628,509,993,1007,1005,488,,,,,,1551468,1747787,27
788965,DepthScenes,duration_discrimination,discrim_jsons/shuffled_g0_rotated.json,http://54.89.209.186/DepthDuration/depth_discrimination_MTurk/DepthDiscrim_HTML.html#3,3,1536,753,1536,864,7-20-2021,22-32-47,35,depth_discrimination_stimuli/001170_2014-06-17_15-43-44_260595134347_rgbf000096-resize_6/001170_2014-06-17_15-43-44_260595134347_rgbf000096-resize_6-target.png,depth_discrimination_stimuli/002364_2014-06-28_20-11-05_260595134347_rgbf000042-resize_0/002364_2014-06-28_20-11-05_260595134347_rgbf000042-resize_0-target.png,250,1.191,4.682,0,1036,509,251,991,250,510,,,,,,1551468,1747787,27
788965,DepthScenes,duration_discrimination,discrim_jsons/shuffled_g0_rotated.json,http://54.89.209.186/DepthDuration/depth_discrimination_MTurk/DepthDiscrim_HTML.html#3,3,1536,753,1536,864,7-20-2021,22-32-47,36,depth_discrimination_stimuli/000137_2014-05-20_17-04-49_260595134347_rgbf000120-resize_1/000137_2014-05-20_17-04-49_260595134347_rgbf000120-resize_1-target.png,depth_discrimination_stimuli/003423_2014-05-21_10-23-26_094959634447_rgbf002665-resize_2/003423_2014-05-21_10-23-26_094959634447_rgbf002665-resize_2-target.png,250,3.786,3.2575,0,864,503,251,1007,240,512,,,,,,1551468,1747787,27
788965,DepthScenes,duration_discrimination,discrim_jsons/shuffled_g0_rotated.json,http://54.89.209.186/DepthDuration/depth_discrimination_MTurk/DepthDiscrim_HTML.html#3,3,1536,753,1536,864,7-20-2021,22-32-47,37,depth_discrimination_stimuli/002678_2014-06-13_16-15-32_094959634447_rgbf000151-resize_6/002678_2014-06-13_16-15-32_094959634447_rgbf000151-resize_6-target.png,depth_discrimination_stimuli/000927_2014-06-09_16-32-30_260595134347_rgbf000123-resize_3/000927_2014-06-09_16-32-30_260595134347_rgbf000123-resize_3-target.png,250,2.183,2.6785,0,1327,512,250,998,254,502,,,,,,1551468,1747787,27
788965,DepthScenes,duration_discrimination,discrim_jsons/shuffled_g0_rotated.json,http://54.89.209.186/DepthDuration/depth_discrimination_MTurk/DepthDiscrim_HTML.html#3,3,1536,753,1536,864,7-20-2021,22-32-47,38,depth_discrimination_stimuli/002748_2014-06-22_19-07-22_094959634447_rgbf000078-resize_1/002748_2014-06-22_19-07-22_094959634447_rgbf000078-resize_1-target.png,depth_discrimination_stimuli/001808_2014-06-26_20-50-58_260595134347_rgbf000029-resize_1/001808_2014-06-26_20-50-58_260595134347_rgbf000029-resize_1-target.png,250,4.6705,4.249,1,1078,516,248,999,237,505,,,,,,1551468,1747787,27
788965,DepthScenes,duration_discrimination,discrim_jsons/shuffled_g0_rotated.json,http://54.89.209.186/DepthDuration/depth_discrimination_MTurk/DepthDiscrim_HTML.html#3,3,1536,753,1536,864,7-20-2021,22-32-47,39,depth_discrimination_stimuli/001133_2014-06-17_14-49-16_260595134347_rgbf000100-resize_0/001133_2014-06-17_14-49-16_260595134347_rgbf000100-resize_0-target.png,depth_discrimination_stimuli/002467_2014-06-28_20-38-07_260595134347_rgbf000026-resize_2/002467_2014-06-28_20-38-07_260595134347_rgbf000026-resize_2-target.png,250,4.2115,4.742,1,1297,502,254,1004,252,502,,,,,,1551468,1747787,27
788965,DepthScenes,duration_discrimination,discrim_jsons/shuffled_g0_rotated.json,http://54.89.209.186/DepthDuration/depth_discrimination_MTurk/DepthDiscrim_HTML.html#3,3,1536,753,1536,864,7-20-2021,22-32-47,40,depth_discrimination_stimuli/003081_2014-06-15_15-19-16_094959634447_rgbf000150-resize_1/003081_2014-06-15_15-19-16_094959634447_rgbf000150-resize_1-target.png,depth_discrimination_stimuli/002660_2014-06-13_15-44-18_094959634447_rgbf001878-resize_2/002660_2014-06-13_15-44-18_094959634447_rgbf001878-resize_2-target.png,1000,3.9125,3.576,1,1571,504,1010,992,1004,504,,,,,,1551468,1747787,27
788965,DepthScenes,duration_discrimination,discrim_jsons/shuffled_g0_rotated.json,http://54.89.209.186/DepthDuration/depth_discrimination_MTurk/DepthDiscrim_HTML.html#3,3,1536,753,1536,864,7-20-2021,22-32-47,40,,,,,,,1571,504,1010,992,1004,504,,,,,,1551468,1747787,27
788965,DepthScenes,duration_discrimination,discrim_jsons/shuffled_g0_rotated.json,http://54.89.209.186/DepthDuration/depth_discrimination_MTurk/DepthDiscrim_HTML.html#3,3,1519,753,1536,864,7-20-2021,22-32-47,42,,,,,,,1571,504,1010,992,1004,504,,2,2,depth_discrimination_stimuli/002199_2014-06-28_18-33-56_260595134347_rgbf000074-resize_0/002199_2014-06-28_18-33-56_260595134347_rgbf000074-resize-original.jpg,14781,1551468,1747787,27
788965,DepthScenes,duration_discrimination,discrim_jsons/shuffled_g0_rotated.json,http://54.89.209.186/DepthDuration/depth_discrimination_MTurk/DepthDiscrim_HTML.html#3,3,1519,753,1536,864,7-20-2021,22-32-47,43,,,,,,,1571,504,1010,992,1004,504,,2,3,depth_discrimination_stimuli/001133_2014-06-17_14-49-16_260595134347_rgbf000100-resize_0/001133_2014-06-17_14-49-16_260595134347_rgbf000100-resize-original.jpg,12030,1551468,1747787,27
788965,DepthScenes,duration_discrimination,discrim_jsons/shuffled_g0_rotated.json,http://54.89.209.186/DepthDuration/depth_discrimination_MTurk/DepthDiscrim_HTML.html#3,3,1519,753,1536,864,7-20-2021,22-32-47,44,,,,,,,1571,504,1010,992,1004,504,,2,1,depth_discrimination_stimuli/002788_2014-06-22_19-36-03_094959634447_rgbf000088-resize_2/002788_2014-06-22_19-36-03_094959634447_rgbf000088-resize-original.jpg,27185,1551468,1747787,27
788965,DepthScenes,duration_discrimination,discrim_jsons/shuffled_g0_rotated.json,http://54.89.209.186/DepthDuration/depth_discrimination_MTurk/DepthDiscrim_HTML.html#3,3,1519,753,1536,864,7-20-2021,22-32-47,45,,,,,,,1571,504,1010,992,1004,504,,2,3,depth_discrimination_stimuli/001650_2014-06-20_12-09-00_260595134347_rgbf000087-resize_3/001650_2014-06-20_12-09-00_260595134347_rgbf000087-resize-original.jpg,3814,1551468,1747787,27
788965,DepthScenes,duration_discrimination,discrim_jsons/shuffled_g0_rotated.json,http://54.89.209.186/DepthDuration/depth_discrimination_MTurk/DepthDiscrim_HTML.html#3,3,1519,753,1536,864,7-20-2021,22-32-47,46,,,,,,,1571,504,1010,992,1004,504,,3,2,depth_discrimination_stimuli/001199_2014-06-17_16-03-48_260595134347_rgbf000077-resize_0/001199_2014-06-17_16-03-48_260595134347_rgbf000077-resize-original.jpg,4094,1551468,1747787,27
788965,DepthScenes,duration_discrimination,discrim_jsons/shuffled_g0_rotated.json,http://54.89.209.186/DepthDuration/depth_discrimination_MTurk/DepthDiscrim_HTML.html#3,3,1519,753,1536,864,7-20-2021,22-32-47,47,,,,,,,1571,504,1010,992,1004,504,,3,1,depth_discrimination_stimuli/002639_2014-06-24_14-51-37_094959634447_rgbf000074-resize_4/002639_2014-06-24_14-51-37_094959634447_rgbf000074-resize-original.jpg,4379,1551468,1747787,27
788965,DepthScenes,duration_discrimination,discrim_jsons/shuffled_g0_rotated.json,http://54.89.209.186/DepthDuration/depth_discrimination_MTurk/DepthDiscrim_HTML.html#3,3,1519,753,1536,864,7-20-2021,22-32-47,48,,,,,,,1571,504,1010,992,1004,504,,3,3,depth_discrimination_stimuli/002039_2014-06-24_20-22-38_260595134347_rgbf000084-resize_1/002039_2014-06-24_20-22-38_260595134347_rgbf000084-resize-original.jpg,41831,1551468,1747787,27
788965,DepthScenes,duration_discrimination,discrim_jsons/shuffled_g0_rotated.json,http://54.89.209.186/DepthDuration/depth_discrimination_MTurk/DepthDiscrim_HTML.html#3,3,1519,753,1536,864,7-20-2021,22-32-47,49,,,,,,,1571,504,1010,992,1004,504,,3,3,depth_discrimination_stimuli/003338_2014-05-20_11-01-23_094959634447_rgbf000051-resize_6/003338_2014-05-20_11-01-23_094959634447_rgbf000051-resize-original.jpg,6411,1551468,1747787,27
788965,DepthScenes,duration_discrimination,discrim_jsons/shuffled_g0_rotated.json,http://54.89.209.186/DepthDuration/depth_discrimination_MTurk/DepthDiscrim_HTML.html#3,3,1519,753,1536,864,7-20-2021,22-32-47,50,,,,,,,1571,504,1010,992,1004,504,,3,2,depth_discrimination_stimuli/001016_2014-06-09_16-16-10_260595134347_rgbf000112-resize_5/001016_2014-06-09_16-16-10_260595134347_rgbf000112-resize-original.jpg,5823,1551468,1747787,27
788965,DepthScenes,duration_discrimination,discrim_jsons/shuffled_g0_rotated.json,http://54.89.209.186/DepthDuration/depth_discrimination_MTurk/DepthDiscrim_HTML.html#3,3,1519,753,1536,864,7-20-2021,22-32-47,51,,,,,,,1571,504,1010,992,1004,504,,3,4,depth_discrimination_stimuli/002460_2014-06-28_20-35-43_260595134347_rgbf000028-resize_4/002460_2014-06-28_20-35-43_260595134347_rgbf000028-resize-original.jpg,5428,1551468,1747787,27
788965,DepthScenes,duration_discrimination,discrim_jsons/shuffled_g0_rotated.json,http://54.89.209.186/DepthDuration/depth_discrimination_MTurk/DepthDiscrim_HTML.html#3,3,1519,753,1536,864,7-20-2021,22-32-47,52,,,,,,,1571,504,1010,992,1004,504,,3,2,depth_discrimination_stimuli/002057_2014-06-24_21-00-13_260595134347_rgbf000120-resize_1/002057_2014-06-24_21-00-13_260595134347_rgbf000120-resize-original.jpg,10342,1551468,1747787,27
788965,DepthScenes,duration_discrimination,discrim_jsons/shuffled_g0_rotated.json,http://54.89.209.186/DepthDuration/depth_discrimination_MTurk/DepthDiscrim_HTML.html#3,3,1519,753,1536,864,7-20-2021,22-32-47,53,,,,,,,1571,504,1010,992,1004,504,,4,3,depth_discrimination_stimuli/000103_2014-05-14_22-01-17_260595134347_rgbf000152-resize_5/000103_2014-05-14_22-01-17_260595134347_rgbf000152-resize-original.jpg,57073,1551468,1747787,27
788965,DepthScenes,duration_discrimination,discrim_jsons/shuffled_g0_rotated.json,http://54.89.209.186/DepthDuration/depth_discrimination_MTurk/DepthDiscrim_HTML.html#3,3,1519,753,1536,864,7-20-2021,22-32-47,54,,,,,,,1571,504,1010,992,1004,504,,3,3,depth_discrimination_stimuli/000009_2014-05-26_14-32-05_260595134347_rgbf000034-resize_3/000009_2014-05-26_14-32-05_260595134347_rgbf000034-resize-original.jpg,38846,1551468,1747787,27
788965,DepthScenes,duration_discrimination,discrim_jsons/shuffled_g0_rotated.json,http://54.89.209.186/DepthDuration/depth_discrimination_MTurk/DepthDiscrim_HTML.html#3,3,1519,753,1536,864,7-20-2021,22-32-47,55,,,,,,,1571,504,1010,992,1004,504,,4,5,depth_discrimination_stimuli/002468_2014-06-28_20-38-39_260595134347_rgbf000045-resize_1/002468_2014-06-28_20-38-39_260595134347_rgbf000045-resize-original.jpg,6385,1551468,1747787,27
788965,DepthScenes,duration_discrimination,discrim_jsons/shuffled_g0_rotated.json,http://54.89.209.186/DepthDuration/depth_discrimination_MTurk/DepthDiscrim_HTML.html#3,3,1519,753,1536,864,7-20-2021,22-32-47,56,,,,,,,1571,504,1010,992,1004,504,,3,2,depth_discrimination_stimuli/000854_2014-06-09_19-43-13_260595134347_rgbf000066-resize_0/000854_2014-06-09_19-43-13_260595134347_rgbf000066-resize-original.jpg,4964,1551468,1747787,27
788965,DepthScenes,duration_discrimination,discrim_jsons/shuffled_g0_rotated.json,http://54.89.209.186/DepthDuration/depth_discrimination_MTurk/DepthDiscrim_HTML.html#3,3,1519,753,1536,864,7-20-2021,22-32-47,57,,,,,,,1571,504,1010,992,1004,504,,4,4,depth_discrimination_stimuli/001264_2014-06-16_16-10-23_260595134347_rgbf000109-resize_1/001264_2014-06-16_16-10-23_260595134347_rgbf000109-resize-original.jpg,4643,1551468,1747787,27
788965,DepthScenes,duration_discrimination,discrim_jsons/shuffled_g0_rotated.json,http://54.89.209.186/DepthDuration/depth_discrimination_MTurk/DepthDiscrim_HTML.html#3,3,1519,753,1536,864,7-20-2021,22-32-47,58,,,,,,,1571,504,1010,992,1004,504,,3,3,depth_discrimination_stimuli/000720_2014-06-08_18-37-27_260595134347_rgbf000203-resize_4/000720_2014-06-08_18-37-27_260595134347_rgbf000203-resize-original.jpg,3690,1551468,1747787,27
788965,DepthScenes,duration_discrimination,discrim_jsons/shuffled_g0_rotated.json,http://54.89.209.186/DepthDuration/depth_discrimination_MTurk/DepthDiscrim_HTML.html#3,3,1519,753,1536,864,7-20-2021,22-32-47,59,,,,,,,1571,504,1010,992,1004,504,,3,2,depth_discrimination_stimuli/000929_2014-06-09_16-33-19_260595134347_rgbf000139-resize_0/000929_2014-06-09_16-33-19_260595134347_rgbf000139-resize-original.jpg,6671,1551468,1747787,27
788965,DepthScenes,duration_discrimination,discrim_jsons/shuffled_g0_rotated.json,http://54.89.209.186/DepthDuration/depth_discrimination_MTurk/DepthDiscrim_HTML.html#3,3,1519,753,1536,864,7-20-2021,22-32-47,60,,,,,,,1571,504,1010,992,1004,504,,4,2,depth_discrimination_stimuli/002549_2014-06-24_13-41-39_094959634447_rgbf000022-resize_3/002549_2014-06-24_13-41-39_094959634447_rgbf000022-resize-original.jpg,5993,1551468,1747787,27
788965,DepthScenes,duration_discrimination,discrim_jsons/shuffled_g0_rotated.json,http://54.89.209.186/DepthDuration/depth_discrimination_MTurk/DepthDiscrim_HTML.html#3,3,1519,753,1536,864,7-20-2021,22-32-47,61,,,,,,,1571,504,1010,992,1004,504,,4,5,depth_discrimination_stimuli/001392_2014-06-19_16-07-59_260595134347_rgbf000046-resize_1/001392_2014-06-19_16-07-59_260595134347_rgbf000046-resize-original.jpg,8557,1551468,1747787,27
788965,DepthScenes,duration_discrimination,discrim_jsons/shuffled_g0_rotated.json,http://54.89.209.186/DepthDuration/depth_discrimination_MTurk/DepthDiscrim_HTML.html#3,3,1519,753,1536,864,7-20-2021,22-32-47,62,,,,,,,1571,504,1010,992,1004,504,,5,4,depth_discrimination_stimuli/002464_2014-06-28_20-36-57_260595134347_rgbf000029-resize_0/002464_2014-06-28_20-36-57_260595134347_rgbf000029-resize-original.jpg,8153,1551468,1747787,27
788965,DepthScenes,duration_discrimination,discrim_jsons/shuffled_g0_rotated.json,http://54.89.209.186/DepthDuration/depth_discrimination_MTurk/DepthDiscrim_HTML.html#3,3,1519,753,1536,864,7-20-2021,22-32-47,63,,,,,,,1571,504,1010,992,1004,504,,3,4,depth_discrimination_stimuli/002570_2014-06-24_13-59-54_094959634447_rgbf000059-resize_0/002570_2014-06-24_13-59-54_094959634447_rgbf000059-resize-original.jpg,4567,1551468,1747787,27
788965,DepthScenes,duration_discrimination,discrim_jsons/shuffled_g0_rotated.json,http://54.89.209.186/DepthDuration/depth_discrimination_MTurk/DepthDiscrim_HTML.html#3,3,1519,753,1536,864,7-20-2021,22-32-47,64,,,,,,,1571,504,1010,992,1004,504,,3,2,depth_discrimination_stimuli/003587_2014-05-23_16-48-02_094959634447_rgbf002384-resize_2/003587_2014-05-23_16-48-02_094959634447_rgbf002384-resize-original.jpg,3054,1551468,1747787,27
788965,DepthScenes,duration_discrimination,discrim_jsons/shuffled_g0_rotated.json,http://54.89.209.186/DepthDuration/depth_discrimination_MTurk/DepthDiscrim_HTML.html#3,3,1519,753,1536,864,7-20-2021,22-32-47,65,,,,,,,1571,504,1010,992,1004,504,,2,2,depth_discrimination_stimuli/002630_2014-06-24_14-47-50_094959634447_rgbf000055-resize_1/002630_2014-06-24_14-47-50_094959634447_rgbf000055-resize-original.jpg,4341,1551468,1747787,27
788965,DepthScenes,duration_discrimination,discrim_jsons/shuffled_g0_rotated.json,http://54.89.209.186/DepthDuration/depth_discrimination_MTurk/DepthDiscrim_HTML.html#3,3,1519,753,1536,864,7-20-2021,22-32-47,66,,,,,,,1571,504,1010,992,1004,504,,2,4,depth_discrimination_stimuli/001810_2014-06-26_20-51-35_260595134347_rgbf000040-resize_3/001810_2014-06-26_20-51-35_260595134347_rgbf000040-resize-original.jpg,8013,1551468,1747787,27
788965,DepthScenes,duration_discrimination,discrim_jsons/shuffled_g0_rotated.json,http://54.89.209.186/DepthDuration/depth_discrimination_MTurk/DepthDiscrim_HTML.html#3,3,1519,753,1536,864,7-20-2021,22-32-47,67,,,,,,,1571,504,1010,992,1004,504,,3,3,depth_discrimination_stimuli/002663_2014-06-13_15-50-26_094959634447_rgbf000075-resize_1/002663_2014-06-13_15-50-26_094959634447_rgbf000075-resize-original.jpg,4001,1551468,1747787,27
788965,DepthScenes,duration_discrimination,discrim_jsons/shuffled_g0_rotated.json,http://54.89.209.186/DepthDuration/depth_discrimination_MTurk/DepthDiscrim_HTML.html#3,3,1519,753,1536,864,7-20-2021,22-32-47,68,,,,,,,1571,504,1010,992,1004,504,,4,2,depth_discrimination_stimuli/002657_2014-06-13_15-29-54_094959634447_rgbf000150-resize_1/002657_2014-06-13_15-29-54_094959634447_rgbf000150-resize-original.jpg,24882,1551468,1747787,27
788965,DepthScenes,duration_discrimination,discrim_jsons/shuffled_g0_rotated.json,http://54.89.209.186/DepthDuration/depth_discrimination_MTurk/DepthDiscrim_HTML.html#3,3,1519,753,1536,864,7-20-2021,22-32-47,69,,,,,,,1571,504,1010,992,1004,504,,4,3,depth_discrimination_stimuli/000486_2014-06-09_20-47-20_260595134347_rgbf000143-resize_2/000486_2014-06-09_20-47-20_260595134347_rgbf000143-resize-original.jpg,4279,1551468,1747787,27
788965,DepthScenes,duration_discrimination,discrim_jsons/shuffled_g0_rotated.json,http://54.89.209.186/DepthDuration/depth_discrimination_MTurk/DepthDiscrim_HTML.html#3,3,1519,753,1536,864,7-20-2021,22-32-47,70,,,,,,,1571,504,1010,992,1004,504,,4,2,depth_discrimination_stimuli/002579_2014-06-24_14-08-03_094959634447_rgbf000061-resize_2/002579_2014-06-24_14-08-03_094959634447_rgbf000061-resize-original.jpg,3304,1551468,1747787,27
788965,DepthScenes,duration_discrimination,discrim_jsons/shuffled_g0_rotated.json,http://54.89.209.186/DepthDuration/depth_discrimination_MTurk/DepthDiscrim_HTML.html#3,3,1519,753,1536,864,7-20-2021,22-32-47,71,,,,,,,1571,504,1010,992,1004,504,,3,2,depth_discrimination_stimuli/002444_2014-06-28_20-32-08_260595134347_rgbf000027-resize_0/002444_2014-06-28_20-32-08_260595134347_rgbf000027-resize-original.jpg,6384,1551468,1747787,27
788965,DepthScenes,duration_discrimination,discrim_jsons/shuffled_g0_rotated.json,http://54.89.209.186/DepthDuration/depth_discrimination_MTurk/DepthDiscrim_HTML.html#3,3,1519,753,1536,864,7-20-2021,22-32-47,72,,,,,,,1571,504,1010,992,1004,504,,3,3,depth_discrimination_stimuli/002272_2014-06-28_18-53-56_260595134347_rgbf000067-resize_2/002272_2014-06-28_18-53-56_260595134347_rgbf000067-resize-original.jpg,4308,1551468,1747787,27
788965,DepthScenes,duration_discrimination,discrim_jsons/shuffled_g0_rotated.json,http://54.89.209.186/DepthDuration/depth_discrimination_MTurk/DepthDiscrim_HTML.html#3,3,1519,753,1536,864,7-20-2021,22-32-47,73,,,,,,,1571,504,1010,992,1004,504,,5,5,depth_discrimination_stimuli/002445_2014-06-28_20-32-16_260595134347_rgbf000029-resize_4/002445_2014-06-28_20-32-16_260595134347_rgbf000029-resize-original.jpg,7556,1551468,1747787,27
788965,DepthScenes,duration_discrimination,discrim_jsons/shuffled_g0_rotated.json,http://54.89.209.186/DepthDuration/depth_discrimination_MTurk/DepthDiscrim_HTML.html#3,3,1519,753,1536,864,7-20-2021,22-32-47,74,,,,,,,1571,504,1010,992,1004,504,,2,3,depth_discrimination_stimuli/000878_2014-06-08_22-52-45_260595134347_rgbf000045-resize_2/000878_2014-06-08_22-52-45_260595134347_rgbf000045-resize-original.jpg,4019,1551468,1747787,27
788965,DepthScenes,duration_discrimination,discrim_jsons/shuffled_g0_rotated.json,http://54.89.209.186/DepthDuration/depth_discrimination_MTurk/DepthDiscrim_HTML.html#3,3,1519,753,1536,864,7-20-2021,22-32-47,75,,,,,,,1571,504,1010,992,1004,504,,2,4,depth_discrimination_stimuli/001808_2014-06-26_20-50-58_260595134347_rgbf000029-resize_1/001808_2014-06-26_20-50-58_260595134347_rgbf000029-resize-original.jpg,2989,1551468,1747787,27
788965,DepthScenes,duration_discrimination,discrim_jsons/shuffled_g0_rotated.json,http://54.89.209.186/DepthDuration/depth_discrimination_MTurk/DepthDiscrim_HTML.html#3,3,1519,753,1536,864,7-20-2021,22-32-47,76,,,,,,,1571,504,1010,992,1004,504,,3,2,depth_discrimination_stimuli/001289_2014-06-16_16-25-52_260595134347_rgbf000067-resize_1/001289_2014-06-16_16-25-52_260595134347_rgbf000067-resize-original.jpg,2875,1551468,1747787,27
788965,DepthScenes,duration_discrimination,discrim_jsons/shuffled_g0_rotated.json,http://54.89.209.186/DepthDuration/depth_discrimination_MTurk/DepthDiscrim_HTML.html#3,3,1519,753,1536,864,7-20-2021,22-32-47,77,,,,,,,1571,504,1010,992,1004,504,,4,2,depth_discrimination_stimuli/002758_2014-06-22_19-11-20_094959634447_rgbf000128-resize_1/002758_2014-06-22_19-11-20_094959634447_rgbf000128-resize-original.jpg,3178,1551468,1747787,27
788965,DepthScenes,duration_discrimination,discrim_jsons/shuffled_g0_rotated.json,http://54.89.209.186/DepthDuration/depth_discrimination_MTurk/DepthDiscrim_HTML.html#3,3,1519,753,1536,864,7-20-2021,22-32-47,78,,,,,,,1571,504,1010,992,1004,504,,1,2,depth_discrimination_stimuli/003492_2014-05-21_15-50-55_094959634447_rgbf000828-resize_1/003492_2014-05-21_15-50-55_094959634447_rgbf000828-resize-original.jpg,21569,1551468,1747787,27
788965,DepthScenes,duration_discrimination,discrim_jsons/shuffled_g0_rotated.json,http://54.89.209.186/DepthDuration/depth_discrimination_MTurk/DepthDiscrim_HTML.html#3,3,1519,753,1536,864,7-20-2021,22-32-47,79,,,,,,,1571,504,1010,992,1004,504,,4,3,depth_discrimination_stimuli/000414_2014-06-04_19-49-13_260595134347_rgbf000044-resize_0/000414_2014-06-04_19-49-13_260595134347_rgbf000044-resize-original.jpg,4577,1551468,1747787,27
788965,DepthScenes,duration_discrimination,discrim_jsons/shuffled_g0_rotated.json,http://54.89.209.186/DepthDuration/depth_discrimination_MTurk/DepthDiscrim_HTML.html#3,3,1519,753,1536,864,7-20-2021,22-32-47,80,,,,,,,1571,504,1010,992,1004,504,,2,1,depth_discrimination_stimuli/001584_2014-06-20_11-07-43_260595134347_rgbf000002-resize_1/001584_2014-06-20_11-07-43_260595134347_rgbf000002-resize-original.jpg,7347,1551468,1747787,27
788965,DepthScenes,duration_discrimination,discrim_jsons/shuffled_g0_rotated.json,http://54.89.209.186/DepthDuration/depth_discrimination_MTurk/DepthDiscrim_HTML.html#3,3,1519,753,1536,864,7-20-2021,22-32-47,81,,,,,,,1571,504,1010,992,1004,504,,3,2,depth_discrimination_stimuli/003069_2014-06-15_14-57-50_094959634447_rgbf000150-resize_4/003069_2014-06-15_14-57-50_094959634447_rgbf000150-resize-original.jpg,6351,1551468,1747787,27
788965,DepthScenes,duration_discrimination,discrim_jsons/shuffled_g0_rotated.json,http://54.89.209.186/DepthDuration/depth_discrimination_MTurk/DepthDiscrim_HTML.html#3,3,1519,753,1536,864,7-20-2021,22-32-47,82,,,,,,,1571,504,1010,992,1004,504,,2,4,depth_discrimination_stimuli/002568_2014-06-24_13-59-21_094959634447_rgbf000062-resize_4/002568_2014-06-24_13-59-21_094959634447_rgbf000062-resize-original.jpg,4409,1551468,1747787,27
788965,DepthScenes,duration_discrimination,discrim_jsons/shuffled_g0_rotated.json,http://54.89.209.186/DepthDuration/depth_discrimination_MTurk/DepthDiscrim_HTML.html#3,3,1519,753,1536,864,7-20-2021,22-32-47,83,,,,,,,1571,504,1010,992,1004,504,,3,4,depth_discrimination_stimuli/003083_2014-06-15_15-21-03_094959634447_rgbf000063-resize_1/003083_2014-06-15_15-21-03_094959634447_rgbf000063-resize-original.jpg,4927,1551468,1747787,27
788965,DepthScenes,duration_discrimination,discrim_jsons/shuffled_g0_rotated.json,http://54.89.209.186/DepthDuration/depth_discrimination_MTurk/DepthDiscrim_HTML.html#3,3,1519,753,1536,864,7-20-2021,22-32-47,84,,,,,,,1571,504,1010,992,1004,504,,2,4,depth_discrimination_stimuli/002467_2014-06-28_20-38-07_260595134347_rgbf000026-resize_2/002467_2014-06-28_20-38-07_260595134347_rgbf000026-resize-original.jpg,4262,1551468,1747787,27
788965,DepthScenes,duration_discrimination,discrim_jsons/shuffled_g0_rotated.json,http://54.89.209.186/DepthDuration/depth_discrimination_MTurk/DepthDiscrim_HTML.html#3,3,1519,753,1536,864,7-20-2021,22-32-47,85,,,,,,,1571,504,1010,992,1004,504,,3,3,depth_discrimination_stimuli/001617_2014-06-20_11-35-32_260595134347_rgbf000066-resize_1/001617_2014-06-20_11-35-32_260595134347_rgbf000066-resize-original.jpg,4728,1551468,1747787,27
788965,DepthScenes,duration_discrimination,discrim_jsons/shuffled_g0_rotated.json,http://54.89.209.186/DepthDuration/depth_discrimination_MTurk/DepthDiscrim_HTML.html#3,3,1519,753,1536,864,7-20-2021,22-32-47,86,,,,,,,1571,504,1010,992,1004,504,,4,5,depth_discrimination_stimuli/000555_2014-06-09_22-42-23_260595134347_rgbf000037-resize_4/000555_2014-06-09_22-42-23_260595134347_rgbf000037-resize-original.jpg,5754,1551468,1747787,27
788965,DepthScenes,duration_discrimination,discrim_jsons/shuffled_g0_rotated.json,http://54.89.209.186/DepthDuration/depth_discrimination_MTurk/DepthDiscrim_HTML.html#3,3,1519,753,1536,864,7-20-2021,22-32-47,87,,,,,,,1571,504,1010,992,1004,504,,4,3,depth_discrimination_stimuli/000483_2014-06-09_20-41-45_260595134347_rgbf000116-resize_4/000483_2014-06-09_20-41-45_260595134347_rgbf000116-resize-original.jpg,4449,1551468,1747787,27
788965,DepthScenes,duration_discrimination,discrim_jsons/shuffled_g0_rotated.json,http://54.89.209.186/DepthDuration/depth_discrimination_MTurk/DepthDiscrim_HTML.html#3,3,1519,753,1536,864,7-20-2021,22-32-47,88,,,,,,,1571,504,1010,992,1004,504,,2,4,depth_discrimination_stimuli/000735_2014-06-08_18-23-50_260595134347_rgbf000163-resize_2/000735_2014-06-08_18-23-50_260595134347_rgbf000163-resize-original.jpg,11794,1551468,1747787,27
788965,DepthScenes,duration_discrimination,discrim_jsons/shuffled_g0_rotated.json,http://54.89.209.186/DepthDuration/depth_discrimination_MTurk/DepthDiscrim_HTML.html#3,3,1519,753,1536,864,7-20-2021,22-32-47,89,,,,,,,1571,504,1010,992,1004,504,,5,5,scene_property_catch_stimuli/sun_aatxlublfjchvvzu.jpg,4720,1551468,1747787,27
788965,DepthScenes,duration_discrimination,discrim_jsons/shuffled_g0_rotated.json,http://54.89.209.186/DepthDuration/depth_discrimination_MTurk/DepthDiscrim_HTML.html#3,3,1519,753,1536,864,7-20-2021,22-32-47,90,,,,,,,1571,504,1010,992,1004,504,,1,3,depth_discrimination_stimuli/001450_2014-06-19_17-02-03_260595134347_rgbf000203-resize_4/001450_2014-06-19_17-02-03_260595134347_rgbf000203-resize-original.jpg,9013,1551468,1747787,27
788965,DepthScenes,duration_discrimination,discrim_jsons/shuffled_g0_rotated.json,http://54.89.209.186/DepthDuration/depth_discrimination_MTurk/DepthDiscrim_HTML.html#3,3,1519,753,1536,864,7-20-2021,22-32-47,91,,,,,,,1571,504,1010,992,1004,504,,5,4,depth_discrimination_stimuli/000549_2014-06-08_22-10-24_260595134347_rgbf000247-resize_3/000549_2014-06-08_22-10-24_260595134347_rgbf000247-resize-original.jpg,4796,1551468,1747787,27
788965,DepthScenes,duration_discrimination,discrim_jsons/shuffled_g0_rotated.json,http://54.89.209.186/DepthDuration/depth_discrimination_MTurk/DepthDiscrim_HTML.html#3,3,1519,753,1536,864,7-20-2021,22-32-47,92,,,,,,,1571,504,1010,992,1004,504,,5,5,depth_discrimination_stimuli/000736_2014-06-08_18-24-15_260595134347_rgbf000206-resize_3/000736_2014-06-08_18-24-15_260595134347_rgbf000206-resize-original.jpg,3279,1551468,1747787,27
788965,DepthScenes,duration_discrimination,discrim_jsons/shuffled_g0_rotated.json,http://54.89.209.186/DepthDuration/depth_discrimination_MTurk/DepthDiscrim_HTML.html#3,3,1519,753,1536,864,7-20-2021,22-32-47,93,,,,,,,1571,504,1010,992,1004,504,,1,2,depth_discrimination_stimuli/002763_2014-06-22_19-13-10_094959634447_rgbf000075-resize_4/002763_2014-06-22_19-13-10_094959634447_rgbf000075-resize-original.jpg,4672,1551468,1747787,27
788965,DepthScenes,duration_discrimination,discrim_jsons/shuffled_g0_rotated.json,http://54.89.209.186/DepthDuration/depth_discrimination_MTurk/DepthDiscrim_HTML.html#3,3,1519,753,1536,864,7-20-2021,22-32-47,94,,,,,,,1571,504,1010,992,1004,504,,2,3,depth_discrimination_stimuli/002748_2014-06-22_19-07-22_094959634447_rgbf000078-resize_1/002748_2014-06-22_19-07-22_094959634447_rgbf000078-resize-original.jpg,4113,1551468,1747787,27
788965,DepthScenes,duration_discrimination,discrim_jsons/shuffled_g0_rotated.json,http://54.89.209.186/DepthDuration/depth_discrimination_MTurk/DepthDiscrim_HTML.html#3,3,1519,753,1536,864,7-20-2021,22-32-47,95,,,,,,,1571,504,1010,992,1004,504,,2,2,depth_discrimination_stimuli/000542_2014-06-08_18-27-08_260595134347_rgbf000118-resize_1/000542_2014-06-08_18-27-08_260595134347_rgbf000118-resize-original.jpg,3097,1551468,1747787,27
788965,DepthScenes,duration_discrimination,discrim_jsons/shuffled_g0_rotated.json,http://54.89.209.186/DepthDuration/depth_discrimination_MTurk/DepthDiscrim_HTML.html#3,3,1519,753,1536,864,7-20-2021,22-32-47,96,,,,,,,1571,504,1010,992,1004,504,,3,2,depth_discrimination_stimuli/001136_2014-06-17_15-19-41_260595134347_rgbf000076-resize_3/001136_2014-06-17_15-19-41_260595134347_rgbf000076-resize-original.jpg,5905,1551468,1747787,27
788965,DepthScenes,duration_discrimination,discrim_jsons/shuffled_g0_rotated.json,http://54.89.209.186/DepthDuration/depth_discrimination_MTurk/DepthDiscrim_HTML.html#3,3,1519,753,1536,864,7-20-2021,22-32-47,97,,,,,,,1571,504,1010,992,1004,504,,3,1,scene_property_catch_stimuli/000675_2014-06-08_22-59-18_260595134347_rgbf000096-resize.jpg,6001,1551468,1747787,27
788965,DepthScenes,duration_discrimination,discrim_jsons/shuffled_g0_rotated.json,http://54.89.209.186/DepthDuration/depth_discrimination_MTurk/DepthDiscrim_HTML.html#3,3,1519,753,1536,864,7-20-2021,22-32-47,98,,,,,,,1571,504,1010,992,1004,504,,3,4,depth_discrimination_stimuli/002700_2014-06-22_11-27-02_094959634447_rgbf000124-resize_3/002700_2014-06-22_11-27-02_094959634447_rgbf000124-resize-original.jpg,4712,1551468,1747787,27
788965,DepthScenes,duration_discrimination,discrim_jsons/shuffled_g0_rotated.json,http://54.89.209.186/DepthDuration/depth_discrimination_MTurk/DepthDiscrim_HTML.html#3,3,1519,753,1536,864,7-20-2021,22-32-47,99,,,,,,,1571,504,1010,992,1004,504,,4,4,depth_discrimination_stimuli/000642_2014-06-08_16-59-25_260595134347_rgbf000098-resize_2/000642_2014-06-08_16-59-25_260595134347_rgbf000098-resize-original.jpg,3967,1551468,1747787,27
788965,DepthScenes,duration_discrimination,discrim_jsons/shuffled_g0_rotated.json,http://54.89.209.186/DepthDuration/depth_discrimination_MTurk/DepthDiscrim_HTML.html#3,3,1519,753,1536,864,7-20-2021,22-32-47,100,,,,,,,1571,504,1010,992,1004,504,,3,2,depth_discrimination_stimuli/000409_2014-06-04_19-23-33_260595134347_rgbf000067-resize_0/000409_2014-06-04_19-23-33_260595134347_rgbf000067-resize-original.jpg,3083,1551468,1747787,27
788965,DepthScenes,duration_discrimination,discrim_jsons/shuffled_g0_rotated.json,http://54.89.209.186/DepthDuration/depth_discrimination_MTurk/DepthDiscrim_HTML.html#3,3,1519,753,1536,864,7-20-2021,22-32-47,101,,,,,,,1571,504,1010,992,1004,504,,3,2,depth_discrimination_stimuli/001059_2014-06-08_21-53-27_260595134347_rgbf000061-resize_4/001059_2014-06-08_21-53-27_260595134347_rgbf000061-resize-original.jpg,5480,1551468,1747787,27
788965,DepthScenes,duration_discrimination,discrim_jsons/shuffled_g0_rotated.json,http://54.89.209.186/DepthDuration/depth_discrimination_MTurk/DepthDiscrim_HTML.html#3,3,1519,753,1536,864,7-20-2021,22-32-47,102,,,,,,,1571,504,1010,992,1004,504,,4,2,depth_discrimination_stimuli/000742_2014-06-08_18-48-09_260595134347_rgbf000164-resize_4/000742_2014-06-08_18-48-09_260595134347_rgbf000164-resize-original.jpg,4921,1551468,1747787,27
788965,DepthScenes,duration_discrimination,discrim_jsons/shuffled_g0_rotated.json,http://54.89.209.186/DepthDuration/depth_discrimination_MTurk/DepthDiscrim_HTML.html#3,3,1519,753,1536,864,7-20-2021,22-32-47,103,,,,,,,1571,504,1010,992,1004,504,,3,2,depth_discrimination_stimuli/001235_2014-06-17_16-37-36_260595134347_rgbf000084-resize_4/001235_2014-06-17_16-37-36_260595134347_rgbf000084-resize-original.jpg,4352,1551468,1747787,27
788965,DepthScenes,duration_discrimination,discrim_jsons/shuffled_g0_rotated.json,http://54.89.209.186/DepthDuration/depth_discrimination_MTurk/DepthDiscrim_HTML.html#3,3,1519,753,1536,864,7-20-2021,22-32-47,104,,,,,,,1571,504,1010,992,1004,504,,4,2,depth_discrimination_stimuli/003079_2014-06-15_15-18-20_094959634447_rgbf000152-resize_8/003079_2014-06-15_15-18-20_094959634447_rgbf000152-resize-original.jpg,7643,1551468,1747787,27
788965,DepthScenes,duration_discrimination,discrim_jsons/shuffled_g0_rotated.json,http://54.89.209.186/DepthDuration/depth_discrimination_MTurk/DepthDiscrim_HTML.html#3,3,1519,753,1536,864,7-20-2021,22-32-47,105,,,,,,,1571,504,1010,992,1004,504,,2,1,depth_discrimination_stimuli/000691_2014-06-08_13-08-50_260595134347_rgbf000132-resize_3/000691_2014-06-08_13-08-50_260595134347_rgbf000132-resize-original.jpg,20497,1551468,1747787,27
788965,DepthScenes,duration_discrimination,discrim_jsons/shuffled_g0_rotated.json,http://54.89.209.186/DepthDuration/depth_discrimination_MTurk/DepthDiscrim_HTML.html#3,3,1519,753,1536,864,7-20-2021,22-32-47,106,,,,,,,1571,504,1010,992,1004,504,,3,4,depth_discrimination_stimuli/000830_2014-06-04_19-49-31_260595134347_rgbf000096-resize_2/000830_2014-06-04_19-49-31_260595134347_rgbf000096-resize-original.jpg,5833,1551468,1747787,27
788965,DepthScenes,duration_discrimination,discrim_jsons/shuffled_g0_rotated.json,http://54.89.209.186/DepthDuration/depth_discrimination_MTurk/DepthDiscrim_HTML.html#3,3,1519,753,1536,864,7-20-2021,22-32-47,107,,,,,,,1571,504,1010,992,1004,504,,4,2,depth_discrimination_stimuli/000457_2014-06-08_16-52-43_260595134347_rgbf000199-resize_1/000457_2014-06-08_16-52-43_260595134347_rgbf000199-resize-original.jpg,4276,1551468,1747787,27
788965,DepthScenes,duration_discrimination,discrim_jsons/shuffled_g0_rotated.json,http://54.89.209.186/DepthDuration/depth_discrimination_MTurk/DepthDiscrim_HTML.html#3,3,1519,753,1536,864,7-20-2021,22-32-47,108,,,,,,,1571,504,1010,992,1004,504,,2,4,depth_discrimination_stimuli/001052_2014-06-08_18-24-54_260595134347_rgbf000130-resize_1/001052_2014-06-08_18-24-54_260595134347_rgbf000130-resize-original.jpg,4391,1551468,1747787,27
788965,DepthScenes,duration_discrimination,discrim_jsons/shuffled_g0_rotated.json,http://54.89.209.186/DepthDuration/depth_discrimination_MTurk/DepthDiscrim_HTML.html#3,3,1519,753,1536,864,7-20-2021,22-32-47,109,,,,,,,1571,504,1010,992,1004,504,,3,5,depth_discrimination_stimuli/002305_2014-06-28_19-56-50_260595134347_rgbf000102-resize_7/002305_2014-06-28_19-56-50_260595134347_rgbf000102-resize-original.jpg,4297,1551468,1747787,27
788965,DepthScenes,duration_discrimination,discrim_jsons/shuffled_g0_rotated.json,http://54.89.209.186/DepthDuration/depth_discrimination_MTurk/DepthDiscrim_HTML.html#3,3,1519,753,1536,864,7-20-2021,22-32-47,110,,,,,,,1571,504,1010,992,1004,504,,5,3,scene_property_catch_stimuli/sun_aoquhiddlfqapdlz.jpg,5889,1551468,1747787,27
788965,DepthScenes,duration_discrimination,discrim_jsons/shuffled_g0_rotated.json,http://54.89.209.186/DepthDuration/depth_discrimination_MTurk/DepthDiscrim_HTML.html#3,3,1519,753,1536,864,7-20-2021,22-32-47,111,,,,,,,1571,504,1010,992,1004,504,,1,1,depth_discrimination_stimuli/000869_2014-06-09_20-50-18_260595134347_rgbf000060-resize_3/000869_2014-06-09_20-50-18_260595134347_rgbf000060-resize-original.jpg,6395,1551468,1747787,27
788965,DepthScenes,duration_discrimination,discrim_jsons/shuffled_g0_rotated.json,http://54.89.209.186/DepthDuration/depth_discrimination_MTurk/DepthDiscrim_HTML.html#3,3,1519,753,1536,864,7-20-2021,22-32-47,112,,,,,,,1571,504,1010,992,1004,504,,3,2,depth_discrimination_stimuli/000665_2014-06-09_20-42-35_260595134347_rgbf000110-resize_1/000665_2014-06-09_20-42-35_260595134347_rgbf000110-resize-original.jpg,3772,1551468,1747787,27
788965,DepthScenes,duration_discrimination,discrim_jsons/shuffled_g0_rotated.json,http://54.89.209.186/DepthDuration/depth_discrimination_MTurk/DepthDiscrim_HTML.html#3,3,1519,753,1536,864,7-20-2021,22-32-47,113,,,,,,,1571,504,1010,992,1004,504,,5,3,depth_discrimination_stimuli/000692_2014-06-08_13-09-42_260595134347_rgbf000199-resize_2/000692_2014-06-08_13-09-42_260595134347_rgbf000199-resize-original.jpg,8828,1551468,1747787,27
788965,DepthScenes,duration_discrimination,discrim_jsons/shuffled_g0_rotated.json,http://54.89.209.186/DepthDuration/depth_discrimination_MTurk/DepthDiscrim_HTML.html#3,3,1519,753,1536,864,7-20-2021,22-32-47,114,,,,,,,1571,504,1010,992,1004,504,,3,2,depth_discrimination_stimuli/003534_2014-05-22_15-06-10_094959634447_rgbf000102-resize_4/003534_2014-05-22_15-06-10_094959634447_rgbf000102-resize-original.jpg,4612,1551468,1747787,27
788965,DepthScenes,duration_discrimination,discrim_jsons/shuffled_g0_rotated.json,http://54.89.209.186/DepthDuration/depth_discrimination_MTurk/DepthDiscrim_HTML.html#3,3,1519,753,1536,864,7-20-2021,22-32-47,115,,,,,,,1571,504,1010,992,1004,504,,5,4,depth_discrimination_stimuli/001724_2014-06-26_19-28-50_260595134347_rgbf000037-resize_7/001724_2014-06-26_19-28-50_260595134347_rgbf000037-resize-original.jpg,5824,1551468,1747787,27
788965,DepthScenes,duration_discrimination,discrim_jsons/shuffled_g0_rotated.json,http://54.89.209.186/DepthDuration/depth_discrimination_MTurk/DepthDiscrim_HTML.html#3,3,1519,753,1536,864,7-20-2021,22-32-47,116,,,,,,,1571,504,1010,992,1004,504,,4,2,depth_discrimination_stimuli/002790_2014-06-22_19-36-35_094959634447_rgbf000074-resize_4/002790_2014-06-22_19-36-35_094959634447_rgbf000074-resize-original.jpg,3819,1551468,1747787,27
788965,DepthScenes,duration_discrimination,discrim_jsons/shuffled_g0_rotated.json,http://54.89.209.186/DepthDuration/depth_discrimination_MTurk/DepthDiscrim_HTML.html#3,3,1519,753,1536,864,7-20-2021,22-32-47,117,,,,,,,1571,504,1010,992,1004,504,,4,3,depth_discrimination_stimuli/002365_2014-06-28_20-11-21_260595134347_rgbf000102-resize_1/002365_2014-06-28_20-11-21_260595134347_rgbf000102-resize-original.jpg,3237,1551468,1747787,27
788965,DepthScenes,duration_discrimination,discrim_jsons/shuffled_g0_rotated.json,http://54.89.209.186/DepthDuration/depth_discrimination_MTurk/DepthDiscrim_HTML.html#3,3,1519,753,1536,864,7-20-2021,22-32-47,118,,,,,,,1571,504,1010,992,1004,504,,3,2,depth_discrimination_stimuli/002805_2014-06-22_19-54-03_094959634447_rgbf000079-resize_1/002805_2014-06-22_19-54-03_094959634447_rgbf000079-resize-original.jpg,4784,1551468,1747787,27
788965,DepthScenes,duration_discrimination,discrim_jsons/shuffled_g0_rotated.json,http://54.89.209.186/DepthDuration/depth_discrimination_MTurk/DepthDiscrim_HTML.html#3,3,1519,753,1536,864,7-20-2021,22-32-47,119,,,,,,,1571,504,1010,992,1004,504,,3,2,depth_discrimination_stimuli/001132_2014-06-17_14-48-54_260595134347_rgbf000100-resize_2/001132_2014-06-17_14-48-54_260595134347_rgbf000100-resize-original.jpg,13906,1551468,1747787,27
788965,DepthScenes,duration_discrimination,discrim_jsons/shuffled_g0_rotated.json,http://54.89.209.186/DepthDuration/depth_discrimination_MTurk/DepthDiscrim_HTML.html#3,3,1519,753,1536,864,7-20-2021,22-32-47,120,,,,,,,1571,504,1010,992,1004,504,,3,4,depth_discrimination_stimuli/000436_2014-06-09_22-25-11_260595134347_rgbf000137-resize_1/000436_2014-06-09_22-25-11_260595134347_rgbf000137-resize-original.jpg,25910,1551468,1747787,27
788965,DepthScenes,duration_discrimination,discrim_jsons/shuffled_g0_rotated.json,http://54.89.209.186/DepthDuration/depth_discrimination_MTurk/DepthDiscrim_HTML.html#3,3,1519,753,1536,864,7-20-2021,22-32-47,121,,,,,,,1571,504,1010,992,1004,504,,4,3,depth_discrimination_stimuli/000522_2014-06-08_13-35-06_260595134347_rgbf000244-resize_1/000522_2014-06-08_13-35-06_260595134347_rgbf000244-resize-original.jpg,5980,1551468,1747787,27
788965,DepthScenes,duration_discrimination,discrim_jsons/shuffled_g0_rotated.json,http://54.89.209.186/DepthDuration/depth_discrimination_MTurk/DepthDiscrim_HTML.html#3,3,1519,753,1536,864,7-20-2021,22-32-47,122,,,,,,,1571,504,1010,992,1004,504,,1,3,depth_discrimination_stimuli/000709_2014-06-08_13-51-55_260595134347_rgbf000068-resize_3/000709_2014-06-08_13-51-55_260595134347_rgbf000068-resize-original.jpg,19971,1551468,1747787,27
788965,DepthScenes,duration_discrimination,discrim_jsons/shuffled_g0_rotated.json,http://54.89.209.186/DepthDuration/depth_discrimination_MTurk/DepthDiscrim_HTML.html#3,3,1519,753,1536,864,7-20-2021,22-32-47,123,,,,,,,1571,504,1010,992,1004,504,,2,4,depth_discrimination_stimuli/001815_2014-06-26_20-52-55_260595134347_rgbf000020-resize_0/001815_2014-06-26_20-52-55_260595134347_rgbf000020-resize-original.jpg,20910,1551468,1747787,27
788965,DepthScenes,duration_discrimination,discrim_jsons/shuffled_g0_rotated.json,http://54.89.209.186/DepthDuration/depth_discrimination_MTurk/DepthDiscrim_HTML.html#3,3,1519,753,1536,864,7-20-2021,22-32-47,124,,,,,,,1571,504,1010,992,1004,504,,1,2,depth_discrimination_stimuli/001516_2014-06-20_16-25-09_260595134347_rgbf000076-resize_2/001516_2014-06-20_16-25-09_260595134347_rgbf000076-resize-original.jpg,5042,1551468,1747787,27
788965,DepthScenes,duration_discrimination,discrim_jsons/shuffled_g0_rotated.json,http://54.89.209.186/DepthDuration/depth_discrimination_MTurk/DepthDiscrim_HTML.html#3,3,1519,753,1536,864,7-20-2021,22-32-47,125,,,,,,,1571,504,1010,992,1004,504,,1,3,depth_discrimination_stimuli/002987_2014-06-08_18-48-20_094959634447_rgbf000022-resize_0/002987_2014-06-08_18-48-20_094959634447_rgbf000022-resize-original.jpg,5208,1551468,1747787,27
788965,DepthScenes,duration_discrimination,discrim_jsons/shuffled_g0_rotated.json,http://54.89.209.186/DepthDuration/depth_discrimination_MTurk/DepthDiscrim_HTML.html#3,3,1519,753,1536,864,7-20-2021,22-32-47,126,,,,,,,1571,504,1010,992,1004,504,,1,3,depth_discrimination_stimuli/001055_2014-06-08_18-45-35_260595134347_rgbf000111-resize_4/001055_2014-06-08_18-45-35_260595134347_rgbf000111-resize-original.jpg,5721,1551468,1747787,27
788965,DepthScenes,duration_discrimination,discrim_jsons/shuffled_g0_rotated.json,http://54.89.209.186/DepthDuration/depth_discrimination_MTurk/DepthDiscrim_HTML.html#3,3,1519,753,1536,864,7-20-2021,22-32-47,127,,,,,,,1571,504,1010,992,1004,504,,4,3,depth_discrimination_stimuli/001175_2014-06-17_15-45-55_260595134347_rgbf000129-resize_4/001175_2014-06-17_15-45-55_260595134347_rgbf000129-resize-original.jpg,4121,1551468,1747787,27
788965,DepthScenes,duration_discrimination,discrim_jsons/shuffled_g0_rotated.json,http://54.89.209.186/DepthDuration/depth_discrimination_MTurk/DepthDiscrim_HTML.html#3,3,1519,753,1536,864,7-20-2021,22-32-47,128,,,,,,,1571,504,1010,992,1004,504,,3,3,depth_discrimination_stimuli/001449_2014-06-19_17-01-27_260595134347_rgbf000116-resize_2/001449_2014-06-19_17-01-27_260595134347_rgbf000116-resize-original.jpg,3744,1551468,1747787,27
788965,DepthScenes,duration_discrimination,discrim_jsons/shuffled_g0_rotated.json,http://54.89.209.186/DepthDuration/depth_discrimination_MTurk/DepthDiscrim_HTML.html#3,3,1519,753,1536,864,7-20-2021,22-32-47,129,,,,,,,1571,504,1010,992,1004,504,,4,3,depth_discrimination_stimuli/001029_2014-06-08_13-17-57_260595134347_rgbf000065-resize_1/001029_2014-06-08_13-17-57_260595134347_rgbf000065-resize-original.jpg,4366,1551468,1747787,27
788965,DepthScenes,duration_discrimination,discrim_jsons/shuffled_g0_rotated.json,http://54.89.209.186/DepthDuration/depth_discrimination_MTurk/DepthDiscrim_HTML.html#3,3,1519,753,1536,864,7-20-2021,22-32-47,130,,,,,,,1571,504,1010,992,1004,504,,1,3,depth_discrimination_stimuli/000866_2014-06-09_20-45-42_260595134347_rgbf000139-resize_1/000866_2014-06-09_20-45-42_260595134347_rgbf000139-resize-original.jpg,3765,1551468,1747787,27
788965,DepthScenes,duration_discrimination,discrim_jsons/shuffled_g0_rotated.json,http://54.89.209.186/DepthDuration/depth_discrimination_MTurk/DepthDiscrim_HTML.html#3,3,1519,753,1536,864,7-20-2021,22-32-47,131,,,,,,,1571,504,1010,992,1004,504,,5,4,depth_discrimination_stimuli/002344_2014-06-28_20-06-29_260595134347_rgbf000030-resize_1/002344_2014-06-28_20-06-29_260595134347_rgbf000030-resize-original.jpg,4645,1551468,1747787,27
788965,DepthScenes,duration_discrimination,discrim_jsons/shuffled_g0_rotated.json,http://54.89.209.186/DepthDuration/depth_discrimination_MTurk/DepthDiscrim_HTML.html#3,3,1519,753,1536,864,7-20-2021,22-32-47,132,,,,,,,1571,504,1010,992,1004,504,,4,3,depth_discrimination_stimuli/003546_2014-05-22_15-48-53_094959634447_rgbf004816-resize_3/003546_2014-05-22_15-48-53_094959634447_rgbf004816-resize-original.jpg,4385,1551468,1747787,27
788965,DepthScenes,duration_discrimination,discrim_jsons/shuffled_g0_rotated.json,http://54.89.209.186/DepthDuration/depth_discrimination_MTurk/DepthDiscrim_HTML.html#3,3,1519,753,1536,864,7-20-2021,22-32-47,133,,,,,,,1571,504,1010,992,1004,504,,4,2,depth_discrimination_stimuli/000191_2014-05-12_17-07-38_260595134347_rgbf000199-resize_0/000191_2014-05-12_17-07-38_260595134347_rgbf000199-resize-original.jpg,5979,1551468,1747787,27
788965,DepthScenes,duration_discrimination,discrim_jsons/shuffled_g0_rotated.json,http://54.89.209.186/DepthDuration/depth_discrimination_MTurk/DepthDiscrim_HTML.html#3,3,1519,753,1536,864,7-20-2021,22-32-47,134,,,,,,,1571,504,1010,992,1004,504,,3,2,depth_discrimination_stimuli/003070_2014-06-15_14-58-27_094959634447_rgbf000150-resize_3/003070_2014-06-15_14-58-27_094959634447_rgbf000150-resize-original.jpg,6626,1551468,1747787,27
788965,DepthScenes,duration_discrimination,discrim_jsons/shuffled_g0_rotated.json,http://54.89.209.186/DepthDuration/depth_discrimination_MTurk/DepthDiscrim_HTML.html#3,3,1519,753,1536,864,7-20-2021,22-32-47,135,,,,,,,1571,504,1010,992,1004,504,,3,3,depth_discrimination_stimuli/002995_2014-06-15_12-31-26_094959634447_rgbf000150-resize_1/002995_2014-06-15_12-31-26_094959634447_rgbf000150-resize-original.jpg,6177,1551468,1747787,27
788965,DepthScenes,duration_discrimination,discrim_jsons/shuffled_g0_rotated.json,http://54.89.209.186/DepthDuration/depth_discrimination_MTurk/DepthDiscrim_HTML.html#3,3,1519,753,1536,864,7-20-2021,22-32-47,136,,,,,,,1571,504,1010,992,1004,504,,4,3,depth_discrimination_stimuli/002153_2014-06-25_21-27-18_260595134347_rgbf000038-resize_5/002153_2014-06-25_21-27-18_260595134347_rgbf000038-resize-original.jpg,4392,1551468,1747787,27
788965,DepthScenes,duration_discrimination,discrim_jsons/shuffled_g0_rotated.json,http://54.89.209.186/DepthDuration/depth_discrimination_MTurk/DepthDiscrim_HTML.html#3,3,1519,753,1536,864,7-20-2021,22-32-47,137,,,,,,,1571,504,1010,992,1004,504,,1,2,depth_discrimination_stimuli/001532_2014-06-20_16-50-41_260595134347_rgbf000081-resize_4/001532_2014-06-20_16-50-41_260595134347_rgbf000081-resize-original.jpg,3420,1551468,1747787,27
788965,DepthScenes,duration_discrimination,discrim_jsons/shuffled_g0_rotated.json,http://54.89.209.186/DepthDuration/depth_discrimination_MTurk/DepthDiscrim_HTML.html#3,3,1519,753,1536,864,7-20-2021,22-32-47,138,,,,,,,1571,504,1010,992,1004,504,,4,2,depth_discrimination_stimuli/000470_2014-06-09_19-42-40_260595134347_rgbf000094-resize_1/000470_2014-06-09_19-42-40_260595134347_rgbf000094-resize-original.jpg,5569,1551468,1747787,27
788965,DepthScenes,duration_discrimination,discrim_jsons/shuffled_g0_rotated.json,http://54.89.209.186/DepthDuration/depth_discrimination_MTurk/DepthDiscrim_HTML.html#3,3,1519,753,1536,864,7-20-2021,22-32-47,139,,,,,,,1571,504,1010,992,1004,504,,2,4,depth_discrimination_stimuli/003048_2014-06-15_13-49-43_094959634447_rgbf000150-resize_1/003048_2014-06-15_13-49-43_094959634447_rgbf000150-resize-original.jpg,6251,1551468,1747787,27
788965,DepthScenes,duration_discrimination,discrim_jsons/shuffled_g0_rotated.json,http://54.89.209.186/DepthDuration/depth_discrimination_MTurk/DepthDiscrim_HTML.html#3,3,1519,753,1536,864,7-20-2021,22-32-47,140,,,,,,,1571,504,1010,992,1004,504,,1,1,depth_discrimination_stimuli/002784_2014-06-22_19-26-30_094959634447_rgbf000083-resize_3/002784_2014-06-22_19-26-30_094959634447_rgbf000083-resize-original.jpg,4530,1551468,1747787,27
788965,DepthScenes,duration_discrimination,discrim_jsons/shuffled_g0_rotated.json,http://54.89.209.186/DepthDuration/depth_discrimination_MTurk/DepthDiscrim_HTML.html#3,3,1519,753,1536,864,7-20-2021,22-32-47,141,,,,,,,1571,504,1010,992,1004,504,,3,4,depth_discrimination_stimuli/002136_2014-06-25_21-18-03_260595134347_rgbf000109-resize_3/002136_2014-06-25_21-18-03_260595134347_rgbf000109-resize-original.jpg,4636,1551468,1747787,27
788965,DepthScenes,duration_discrimination,discrim_jsons/shuffled_g0_rotated.json,http://54.89.209.186/DepthDuration/depth_discrimination_MTurk/DepthDiscrim_HTML.html#3,3,1519,753,1536,864,7-20-2021,22-32-47,142,,,,,,,1571,504,1010,992,1004,504,,4,4,depth_discrimination_stimuli/001570_2014-06-20_17-21-09_260595134347_rgbf000135-resize_4/001570_2014-06-20_17-21-09_260595134347_rgbf000135-resize-original.jpg,5537,1551468,1747787,27
788965,DepthScenes,duration_discrimination,discrim_jsons/shuffled_g0_rotated.json,http://54.89.209.186/DepthDuration/depth_discrimination_MTurk/DepthDiscrim_HTML.html#3,3,1519,753,1536,864,7-20-2021,22-32-47,143,,,,,,,1571,504,1010,992,1004,504,,3,3,depth_discrimination_stimuli/003092_2014-06-24_21-01-49_094959634447_rgbf000049-resize_2/003092_2014-06-24_21-01-49_094959634447_rgbf000049-resize-original.jpg,4195,1551468,1747787,27
788965,DepthScenes,duration_discrimination,discrim_jsons/shuffled_g0_rotated.json,http://54.89.209.186/DepthDuration/depth_discrimination_MTurk/DepthDiscrim_HTML.html#3,3,1519,753,1536,864,7-20-2021,22-32-47,144,,,,,,,1571,504,1010,992,1004,504,,4,2,depth_discrimination_stimuli/002209_2014-06-28_18-36-10_260595134347_rgbf000051-resize_1/002209_2014-06-28_18-36-10_260595134347_rgbf000051-resize-original.jpg,6366,1551468,1747787,27
788965,DepthScenes,duration_discrimination,discrim_jsons/shuffled_g0_rotated.json,http://54.89.209.186/DepthDuration/depth_discrimination_MTurk/DepthDiscrim_HTML.html#3,3,1519,753,1536,864,7-20-2021,22-32-47,145,,,,,,,1571,504,1010,992,1004,504,,3,2,depth_discrimination_stimuli/001110_2014-06-15_17-25-28_260595134347_rgbf000150-resize_1/001110_2014-06-15_17-25-28_260595134347_rgbf000150-resize-original.jpg,10731,1551468,1747787,27
788965,DepthScenes,duration_discrimination,discrim_jsons/shuffled_g0_rotated.json,http://54.89.209.186/DepthDuration/depth_discrimination_MTurk/DepthDiscrim_HTML.html#3,3,1519,753,1536,864,7-20-2021,22-32-47,146,,,,,,,1571,504,1010,992,1004,504,,3,3,depth_discrimination_stimuli/003288_2014-05-14_21-50-30_094959634447_rgbf000028-resize_3/003288_2014-05-14_21-50-30_094959634447_rgbf000028-resize-original.jpg,5240,1551468,1747787,27
788965,DepthScenes,duration_discrimination,discrim_jsons/shuffled_g0_rotated.json,http://54.89.209.186/DepthDuration/depth_discrimination_MTurk/DepthDiscrim_HTML.html#3,3,1519,753,1536,864,7-20-2021,22-32-47,147,,,,,,,1571,504,1010,992,1004,504,,3,2,depth_discrimination_stimuli/001164_2014-06-17_15-35-46_260595134347_rgbf000085-resize_3/001164_2014-06-17_15-35-46_260595134347_rgbf000085-resize-original.jpg,7219,1551468,1747787,27
788965,DepthScenes,duration_discrimination,discrim_jsons/shuffled_g0_rotated.json,http://54.89.209.186/DepthDuration/depth_discrimination_MTurk/DepthDiscrim_HTML.html#3,3,1519,753,1536,864,7-20-2021,22-32-47,148,,,,,,,1571,504,1010,992,1004,504,,2,4,depth_discrimination_stimuli/001197_2014-06-17_16-01-50_260595134347_rgbf000103-resize_4/001197_2014-06-17_16-01-50_260595134347_rgbf000103-resize-original.jpg,13178,1551468,1747787,27
788965,DepthScenes,duration_discrimination,discrim_jsons/shuffled_g0_rotated.json,http://54.89.209.186/DepthDuration/depth_discrimination_MTurk/DepthDiscrim_HTML.html#3,3,1519,753,1536,864,7-20-2021,22-32-47,149,,,,,,,1571,504,1010,992,1004,504,,3,4,depth_discrimination_stimuli/003228_2014-05-14_13-42-35_094959634447_rgbf000101-resize_1/003228_2014-05-14_13-42-35_094959634447_rgbf000101-resize-original.jpg,10423,1551468,1747787,27
788965,DepthScenes,duration_discrimination,discrim_jsons/shuffled_g0_rotated.json,http://54.89.209.186/DepthDuration/depth_discrimination_MTurk/DepthDiscrim_HTML.html#3,3,1519,753,1536,864,7-20-2021,22-32-47,150,,,,,,,1571,504,1010,992,1004,504,,3,2,depth_discrimination_stimuli/003495_2014-05-21_16-01-51_094959634447_rgbf000100-resize_3/003495_2014-05-21_16-01-51_094959634447_rgbf000100-resize-original.jpg,3738,1551468,1747787,27
788965,DepthScenes,duration_discrimination,discrim_jsons/shuffled_g0_rotated.json,http://54.89.209.186/DepthDuration/depth_discrimination_MTurk/DepthDiscrim_HTML.html#3,3,1519,753,1536,864,7-20-2021,22-32-47,151,,,,,,,1571,504,1010,992,1004,504,,3,3,depth_discrimination_stimuli/002425_2014-06-28_20-27-29_260595134347_rgbf000031-resize_8/002425_2014-06-28_20-27-29_260595134347_rgbf000031-resize-original.jpg,3945,1551468,1747787,27
788965,DepthScenes,duration_discrimination,discrim_jsons/shuffled_g0_rotated.json,http://54.89.209.186/DepthDuration/depth_discrimination_MTurk/DepthDiscrim_HTML.html#3,3,1519,753,1536,864,7-20-2021,22-32-47,152,,,,,,,1571,504,1010,992,1004,504,,2,4,depth_discrimination_stimuli/001555_2014-06-20_17-12-10_260595134347_rgbf000065-resize_4/001555_2014-06-20_17-12-10_260595134347_rgbf000065-resize-original.jpg,5096,1551468,1747787,27
788965,DepthScenes,duration_discrimination,discrim_jsons/shuffled_g0_rotated.json,http://54.89.209.186/DepthDuration/depth_discrimination_MTurk/DepthDiscrim_HTML.html#3,3,1519,753,1536,864,7-20-2021,22-32-47,153,,,,,,,1571,504,1010,992,1004,504,,5,4,depth_discrimination_stimuli/002375_2014-06-28_20-13-44_260595134347_rgbf000032-resize_1/002375_2014-06-28_20-13-44_260595134347_rgbf000032-resize-original.jpg,4755,1551468,1747787,27
788965,DepthScenes,duration_discrimination,discrim_jsons/shuffled_g0_rotated.json,http://54.89.209.186/DepthDuration/depth_discrimination_MTurk/DepthDiscrim_HTML.html#3,3,1519,753,1536,864,7-20-2021,22-32-47,154,,,,,,,1571,504,1010,992,1004,504,,4,3,depth_discrimination_stimuli/000943_2014-06-09_19-31-07_260595134347_rgbf000128-resize_1/000943_2014-06-09_19-31-07_260595134347_rgbf000128-resize-original.jpg,4601,1551468,1747787,27
788965,DepthScenes,duration_discrimination,discrim_jsons/shuffled_g0_rotated.json,http://54.89.209.186/DepthDuration/depth_discrimination_MTurk/DepthDiscrim_HTML.html#3,3,1519,753,1536,864,7-20-2021,22-32-47,155,,,,,,,1571,504,1010,992,1004,504,,3,4,depth_discrimination_stimuli/000368_2014-06-09_15-53-01_260595134347_rgbf000155-resize_2/000368_2014-06-09_15-53-01_260595134347_rgbf000155-resize-original.jpg,5109,1551468,1747787,27
788965,DepthScenes,duration_discrimination,discrim_jsons/shuffled_g0_rotated.json,http://54.89.209.186/DepthDuration/depth_discrimination_MTurk/DepthDiscrim_HTML.html#3,3,1519,753,1536,864,7-20-2021,22-32-47,156,,,,,,,1571,504,1010,992,1004,504,,2,4,depth_discrimination_stimuli/000635_2014-06-08_16-38-42_260595134347_rgbf000106-resize_1/000635_2014-06-08_16-38-42_260595134347_rgbf000106-resize-original.jpg,7098,1551468,1747787,27
788965,DepthScenes,duration_discrimination,discrim_jsons/shuffled_g0_rotated.json,http://54.89.209.186/DepthDuration/depth_discrimination_MTurk/DepthDiscrim_HTML.html#3,3,1519,753,1536,864,7-20-2021,22-32-47,157,,,,,,,1571,504,1010,992,1004,504,,3,3,depth_discrimination_stimuli/001100_2014-06-15_17-46-26_260595134347_rgbf000225-resize_2/001100_2014-06-15_17-46-26_260595134347_rgbf000225-resize-original.jpg,3514,1551468,1747787,27
788965,DepthScenes,duration_discrimination,discrim_jsons/shuffled_g0_rotated.json,http://54.89.209.186/DepthDuration/depth_discrimination_MTurk/DepthDiscrim_HTML.html#3,3,1519,753,1536,864,7-20-2021,22-32-47,158,,,,,,,1571,504,1010,992,1004,504,,3,3,depth_discrimination_stimuli/002103_2014-06-25_20-00-40_260595134347_rgbf000049-resize_0/002103_2014-06-25_20-00-40_260595134347_rgbf000049-resize-original.jpg,6255,1551468,1747787,27
788965,DepthScenes,duration_discrimination,discrim_jsons/shuffled_g0_rotated.json,http://54.89.209.186/DepthDuration/depth_discrimination_MTurk/DepthDiscrim_HTML.html#3,3,1519,753,1536,864,7-20-2021,22-32-47,159,,,,,,,1571,504,1010,992,1004,504,,4,4,depth_discrimination_stimuli/000137_2014-05-20_17-04-49_260595134347_rgbf000120-resize_1/000137_2014-05-20_17-04-49_260595134347_rgbf000120-resize-original.jpg,7634,1551468,1747787,27
788965,DepthScenes,duration_discrimination,discrim_jsons/shuffled_g0_rotated.json,http://54.89.209.186/DepthDuration/depth_discrimination_MTurk/DepthDiscrim_HTML.html#3,3,1519,753,1536,864,7-20-2021,22-32-47,160,,,,,,,1571,504,1010,992,1004,504,,3,2,depth_discrimination_stimuli/003010_2014-06-15_12-54-35_094959634447_rgbf000112-resize_0/003010_2014-06-15_12-54-35_094959634447_rgbf000112-resize-original.jpg,8277,1551468,1747787,27
788965,DepthScenes,duration_discrimination,discrim_jsons/shuffled_g0_rotated.json,http://54.89.209.186/DepthDuration/depth_discrimination_MTurk/DepthDiscrim_HTML.html#3,3,1519,753,1536,864,7-20-2021,22-32-47,161,,,,,,,1571,504,1010,992,1004,504,,1,2,depth_discrimination_stimuli/002725_2014-06-22_11-47-51_094959634447_rgbf000070-resize_1/002725_2014-06-22_11-47-51_094959634447_rgbf000070-resize-original.jpg,5967,1551468,1747787,27
788965,DepthScenes,duration_discrimination,discrim_jsons/shuffled_g0_rotated.json,http://54.89.209.186/DepthDuration/depth_discrimination_MTurk/DepthDiscrim_HTML.html#3,3,1519,753,1536,864,7-20-2021,22-32-47,162,,,,,,,1571,504,1010,992,1004,504,,3,2,depth_discrimination_stimuli/003621_2014-05-23_18-06-08_094959634447_rgbf000101-resize_1/003621_2014-05-23_18-06-08_094959634447_rgbf000101-resize-original.jpg,6025,1551468,1747787,27
788965,DepthScenes,duration_discrimination,discrim_jsons/shuffled_g0_rotated.json,http://54.89.209.186/DepthDuration/depth_discrimination_MTurk/DepthDiscrim_HTML.html#3,3,1519,753,1536,864,7-20-2021,22-32-47,163,,,,,,,1571,504,1010,992,1004,504,,4,4,depth_discrimination_stimuli/003081_2014-06-15_15-19-16_094959634447_rgbf000150-resize_1/003081_2014-06-15_15-19-16_094959634447_rgbf000150-resize-original.jpg,7290,1551468,1747787,27
788965,DepthScenes,duration_discrimination,discrim_jsons/shuffled_g0_rotated.json,http://54.89.209.186/DepthDuration/depth_discrimination_MTurk/DepthDiscrim_HTML.html#3,3,1519,753,1536,864,7-20-2021,22-32-47,164,,,,,,,1571,504,1010,992,1004,504,,4,3,depth_discrimination_stimuli/001181_2014-06-17_15-50-57_260595134347_rgbf000106-resize_4/001181_2014-06-17_15-50-57_260595134347_rgbf000106-resize-original.jpg,4492,1551468,1747787,27
788965,DepthScenes,duration_discrimination,discrim_jsons/shuffled_g0_rotated.json,http://54.89.209.186/DepthDuration/depth_discrimination_MTurk/DepthDiscrim_HTML.html#3,3,1519,753,1536,864,7-20-2021,22-32-47,165,,,,,,,1571,504,1010,992,1004,504,,3,4,depth_discrimination_stimuli/002414_2014-06-28_20-24-58_260595134347_rgbf000067-resize_4/002414_2014-06-28_20-24-58_260595134347_rgbf000067-resize-original.jpg,4241,1551468,1747787,27
788965,DepthScenes,duration_discrimination,discrim_jsons/shuffled_g0_rotated.json,http://54.89.209.186/DepthDuration/depth_discrimination_MTurk/DepthDiscrim_HTML.html#3,3,1519,753,1536,864,7-20-2021,22-32-47,166,,,,,,,1571,504,1010,992,1004,504,,4,3,depth_discrimination_stimuli/002545_2014-06-24_13-38-53_094959634447_rgbf000080-resize_4/002545_2014-06-24_13-38-53_094959634447_rgbf000080-resize-original.jpg,5520,1551468,1747787,27
788965,DepthScenes,duration_discrimination,discrim_jsons/shuffled_g0_rotated.json,http://54.89.209.186/DepthDuration/depth_discrimination_MTurk/DepthDiscrim_HTML.html#3,3,1519,753,1536,864,7-20-2021,22-32-47,167,,,,,,,1571,504,1010,992,1004,504,,4,3,depth_discrimination_stimuli/001214_2014-06-17_16-13-55_260595134347_rgbf000111-resize_0/001214_2014-06-17_16-13-55_260595134347_rgbf000111-resize-original.jpg,19627,1551468,1747787,27
788965,DepthScenes,duration_discrimination,discrim_jsons/shuffled_g0_rotated.json,http://54.89.209.186/DepthDuration/depth_discrimination_MTurk/DepthDiscrim_HTML.html#3,3,1519,753,1536,864,7-20-2021,22-32-47,168,,,,,,,1571,504,1010,992,1004,504,,5,4,depth_discrimination_stimuli/002678_2014-06-13_16-15-32_094959634447_rgbf000151-resize_6/002678_2014-06-13_16-15-32_094959634447_rgbf000151-resize-original.jpg,3535,1551468,1747787,27
788965,DepthScenes,duration_discrimination,discrim_jsons/shuffled_g0_rotated.json,http://54.89.209.186/DepthDuration/depth_discrimination_MTurk/DepthDiscrim_HTML.html#3,3,1519,753,1536,864,7-20-2021,22-32-47,169,,,,,,,1571,504,1010,992,1004,504,,5,4,depth_discrimination_stimuli/002118_2014-06-25_20-32-08_260595134347_rgbf000078-resize_1/002118_2014-06-25_20-32-08_260595134347_rgbf000078-resize-original.jpg,3607,1551468,1747787,27
788965,DepthScenes,duration_discrimination,discrim_jsons/shuffled_g0_rotated.json,http://54.89.209.186/DepthDuration/depth_discrimination_MTurk/DepthDiscrim_HTML.html#3,3,1519,753,1536,864,7-20-2021,22-32-47,170,,,,,,,1571,504,1010,992,1004,504,,4,3,depth_discrimination_stimuli/002600_2014-06-24_14-27-04_094959634447_rgbf000074-resize_2/002600_2014-06-24_14-27-04_094959634447_rgbf000074-resize-original.jpg,6909,1551468,1747787,27
788965,DepthScenes,duration_discrimination,discrim_jsons/shuffled_g0_rotated.json,http://54.89.209.186/DepthDuration/depth_discrimination_MTurk/DepthDiscrim_HTML.html#3,3,1519,753,1536,864,7-20-2021,22-32-47,171,,,,,,,1571,504,1010,992,1004,504,,3,3,depth_discrimination_stimuli/000780_2014-06-08_22-28-29_260595134347_rgbf000126-resize_1/000780_2014-06-08_22-28-29_260595134347_rgbf000126-resize-original.jpg,4219,1551468,1747787,27
788965,DepthScenes,duration_discrimination,discrim_jsons/shuffled_g0_rotated.json,http://54.89.209.186/DepthDuration/depth_discrimination_MTurk/DepthDiscrim_HTML.html#3,3,1519,753,1536,864,7-20-2021,22-32-47,172,,,,,,,1571,504,1010,992,1004,504,,3,4,depth_discrimination_stimuli/003129_2014-05-12_10-48-10_094959634447_rgbf000100-resize_0/003129_2014-05-12_10-48-10_094959634447_rgbf000100-resize-original.jpg,3281,1551468,1747787,27
788965,DepthScenes,duration_discrimination,discrim_jsons/shuffled_g0_rotated.json,http://54.89.209.186/DepthDuration/depth_discrimination_MTurk/DepthDiscrim_HTML.html#3,3,1519,753,1536,864,7-20-2021,22-32-47,173,,,,,,,1571,504,1010,992,1004,504,,3,2,depth_discrimination_stimuli/000109_2014-05-14_23-41-52_260595134347_rgbf000035-resize_9/000109_2014-05-14_23-41-52_260595134347_rgbf000035-resize-original.jpg,3333,1551468,1747787,27
788965,DepthScenes,duration_discrimination,discrim_jsons/shuffled_g0_rotated.json,http://54.89.209.186/DepthDuration/depth_discrimination_MTurk/DepthDiscrim_HTML.html#3,3,1519,753,1536,864,7-20-2021,22-32-47,174,,,,,,,1571,504,1010,992,1004,504,,5,4,depth_discrimination_stimuli/000788_2014-06-08_22-34-36_260595134347_rgbf000131-resize_1/000788_2014-06-08_22-34-36_260595134347_rgbf000131-resize-original.jpg,4401,1551468,1747787,27
788965,DepthScenes,duration_discrimination,discrim_jsons/shuffled_g0_rotated.json,http://54.89.209.186/DepthDuration/depth_discrimination_MTurk/DepthDiscrim_HTML.html#3,3,1519,753,1536,864,7-20-2021,22-32-47,175,,,,,,,1571,504,1010,992,1004,504,,2,4,depth_discrimination_stimuli/001032_2014-06-08_13-23-17_260595134347_rgbf000021-resize_3/001032_2014-06-08_13-23-17_260595134347_rgbf000021-resize-original.jpg,3955,1551468,1747787,27
788965,DepthScenes,duration_discrimination,discrim_jsons/shuffled_g0_rotated.json,http://54.89.209.186/DepthDuration/depth_discrimination_MTurk/DepthDiscrim_HTML.html#3,3,1519,753,1536,864,7-20-2021,22-32-47,176,,,,,,,1571,504,1010,992,1004,504,,3,5,depth_discrimination_stimuli/000906_2014-06-08_13-35-43_260595134347_rgbf000155-resize_1/000906_2014-06-08_13-35-43_260595134347_rgbf000155-resize-original.jpg,4776,1551468,1747787,27
788965,DepthScenes,duration_discrimination,discrim_jsons/shuffled_g0_rotated.json,http://54.89.209.186/DepthDuration/depth_discrimination_MTurk/DepthDiscrim_HTML.html#3,3,1519,753,1536,864,7-20-2021,22-32-47,177,,,,,,,1571,504,1010,992,1004,504,,2,4,depth_discrimination_stimuli/001150_2014-06-17_15-27-34_260595134347_rgbf000108-resize_2/001150_2014-06-17_15-27-34_260595134347_rgbf000108-resize-original.jpg,2761,1551468,1747787,27
788965,DepthScenes,duration_discrimination,discrim_jsons/shuffled_g0_rotated.json,http://54.89.209.186/DepthDuration/depth_discrimination_MTurk/DepthDiscrim_HTML.html#3,3,1519,753,1536,864,7-20-2021,22-32-47,178,,,,,,,1571,504,1010,992,1004,504,,4,3,depth_discrimination_stimuli/002750_2014-06-22_19-08-03_094959634447_rgbf000094-resize_4/002750_2014-06-22_19-08-03_094959634447_rgbf000094-resize-original.jpg,4654,1551468,1747787,27
788965,DepthScenes,duration_discrimination,discrim_jsons/shuffled_g0_rotated.json,http://54.89.209.186/DepthDuration/depth_discrimination_MTurk/DepthDiscrim_HTML.html#3,3,1519,753,1536,864,7-20-2021,22-32-47,179,,,,,,,1571,504,1010,992,1004,504,,3,2,depth_discrimination_stimuli/000636_2014-06-08_16-39-02_260595134347_rgbf000108-resize_4/000636_2014-06-08_16-39-02_260595134347_rgbf000108-resize-original.jpg,3917,1551468,1747787,27
788965,DepthScenes,duration_discrimination,discrim_jsons/shuffled_g0_rotated.json,http://54.89.209.186/DepthDuration/depth_discrimination_MTurk/DepthDiscrim_HTML.html#3,3,1519,753,1536,864,7-20-2021,22-32-47,180,,,,,,,1571,504,1010,992,1004,504,,3,4,depth_discrimination_stimuli/000917_2014-06-09_22-45-29_260595134347_rgbf000149-resize_3/000917_2014-06-09_22-45-29_260595134347_rgbf000149-resize-original.jpg,2714,1551468,1747787,27
788965,DepthScenes,duration_discrimination,discrim_jsons/shuffled_g0_rotated.json,http://54.89.209.186/DepthDuration/depth_discrimination_MTurk/DepthDiscrim_HTML.html#3,3,1519,753,1536,864,7-20-2021,22-32-47,181,,,,,,,1571,504,1010,992,1004,504,,4,4,depth_discrimination_stimuli/000447_2014-06-08_16-15-46_260595134347_rgbf000130-resize_1/000447_2014-06-08_16-15-46_260595134347_rgbf000130-resize-original.jpg,3273,1551468,1747787,27
788965,DepthScenes,duration_discrimination,discrim_jsons/shuffled_g0_rotated.json,http://54.89.209.186/DepthDuration/depth_discrimination_MTurk/DepthDiscrim_HTML.html#3,3,1519,753,1536,864,7-20-2021,22-32-47,182,,,,,,,1571,504,1010,992,1004,504,,2,3,depth_discrimination_stimuli/001092_2014-06-15_17-34-58_260595134347_rgbf000171-resize_3/001092_2014-06-15_17-34-58_260595134347_rgbf000171-resize-original.jpg,7307,1551468,1747787,27
788965,DepthScenes,duration_discrimination,discrim_jsons/shuffled_g0_rotated.json,http://54.89.209.186/DepthDuration/depth_discrimination_MTurk/DepthDiscrim_HTML.html#3,3,1519,753,1536,864,7-20-2021,22-32-47,183,,,,,,,1571,504,1010,992,1004,504,,5,4,depth_discrimination_stimuli/000556_2014-06-09_22-42-56_260595134347_rgbf000214-resize_1/000556_2014-06-09_22-42-56_260595134347_rgbf000214-resize-original.jpg,6076,1551468,1747787,27
788965,DepthScenes,duration_discrimination,discrim_jsons/shuffled_g0_rotated.json,http://54.89.209.186/DepthDuration/depth_discrimination_MTurk/DepthDiscrim_HTML.html#3,3,1519,753,1536,864,7-20-2021,22-32-47,184,,,,,,,1571,504,1010,992,1004,504,,2,3,depth_discrimination_stimuli/000502_2014-06-08_23-02-32_260595134347_rgbf000063-resize_4/000502_2014-06-08_23-02-32_260595134347_rgbf000063-resize-original.jpg,4370,1551468,1747787,27
788965,DepthScenes,duration_discrimination,discrim_jsons/shuffled_g0_rotated.json,http://54.89.209.186/DepthDuration/depth_discrimination_MTurk/DepthDiscrim_HTML.html#3,3,1519,753,1536,864,7-20-2021,22-32-47,185,,,,,,,1571,504,1010,992,1004,504,,3,2,depth_discrimination_stimuli/002905_2014-06-03_18-04-43_094959634447_rgbf000151-resize_2/002905_2014-06-03_18-04-43_094959634447_rgbf000151-resize-original.jpg,12869,1551468,1747787,27
788965,DepthScenes,duration_discrimination,discrim_jsons/shuffled_g0_rotated.json,http://54.89.209.186/DepthDuration/depth_discrimination_MTurk/DepthDiscrim_HTML.html#3,3,1519,753,1536,864,7-20-2021,22-32-47,186,,,,,,,1571,504,1010,992,1004,504,,2,3,depth_discrimination_stimuli/001167_2014-06-17_15-38-07_260595134347_rgbf000108-resize_0/001167_2014-06-17_15-38-07_260595134347_rgbf000108-resize-original.jpg,7027,1551468,1747787,27
788965,DepthScenes,duration_discrimination,discrim_jsons/shuffled_g0_rotated.json,http://54.89.209.186/DepthDuration/depth_discrimination_MTurk/DepthDiscrim_HTML.html#3,3,1519,753,1536,864,7-20-2021,22-32-47,187,,,,,,,1571,504,1010,992,1004,504,,4,3,depth_discrimination_stimuli/002509_2014-06-24_13-19-22_094959634447_rgbf000077-resize_0/002509_2014-06-24_13-19-22_094959634447_rgbf000077-resize-original.jpg,6668,1551468,1747787,27
788965,DepthScenes,duration_discrimination,discrim_jsons/shuffled_g0_rotated.json,http://54.89.209.186/DepthDuration/depth_discrimination_MTurk/DepthDiscrim_HTML.html#3,3,1519,753,1536,864,7-20-2021,22-32-47,188,,,,,,,1571,504,1010,992,1004,504,,3,2,depth_discrimination_stimuli/002875_2014-06-01_15-19-00_094959634447_rgbf000151-resize_1/002875_2014-06-01_15-19-00_094959634447_rgbf000151-resize-original.jpg,7063,1551468,1747787,27
788965,DepthScenes,duration_discrimination,discrim_jsons/shuffled_g0_rotated.json,http://54.89.209.186/DepthDuration/depth_discrimination_MTurk/DepthDiscrim_HTML.html#3,3,1519,753,1536,864,7-20-2021,22-32-47,189,,,,,,,1571,504,1010,992,1004,504,,3,2,depth_discrimination_stimuli/000506_2014-06-08_23-21-00_260595134347_rgbf000070-resize_7/000506_2014-06-08_23-21-00_260595134347_rgbf000070-resize-original.jpg,18079,1551468,1747787,27
788965,DepthScenes,duration_discrimination,discrim_jsons/shuffled_g0_rotated.json,http://54.89.209.186/DepthDuration/depth_discrimination_MTurk/DepthDiscrim_HTML.html#3,3,1519,753,1536,864,7-20-2021,22-32-47,190,,,,,,,1571,504,1010,992,1004,504,,3,2,depth_discrimination_stimuli/000773_2014-06-08_22-24-54_260595134347_rgbf000093-resize_1/000773_2014-06-08_22-24-54_260595134347_rgbf000093-resize-original.jpg,17214,1551468,1747787,27
788965,DepthScenes,duration_discrimination,discrim_jsons/shuffled_g0_rotated.json,http://54.89.209.186/DepthDuration/depth_discrimination_MTurk/DepthDiscrim_HTML.html#3,3,1519,753,1536,864,7-20-2021,22-32-47,191,,,,,,,1571,504,1010,992,1004,504,,3,3,depth_discrimination_stimuli/001066_2014-06-08_22-03-20_260595134347_rgbf000066-resize_4/001066_2014-06-08_22-03-20_260595134347_rgbf000066-resize-original.jpg,6683,1551468,1747787,27
788965,DepthScenes,duration_discrimination,discrim_jsons/shuffled_g0_rotated.json,http://54.89.209.186/DepthDuration/depth_discrimination_MTurk/DepthDiscrim_HTML.html#3,3,1519,753,1536,864,7-20-2021,22-32-47,192,,,,,,,1571,504,1010,992,1004,504,,2,4,depth_discrimination_stimuli/002043_2014-06-24_20-29-38_260595134347_rgbf000039-resize_4/002043_2014-06-24_20-29-38_260595134347_rgbf000039-resize-original.jpg,7621,1551468,1747787,27
788965,DepthScenes,duration_discrimination,discrim_jsons/shuffled_g0_rotated.json,http://54.89.209.186/DepthDuration/depth_discrimination_MTurk/DepthDiscrim_HTML.html#3,3,1519,753,1536,864,7-20-2021,22-32-47,193,,,,,,,1571,504,1010,992,1004,504,,4,3,depth_discrimination_stimuli/000682_2014-06-08_23-14-58_260595134347_rgbf000041-resize_5/000682_2014-06-08_23-14-58_260595134347_rgbf000041-resize-original.jpg,4401,1551468,1747787,27
788965,DepthScenes,duration_discrimination,discrim_jsons/shuffled_g0_rotated.json,http://54.89.209.186/DepthDuration/depth_discrimination_MTurk/DepthDiscrim_HTML.html#3,3,1519,753,1536,864,7-20-2021,22-32-47,194,,,,,,,1571,504,1010,992,1004,504,,2,2,depth_discrimination_stimuli/001618_2014-06-20_11-37-31_260595134347_rgbf000027-resize_3/001618_2014-06-20_11-37-31_260595134347_rgbf000027-resize-original.jpg,5514,1551468,1747787,27
788965,DepthScenes,duration_discrimination,discrim_jsons/shuffled_g0_rotated.json,http://54.89.209.186/DepthDuration/depth_discrimination_MTurk/DepthDiscrim_HTML.html#3,3,1519,753,1536,864,7-20-2021,22-32-47,195,,,,,,,1571,504,1010,992,1004,504,,1,1,depth_discrimination_stimuli/002139_2014-06-25_21-19-37_260595134347_rgbf000124-resize_2/002139_2014-06-25_21-19-37_260595134347_rgbf000124-resize-original.jpg,4337,1551468,1747787,27
788965,DepthScenes,duration_discrimination,discrim_jsons/shuffled_g0_rotated.json,http://54.89.209.186/DepthDuration/depth_discrimination_MTurk/DepthDiscrim_HTML.html#3,3,1519,753,1536,864,7-20-2021,22-32-47,196,,,,,,,1571,504,1010,992,1004,504,,5,3,depth_discrimination_stimuli/002323_2014-06-28_20-01-54_260595134347_rgbf000051-resize_4/002323_2014-06-28_20-01-54_260595134347_rgbf000051-resize-original.jpg,6109,1551468,1747787,27
788965,DepthScenes,duration_discrimination,discrim_jsons/shuffled_g0_rotated.json,http://54.89.209.186/DepthDuration/depth_discrimination_MTurk/DepthDiscrim_HTML.html#3,3,1519,753,1536,864,7-20-2021,22-32-47,197,,,,,,,1571,504,1010,992,1004,504,,3,3,depth_discrimination_stimuli/000749_2014-06-08_21-55-06_260595134347_rgbf000070-resize_2/000749_2014-06-08_21-55-06_260595134347_rgbf000070-resize-original.jpg,6147,1551468,1747787,27
788965,DepthScenes,duration_discrimination,discrim_jsons/shuffled_g0_rotated.json,http://54.89.209.186/DepthDuration/depth_discrimination_MTurk/DepthDiscrim_HTML.html#3,3,1519,753,1536,864,7-20-2021,22-32-47,198,,,,,,,1571,504,1010,992,1004,504,,4,3,depth_discrimination_stimuli/001056_2014-06-08_18-46-44_260595134347_rgbf000068-resize_0/001056_2014-06-08_18-46-44_260595134347_rgbf000068-resize-original.jpg,5134,1551468,1747787,27
788965,DepthScenes,duration_discrimination,discrim_jsons/shuffled_g0_rotated.json,http://54.89.209.186/DepthDuration/depth_discrimination_MTurk/DepthDiscrim_HTML.html#3,3,1519,753,1536,864,7-20-2021,22-32-47,199,,,,,,,1571,504,1010,992,1004,504,,4,2,depth_discrimination_stimuli/002949_2014-06-26_15-57-42_094959634447_rgbf000079-resize_1/002949_2014-06-26_15-57-42_094959634447_rgbf000079-resize-original.jpg,5414,1551468,1747787,27
788965,DepthScenes,duration_discrimination,discrim_jsons/shuffled_g0_rotated.json,http://54.89.209.186/DepthDuration/depth_discrimination_MTurk/DepthDiscrim_HTML.html#3,3,1519,753,1536,864,7-20-2021,22-32-47,200,,,,,,,1571,504,1010,992,1004,504,,4,3,depth_discrimination_stimuli/003490_2014-05-21_15-50-11_094959634447_rgbf000101-resize_3/003490_2014-05-21_15-50-11_094959634447_rgbf000101-resize-original.jpg,3536,1551468,1747787,27
788965,DepthScenes,duration_discrimination,discrim_jsons/shuffled_g0_rotated.json,http://54.89.209.186/DepthDuration/depth_discrimination_MTurk/DepthDiscrim_HTML.html#3,3,1519,753,1536,864,7-20-2021,22-32-47,201,,,,,,,1571,504,1010,992,1004,504,,4,4,depth_discrimination_stimuli/003423_2014-05-21_10-23-26_094959634447_rgbf002665-resize_2/003423_2014-05-21_10-23-26_094959634447_rgbf002665-resize-original.jpg,3674,1551468,1747787,27
788965,DepthScenes,duration_discrimination,discrim_jsons/shuffled_g0_rotated.json,http://54.89.209.186/DepthDuration/depth_discrimination_MTurk/DepthDiscrim_HTML.html#3,3,1519,753,1536,864,7-20-2021,22-32-47,202,,,,,,,1571,504,1010,992,1004,504,,4,3,depth_discrimination_stimuli/000758_2014-06-08_22-05-08_260595134347_rgbf000085-resize_0/000758_2014-06-08_22-05-08_260595134347_rgbf000085-resize-original.jpg,4607,1551468,1747787,27
788965,DepthScenes,duration_discrimination,discrim_jsons/shuffled_g0_rotated.json,http://54.89.209.186/DepthDuration/depth_discrimination_MTurk/DepthDiscrim_HTML.html#3,3,1519,753,1536,864,7-20-2021,22-32-47,203,,,,,,,1571,504,1010,992,1004,504,,3,3,depth_discrimination_stimuli/000493_2014-06-09_21-01-18_260595134347_rgbf000196-resize_3/000493_2014-06-09_21-01-18_260595134347_rgbf000196-resize-original.jpg,2819,1551468,1747787,27
788965,DepthScenes,duration_discrimination,discrim_jsons/shuffled_g0_rotated.json,http://54.89.209.186/DepthDuration/depth_discrimination_MTurk/DepthDiscrim_HTML.html#3,3,1519,753,1536,864,7-20-2021,22-32-47,204,,,,,,,1571,504,1010,992,1004,504,,2,3,depth_discrimination_stimuli/000927_2014-06-09_16-32-30_260595134347_rgbf000123-resize_3/000927_2014-06-09_16-32-30_260595134347_rgbf000123-resize-original.jpg,4953,1551468,1747787,27
788965,DepthScenes,duration_discrimination,discrim_jsons/shuffled_g0_rotated.json,http://54.89.209.186/DepthDuration/depth_discrimination_MTurk/DepthDiscrim_HTML.html#3,3,1519,753,1536,864,7-20-2021,22-32-47,205,,,,,,,1571,504,1010,992,1004,504,,3,4,depth_discrimination_stimuli/002964_2014-06-08_17-46-11_094959634447_rgbf000091-resize_4/002964_2014-06-08_17-46-11_094959634447_rgbf000091-resize-original.jpg,4883,1551468,1747787,27
788965,DepthScenes,duration_discrimination,discrim_jsons/shuffled_g0_rotated.json,http://54.89.209.186/DepthDuration/depth_discrimination_MTurk/DepthDiscrim_HTML.html#3,3,1519,753,1536,864,7-20-2021,22-32-47,206,,,,,,,1571,504,1010,992,1004,504,,5,4,depth_discrimination_stimuli/000677_2014-06-08_23-10-32_260595134347_rgbf000158-resize_6/000677_2014-06-08_23-10-32_260595134347_rgbf000158-resize-original.jpg,6338,1551468,1747787,27
788965,DepthScenes,duration_discrimination,discrim_jsons/shuffled_g0_rotated.json,http://54.89.209.186/DepthDuration/depth_discrimination_MTurk/DepthDiscrim_HTML.html#3,3,1519,753,1536,864,7-20-2021,22-32-47,207,,,,,,,1571,504,1010,992,1004,504,,2,3,depth_discrimination_stimuli/000739_2014-06-08_18-45-58_260595134347_rgbf000068-resize_1/000739_2014-06-08_18-45-58_260595134347_rgbf000068-resize-original.jpg,6000,1551468,1747787,27
788965,DepthScenes,duration_discrimination,discrim_jsons/shuffled_g0_rotated.json,http://54.89.209.186/DepthDuration/depth_discrimination_MTurk/DepthDiscrim_HTML.html#3,3,1519,753,1536,864,7-20-2021,22-32-47,208,,,,,,,1571,504,1010,992,1004,504,,3,4,depth_discrimination_stimuli/002279_2014-06-28_18-55-32_260595134347_rgbf000040-resize_5/002279_2014-06-28_18-55-32_260595134347_rgbf000040-resize-original.jpg,4291,1551468,1747787,27
788965,DepthScenes,duration_discrimination,discrim_jsons/shuffled_g0_rotated.json,http://54.89.209.186/DepthDuration/depth_discrimination_MTurk/DepthDiscrim_HTML.html#3,3,1519,753,1536,864,7-20-2021,22-32-47,209,,,,,,,1571,504,1010,992,1004,504,,4,3,depth_discrimination_stimuli/002989_2014-06-15_12-25-03_094959634447_rgbf000150-resize_3/002989_2014-06-15_12-25-03_094959634447_rgbf000150-resize-original.jpg,3595,1551468,1747787,27
788965,DepthScenes,duration_discrimination,discrim_jsons/shuffled_g0_rotated.json,http://54.89.209.186/DepthDuration/depth_discrimination_MTurk/DepthDiscrim_HTML.html#3,3,1519,753,1536,864,7-20-2021,22-32-47,210,,,,,,,1571,504,1010,992,1004,504,,3,3,depth_discrimination_stimuli/000469_2014-06-09_19-42-10_260595134347_rgbf000081-resize_1/000469_2014-06-09_19-42-10_260595134347_rgbf000081-resize-original.jpg,3936,1551468,1747787,27
788965,DepthScenes,duration_discrimination,discrim_jsons/shuffled_g0_rotated.json,http://54.89.209.186/DepthDuration/depth_discrimination_MTurk/DepthDiscrim_HTML.html#3,3,1519,753,1536,864,7-20-2021,22-32-47,211,,,,,,,1571,504,1010,992,1004,504,,3,2,depth_discrimination_stimuli/002660_2014-06-13_15-44-18_094959634447_rgbf001878-resize_2/002660_2014-06-13_15-44-18_094959634447_rgbf001878-resize-original.jpg,4100,1551468,1747787,27
788965,DepthScenes,duration_discrimination,discrim_jsons/shuffled_g0_rotated.json,http://54.89.209.186/DepthDuration/depth_discrimination_MTurk/DepthDiscrim_HTML.html#3,3,1519,753,1536,864,7-20-2021,22-32-47,212,,,,,,,1571,504,1010,992,1004,504,,3,4,depth_discrimination_stimuli/001188_2014-06-17_15-54-10_260595134347_rgbf000090-resize_2/001188_2014-06-17_15-54-10_260595134347_rgbf000090-resize-original.jpg,5744,1551468,1747787,27
788965,DepthScenes,duration_discrimination,discrim_jsons/shuffled_g0_rotated.json,http://54.89.209.186/DepthDuration/depth_discrimination_MTurk/DepthDiscrim_HTML.html#3,3,1519,753,1536,864,7-20-2021,22-32-47,213,,,,,,,1571,504,1010,992,1004,504,,4,2,depth_discrimination_stimuli/002131_2014-06-25_21-12-01_260595134347_rgbf000083-resize_0/002131_2014-06-25_21-12-01_260595134347_rgbf000083-resize-original.jpg,5785,1551468,1747787,27
788965,DepthScenes,duration_discrimination,discrim_jsons/shuffled_g0_rotated.json,http://54.89.209.186/DepthDuration/depth_discrimination_MTurk/DepthDiscrim_HTML.html#3,3,1519,753,1536,864,7-20-2021,22-32-47,214,,,,,,,1571,504,1010,992,1004,504,,2,4,depth_discrimination_stimuli/003292_2014-05-14_21-53-49_094959634447_rgbf000100-resize_2/003292_2014-05-14_21-53-49_094959634447_rgbf000100-resize-original.jpg,6353,1551468,1747787,27
