subjID,experimentName,versionName,sequenceName,url,selected_row,windowWidth,windowHeight,screenWidth,screenHeight,startDate,startTime,trial,stimulus_0,stimulus_1,duration,actual_depth_0,actual_depth_1,discrim_choice,trial_RT,log_fixation,log_sceneDuration1,log_mask1,log_sceneDuration2,log_mask2,unitSelection,meanDepth_rating,navigability_rating,rated_stimulus,rating_RT,experimentTime,totalTime,age
276467,DepthScenes,duration_discrimination,discrim_jsons/shuffled_g0.json,http://54.89.209.186/DepthDuration/depth_discrimination_MTurk/DepthDiscrim_HTML.html#4,4,1440,757,1440,900,7-20-2021,11-42-35,1,depth_discrimination_stimuli/002043_2014-06-24_20-29-38_260595134347_rgbf000039-resize_4/002043_2014-06-24_20-29-38_260595134347_rgbf000039-resize_4-target.png,depth_discrimination_stimuli/001011_2014-06-08_23-18-54_260595134347_rgbf000044-resize_4/001011_2014-06-08_23-18-54_260595134347_rgbf000044-resize_4-target.png,250,2.8435,2.473,0,1729,510,251,995,254,496,,,,,,1111112,1275151,49
276467,DepthScenes,duration_discrimination,discrim_jsons/shuffled_g0.json,http://54.89.209.186/DepthDuration/depth_discrimination_MTurk/DepthDiscrim_HTML.html#4,4,1440,757,1440,900,7-20-2021,11-42-35,2,depth_discrimination_stimuli/000953_2014-06-08_11-42-19_260595134347_rgbf000083-resize_0/000953_2014-06-08_11-42-19_260595134347_rgbf000083-resize_0-target.png,depth_discrimination_stimuli/000787_2014-06-08_22-33-53_260595134347_rgbf000175-resize_1/000787_2014-06-08_22-33-53_260595134347_rgbf000175-resize_1-target.png,250,1.369,4.784,0,1368,522,244,994,250,503,,,,,,1111112,1275151,49
276467,DepthScenes,duration_discrimination,discrim_jsons/shuffled_g0.json,http://54.89.209.186/DepthDuration/depth_discrimination_MTurk/DepthDiscrim_HTML.html#4,4,1440,757,1440,900,7-20-2021,11-42-35,3,depth_discrimination_stimuli/003083_2014-06-15_15-21-03_094959634447_rgbf000063-resize_1/003083_2014-06-15_15-21-03_094959634447_rgbf000063-resize_1-target.png,depth_discrimination_stimuli/000742_2014-06-08_18-48-09_260595134347_rgbf000164-resize_4/000742_2014-06-08_18-48-09_260595134347_rgbf000164-resize_4-target.png,250,4.1405,4.632,0,1585,512,248,993,247,520,,,,,,1111112,1275151,49
276467,DepthScenes,duration_discrimination,discrim_jsons/shuffled_g0.json,http://54.89.209.186/DepthDuration/depth_discrimination_MTurk/DepthDiscrim_HTML.html#4,4,1440,757,1440,900,7-20-2021,11-42-35,4,depth_discrimination_stimuli/001092_2014-06-15_17-34-58_260595134347_rgbf000171-resize_3/001092_2014-06-15_17-34-58_260595134347_rgbf000171-resize_3-target.png,depth_discrimination_stimuli/000502_2014-06-08_23-02-32_260595134347_rgbf000063-resize_4/000502_2014-06-08_23-02-32_260595134347_rgbf000063-resize_4-target.png,1000,2.6935,2.431,0,1971,524,991,1000,996,495,,,,,,1111112,1275151,49
276467,DepthScenes,duration_discrimination,discrim_jsons/shuffled_g0.json,http://54.89.209.186/DepthDuration/depth_discrimination_MTurk/DepthDiscrim_HTML.html#4,4,1440,757,1440,900,7-20-2021,11-42-35,5,depth_discrimination_stimuli/001532_2014-06-20_16-50-41_260595134347_rgbf000081-resize_4/001532_2014-06-20_16-50-41_260595134347_rgbf000081-resize_4-target.png,depth_discrimination_stimuli/000943_2014-06-09_19-31-07_260595134347_rgbf000128-resize_1/000943_2014-06-09_19-31-07_260595134347_rgbf000128-resize_1-target.png,1000,1.5758333333333,1.9765,0,1960,515,995,998,1007,496,,,,,,1111112,1275151,49
276467,DepthScenes,duration_discrimination,discrim_jsons/shuffled_g0.json,http://54.89.209.186/DepthDuration/depth_discrimination_MTurk/DepthDiscrim_HTML.html#4,4,1440,757,1440,900,7-20-2021,11-42-35,6,depth_discrimination_stimuli/002103_2014-06-25_20-00-40_260595134347_rgbf000049-resize_0/002103_2014-06-25_20-00-40_260595134347_rgbf000049-resize_0-target.png,depth_discrimination_stimuli/002444_2014-06-28_20-32-08_260595134347_rgbf000027-resize_0/002444_2014-06-28_20-32-08_260595134347_rgbf000027-resize_0-target.png,250,4.105,4.389,0,1468,509,249,998,248,537,,,,,,1111112,1275151,49
276467,DepthScenes,duration_discrimination,discrim_jsons/shuffled_g0.json,http://54.89.209.186/DepthDuration/depth_discrimination_MTurk/DepthDiscrim_HTML.html#4,4,1440,757,1440,900,7-20-2021,11-42-35,7,depth_discrimination_stimuli/000800_2014-06-08_22-42-09_260595134347_rgbf000095-resize_3/000800_2014-06-08_22-42-09_260595134347_rgbf000095-resize_3-target.png,depth_discrimination_stimuli/000869_2014-06-09_20-50-18_260595134347_rgbf000060-resize_3/000869_2014-06-09_20-50-18_260595134347_rgbf000060-resize_3-target.png,1000,2.8,2.266,1,1797,505,997,1013,999,498,,,,,,1111112,1275151,49
276467,DepthScenes,duration_discrimination,discrim_jsons/shuffled_g0.json,http://54.89.209.186/DepthDuration/depth_discrimination_MTurk/DepthDiscrim_HTML.html#4,4,1440,757,1440,900,7-20-2021,11-42-35,8,depth_discrimination_stimuli/001618_2014-06-20_11-37-31_260595134347_rgbf000027-resize_3/001618_2014-06-20_11-37-31_260595134347_rgbf000027-resize_3-target.png,depth_discrimination_stimuli/000109_2014-05-14_23-41-52_260595134347_rgbf000035-resize_9/000109_2014-05-14_23-41-52_260595134347_rgbf000035-resize_9-target.png,250,1.8725,1.3545,1,1189,511,248,994,253,510,,,,,,1111112,1275151,49
276467,DepthScenes,duration_discrimination,discrim_jsons/shuffled_g0.json,http://54.89.209.186/DepthDuration/depth_discrimination_MTurk/DepthDiscrim_HTML.html#4,4,1440,757,1440,900,7-20-2021,11-42-35,9,depth_discrimination_stimuli/000454_2014-06-08_16-37-28_260595134347_rgbf000048-resize_2/000454_2014-06-08_16-37-28_260595134347_rgbf000048-resize_2-target.png,depth_discrimination_stimuli/000375_2014-06-08_11-17-29_260595134347_rgbf000133-resize_2/000375_2014-06-08_11-17-29_260595134347_rgbf000133-resize_2-target.png,1000,1.213,4.718,0,2013,505,1004,995,1025,473,,,,,,1111112,1275151,49
276467,DepthScenes,duration_discrimination,discrim_jsons/shuffled_g0.json,http://54.89.209.186/DepthDuration/depth_discrimination_MTurk/DepthDiscrim_HTML.html#4,4,1440,757,1440,900,7-20-2021,11-42-35,10,depth_discrimination_stimuli/000749_2014-06-08_21-55-06_260595134347_rgbf000070-resize_2/000749_2014-06-08_21-55-06_260595134347_rgbf000070-resize_2-target.png,depth_discrimination_stimuli/001056_2014-06-08_18-46-44_260595134347_rgbf000068-resize_0/001056_2014-06-08_18-46-44_260595134347_rgbf000068-resize_0-target.png,1000,2.331,2.6625,0,2110,512,1006,989,999,496,,,,,,1111112,1275151,49
276467,DepthScenes,duration_discrimination,discrim_jsons/shuffled_g0.json,http://54.89.209.186/DepthDuration/depth_discrimination_MTurk/DepthDiscrim_HTML.html#4,4,1440,757,1440,900,7-20-2021,11-42-35,11,depth_discrimination_stimuli/002199_2014-06-28_18-33-56_260595134347_rgbf000074-resize_0/002199_2014-06-28_18-33-56_260595134347_rgbf000074-resize_0-target.png,depth_discrimination_stimuli/001016_2014-06-09_16-16-10_260595134347_rgbf000112-resize_5/001016_2014-06-09_16-16-10_260595134347_rgbf000112-resize_5-target.png,250,1.996,1.6565,0,1400,517,257,993,251,497,,,,,,1111112,1275151,49
276467,DepthScenes,duration_discrimination,discrim_jsons/shuffled_g0.json,http://54.89.209.186/DepthDuration/depth_discrimination_MTurk/DepthDiscrim_HTML.html#4,4,1440,757,1440,900,7-20-2021,11-42-35,12,depth_discrimination_stimuli/002118_2014-06-25_20-32-08_260595134347_rgbf000078-resize_1/002118_2014-06-25_20-32-08_260595134347_rgbf000078-resize_1-target.png,depth_discrimination_stimuli/001164_2014-06-17_15-35-46_260595134347_rgbf000085-resize_3/001164_2014-06-17_15-35-46_260595134347_rgbf000085-resize_3-target.png,1000,2.646,2.354,0,2145,515,1008,985,1010,499,,,,,,1111112,1275151,49
276467,DepthScenes,duration_discrimination,discrim_jsons/shuffled_g0.json,http://54.89.209.186/DepthDuration/depth_discrimination_MTurk/DepthDiscrim_HTML.html#4,4,1440,757,1440,900,7-20-2021,11-42-35,13,depth_discrimination_stimuli/002953_2014-06-08_17-32-18_094959634447_rgbf000059-resize_5/002953_2014-06-08_17-32-18_094959634447_rgbf000059-resize_5-target.png,depth_discrimination_stimuli/000470_2014-06-09_19-42-40_260595134347_rgbf000094-resize_1/000470_2014-06-09_19-42-40_260595134347_rgbf000094-resize_1-target.png,250,1.551,1.831,1,2043,501,256,1005,253,501,,,,,,1111112,1275151,49
276467,DepthScenes,duration_discrimination,discrim_jsons/shuffled_g0.json,http://54.89.209.186/DepthDuration/depth_discrimination_MTurk/DepthDiscrim_HTML.html#4,4,1440,757,1440,900,7-20-2021,11-42-35,14,depth_discrimination_stimuli/000929_2014-06-09_16-33-19_260595134347_rgbf000139-resize_0/000929_2014-06-09_16-33-19_260595134347_rgbf000139-resize_0-target.png,depth_discrimination_stimuli/001055_2014-06-08_18-45-35_260595134347_rgbf000111-resize_4/001055_2014-06-08_18-45-35_260595134347_rgbf000111-resize_4-target.png,1000,2.868,2.429,0,2425,511,994,1012,999,497,,,,,,1111112,1275151,49
276467,DepthScenes,duration_discrimination,discrim_jsons/shuffled_g0.json,http://54.89.209.186/DepthDuration/depth_discrimination_MTurk/DepthDiscrim_HTML.html#4,4,1440,757,1440,900,7-20-2021,11-42-35,15,depth_discrimination_stimuli/000493_2014-06-09_21-01-18_260595134347_rgbf000196-resize_3/000493_2014-06-09_21-01-18_260595134347_rgbf000196-resize_3-target.png,depth_discrimination_stimuli/000409_2014-06-04_19-23-33_260595134347_rgbf000067-resize_0/000409_2014-06-04_19-23-33_260595134347_rgbf000067-resize_0-target.png,250,3.44,3.7335,1,1419,514,247,997,248,499,,,,,,1111112,1275151,49
276467,DepthScenes,duration_discrimination,discrim_jsons/shuffled_g0.json,http://54.89.209.186/DepthDuration/depth_discrimination_MTurk/DepthDiscrim_HTML.html#4,4,1440,757,1440,900,7-20-2021,11-42-35,16,depth_discrimination_stimuli/000569_2014-06-09_22-51-47_260595134347_rgbf000141-resize_3/000569_2014-06-09_22-51-47_260595134347_rgbf000141-resize_3-target.png,depth_discrimination_stimuli/000868_2014-06-09_20-49-52_260595134347_rgbf000064-resize_4/000868_2014-06-09_20-49-52_260595134347_rgbf000064-resize_4-target.png,250,4.512,1.2815,1,2263,505,249,1009,249,498,,,,,,1111112,1275151,49
276467,DepthScenes,duration_discrimination,discrim_jsons/shuffled_g0.json,http://54.89.209.186/DepthDuration/depth_discrimination_MTurk/DepthDiscrim_HTML.html#4,4,1440,757,1440,900,7-20-2021,11-42-35,17,depth_discrimination_stimuli/003587_2014-05-23_16-48-02_094959634447_rgbf002384-resize_2/003587_2014-05-23_16-48-02_094959634447_rgbf002384-resize_2-target.png,depth_discrimination_stimuli/000709_2014-06-08_13-51-55_260595134347_rgbf000068-resize_3/000709_2014-06-08_13-51-55_260595134347_rgbf000068-resize_3-target.png,1000,1.357,1.803,0,2571,508,996,1010,995,499,,,,,,1111112,1275151,49
276467,DepthScenes,duration_discrimination,discrim_jsons/shuffled_g0.json,http://54.89.209.186/DepthDuration/depth_discrimination_MTurk/DepthDiscrim_HTML.html#4,4,1440,757,1440,900,7-20-2021,11-42-35,18,depth_discrimination_stimuli/002675_2014-06-13_16-08-49_094959634447_rgbf000151-resize_2/002675_2014-06-13_16-08-49_094959634447_rgbf000151-resize_2-target.png,depth_discrimination_stimuli/001222_2014-06-17_16-24-06_260595134347_rgbf000073-resize_0/001222_2014-06-17_16-24-06_260595134347_rgbf000073-resize_0-target.png,1000,4.5065,1.4385,1,1992,506,996,1001,1007,501,,,,,,1111112,1275151,49
276467,DepthScenes,duration_discrimination,discrim_jsons/shuffled_g0.json,http://54.89.209.186/DepthDuration/depth_discrimination_MTurk/DepthDiscrim_HTML.html#4,4,1440,757,1440,900,7-20-2021,11-42-35,19,depth_discrimination_stimuli/002340_2014-06-28_20-05-46_260595134347_rgbf000113-resize_0/002340_2014-06-28_20-05-46_260595134347_rgbf000113-resize_0-target.png,depth_discrimination_stimuli/002905_2014-06-03_18-04-43_094959634447_rgbf000151-resize_2/002905_2014-06-03_18-04-43_094959634447_rgbf000151-resize_2-target.png,1000,2.4735,2.0295,1,2259,512,994,996,1011,497,,,,,,1111112,1275151,49
276467,DepthScenes,duration_discrimination,discrim_jsons/shuffled_g0.json,http://54.89.209.186/DepthDuration/depth_discrimination_MTurk/DepthDiscrim_HTML.html#4,4,1440,757,1440,900,7-20-2021,11-42-35,20,depth_discrimination_stimuli/000691_2014-06-08_13-08-50_260595134347_rgbf000132-resize_3/000691_2014-06-08_13-08-50_260595134347_rgbf000132-resize_3-target.png,depth_discrimination_stimuli/002039_2014-06-24_20-22-38_260595134347_rgbf000084-resize_1/002039_2014-06-24_20-22-38_260595134347_rgbf000084-resize_1-target.png,1000,4.153,4.408,0,2088,506,1010,994,995,501,,,,,,1111112,1275151,49
276467,DepthScenes,duration_discrimination,discrim_jsons/shuffled_g0.json,http://54.89.209.186/DepthDuration/depth_discrimination_MTurk/DepthDiscrim_HTML.html#4,4,1440,757,1440,900,7-20-2021,11-42-35,21,depth_discrimination_stimuli/000549_2014-06-08_22-10-24_260595134347_rgbf000247-resize_3/000549_2014-06-08_22-10-24_260595134347_rgbf000247-resize_3-target.png,depth_discrimination_stimuli/002509_2014-06-24_13-19-22_094959634447_rgbf000077-resize_0/002509_2014-06-24_13-19-22_094959634447_rgbf000077-resize_0-target.png,1000,1.841,1.3065,1,1937,501,1007,994,1008,492,,,,,,1111112,1275151,49
276467,DepthScenes,duration_discrimination,discrim_jsons/shuffled_g0.json,http://54.89.209.186/DepthDuration/depth_discrimination_MTurk/DepthDiscrim_HTML.html#4,4,1440,757,1440,900,7-20-2021,11-42-35,22,depth_discrimination_stimuli/003495_2014-05-21_16-01-51_094959634447_rgbf000100-resize_3/003495_2014-05-21_16-01-51_094959634447_rgbf000100-resize_3-target.png,depth_discrimination_stimuli/002949_2014-06-26_15-57-42_094959634447_rgbf000079-resize_1/002949_2014-06-26_15-57-42_094959634447_rgbf000079-resize_1-target.png,250,1.6255,1.8915,0,1730,511,243,1023,239,497,,,,,,1111112,1275151,49
276467,DepthScenes,duration_discrimination,discrim_jsons/shuffled_g0.json,http://54.89.209.186/DepthDuration/depth_discrimination_MTurk/DepthDiscrim_HTML.html#4,4,1440,757,1440,900,7-20-2021,11-42-35,23,depth_discrimination_stimuli/001498_2014-06-19_17-45-14_260595134347_rgbf000129-resize_4/001498_2014-06-19_17-45-14_260595134347_rgbf000129-resize_4-target.png,depth_discrimination_stimuli/003125_2014-05-12_10-39-22_094959634447_rgbf000100-resize_0/003125_2014-05-12_10-39-22_094959634447_rgbf000100-resize_0-target.png,1000,1.4075,4.8655,0,1957,512,1003,993,1009,497,,,,,,1111112,1275151,49
276467,DepthScenes,duration_discrimination,discrim_jsons/shuffled_g0.json,http://54.89.209.186/DepthDuration/depth_discrimination_MTurk/DepthDiscrim_HTML.html#4,4,1440,757,1440,900,7-20-2021,11-42-35,24,depth_discrimination_stimuli/003490_2014-05-21_15-50-11_094959634447_rgbf000101-resize_3/003490_2014-05-21_15-50-11_094959634447_rgbf000101-resize_3-target.png,depth_discrimination_stimuli/000866_2014-06-09_20-45-42_260595134347_rgbf000139-resize_1/000866_2014-06-09_20-45-42_260595134347_rgbf000139-resize_1-target.png,1000,3.6445,3.2155,0,2106,515,995,996,1009,502,,,,,,1111112,1275151,49
276467,DepthScenes,duration_discrimination,discrim_jsons/shuffled_g0.json,http://54.89.209.186/DepthDuration/depth_discrimination_MTurk/DepthDiscrim_HTML.html#4,4,1440,757,1440,900,7-20-2021,11-42-35,25,depth_discrimination_stimuli/002072_2014-06-24_21-48-06_260595134347_rgbf000115-resize_0/002072_2014-06-24_21-48-06_260595134347_rgbf000115-resize_0-target.png,depth_discrimination_stimuli/001012_2014-06-08_23-19-38_260595134347_rgbf000057-resize_0/001012_2014-06-08_23-19-38_260595134347_rgbf000057-resize_0-target.png,250,4.702,1.38325,1,1735,510,249,995,250,499,,,,,,1111112,1275151,49
276467,DepthScenes,duration_discrimination,discrim_jsons/shuffled_g0.json,http://54.89.209.186/DepthDuration/depth_discrimination_MTurk/DepthDiscrim_HTML.html#4,4,1440,757,1440,900,7-20-2021,11-42-35,26,depth_discrimination_stimuli/002805_2014-06-22_19-54-03_094959634447_rgbf000079-resize_1/002805_2014-06-22_19-54-03_094959634447_rgbf000079-resize_1-target.png,depth_discrimination_stimuli/001584_2014-06-20_11-07-43_260595134347_rgbf000002-resize_1/001584_2014-06-20_11-07-43_260595134347_rgbf000002-resize_1-target.png,250,3.144,3.53,1,1922,504,250,1010,250,498,,,,,,1111112,1275151,49
276467,DepthScenes,duration_discrimination,discrim_jsons/shuffled_g0.json,http://54.89.209.186/DepthDuration/depth_discrimination_MTurk/DepthDiscrim_HTML.html#4,4,1440,757,1440,900,7-20-2021,11-42-35,27,depth_discrimination_stimuli/003292_2014-05-14_21-53-49_094959634447_rgbf000100-resize_2/003292_2014-05-14_21-53-49_094959634447_rgbf000100-resize_2-target.png,depth_discrimination_stimuli/000542_2014-06-08_18-27-08_260595134347_rgbf000118-resize_1/000542_2014-06-08_18-27-08_260595134347_rgbf000118-resize_1-target.png,1000,3.4815,3,0,2174,545,971,1006,986,558,,,,,,1111112,1275151,49
276467,DepthScenes,duration_discrimination,discrim_jsons/shuffled_g0.json,http://54.89.209.186/DepthDuration/depth_discrimination_MTurk/DepthDiscrim_HTML.html#4,4,1440,757,1440,900,7-20-2021,11-42-35,28,depth_discrimination_stimuli/002549_2014-06-24_13-41-39_094959634447_rgbf000022-resize_3/002549_2014-06-24_13-41-39_094959634447_rgbf000022-resize_3-target.png,depth_discrimination_stimuli/001136_2014-06-17_15-19-41_260595134347_rgbf000076-resize_3/001136_2014-06-17_15-19-41_260595134347_rgbf000076-resize_3-target.png,1000,1.476,1.8655,0,2031,514,999,992,1009,494,,,,,,1111112,1275151,49
276467,DepthScenes,duration_discrimination,discrim_jsons/shuffled_g0.json,http://54.89.209.186/DepthDuration/depth_discrimination_MTurk/DepthDiscrim_HTML.html#4,4,1440,757,1440,900,7-20-2021,11-42-35,29,depth_discrimination_stimuli/000556_2014-06-09_22-42-56_260595134347_rgbf000214-resize_1/000556_2014-06-09_22-42-56_260595134347_rgbf000214-resize_1-target.png,depth_discrimination_stimuli/001148_2014-06-17_15-26-42_260595134347_rgbf000129-resize_0/001148_2014-06-17_15-26-42_260595134347_rgbf000129-resize_0-target.png,1000,4.8415,4.368,0,2486,512,1000,995,1010,495,,,,,,1111112,1275151,49
276467,DepthScenes,duration_discrimination,discrim_jsons/shuffled_g0.json,http://54.89.209.186/DepthDuration/depth_discrimination_MTurk/DepthDiscrim_HTML.html#4,4,1440,757,1440,900,7-20-2021,11-42-35,30,depth_discrimination_stimuli/001450_2014-06-19_17-02-03_260595134347_rgbf000203-resize_4/001450_2014-06-19_17-02-03_260595134347_rgbf000203-resize_4-target.png,depth_discrimination_stimuli/002414_2014-06-28_20-24-58_260595134347_rgbf000067-resize_4/002414_2014-06-28_20-24-58_260595134347_rgbf000067-resize_4-target.png,250,4.0106666666667,4.363,0,1329,512,249,1003,245,502,,,,,,1111112,1275151,49
276467,DepthScenes,duration_discrimination,discrim_jsons/shuffled_g0.json,http://54.89.209.186/DepthDuration/depth_discrimination_MTurk/DepthDiscrim_HTML.html#4,4,1440,757,1440,900,7-20-2021,11-42-35,31,depth_discrimination_stimuli/000927_2014-06-09_16-32-30_260595134347_rgbf000123-resize_3/000927_2014-06-09_16-32-30_260595134347_rgbf000123-resize_3-target.png,depth_discrimination_stimuli/002678_2014-06-13_16-15-32_094959634447_rgbf000151-resize_6/002678_2014-06-13_16-15-32_094959634447_rgbf000151-resize_6-target.png,250,2.6785,2.183,1,1347,511,286,960,249,508,,,,,,1111112,1275151,49
276467,DepthScenes,duration_discrimination,discrim_jsons/shuffled_g0.json,http://54.89.209.186/DepthDuration/depth_discrimination_MTurk/DepthDiscrim_HTML.html#4,4,1440,757,1440,900,7-20-2021,11-42-35,32,depth_discrimination_stimuli/003423_2014-05-21_10-23-26_094959634447_rgbf002665-resize_2/003423_2014-05-21_10-23-26_094959634447_rgbf002665-resize_2-target.png,depth_discrimination_stimuli/000137_2014-05-20_17-04-49_260595134347_rgbf000120-resize_1/000137_2014-05-20_17-04-49_260595134347_rgbf000120-resize_1-target.png,250,3.2575,3.786,0,1136,520,253,986,251,499,,,,,,1111112,1275151,49
276467,DepthScenes,duration_discrimination,discrim_jsons/shuffled_g0.json,http://54.89.209.186/DepthDuration/depth_discrimination_MTurk/DepthDiscrim_HTML.html#4,4,1440,757,1440,900,7-20-2021,11-42-35,33,depth_discrimination_stimuli/001158_2014-06-17_15-32-16_260595134347_rgbf000138-resize_2/001158_2014-06-17_15-32-16_260595134347_rgbf000138-resize_2-target.png,depth_discrimination_stimuli/001181_2014-06-17_15-50-57_260595134347_rgbf000106-resize_4/001181_2014-06-17_15-50-57_260595134347_rgbf000106-resize_4-target.png,250,4.5315,4.149,0,1240,510,249,994,252,510,,,,,,1111112,1275151,49
276467,DepthScenes,duration_discrimination,discrim_jsons/shuffled_g0.json,http://54.89.209.186/DepthDuration/depth_discrimination_MTurk/DepthDiscrim_HTML.html#4,4,1440,757,1440,900,7-20-2021,11-42-35,34,depth_discrimination_stimuli/002467_2014-06-28_20-38-07_260595134347_rgbf000026-resize_2/002467_2014-06-28_20-38-07_260595134347_rgbf000026-resize_2-target.png,depth_discrimination_stimuli/001133_2014-06-17_14-49-16_260595134347_rgbf000100-resize_0/001133_2014-06-17_14-49-16_260595134347_rgbf000100-resize_0-target.png,250,4.742,4.2115,0,2470,511,249,1000,244,531,,,,,,1111112,1275151,49
276467,DepthScenes,duration_discrimination,discrim_jsons/shuffled_g0.json,http://54.89.209.186/DepthDuration/depth_discrimination_MTurk/DepthDiscrim_HTML.html#4,4,1440,757,1440,900,7-20-2021,11-42-35,35,depth_discrimination_stimuli/001197_2014-06-17_16-01-50_260595134347_rgbf000103-resize_4/001197_2014-06-17_16-01-50_260595134347_rgbf000103-resize_4-target.png,depth_discrimination_stimuli/001235_2014-06-17_16-37-36_260595134347_rgbf000084-resize_4/001235_2014-06-17_16-37-36_260595134347_rgbf000084-resize_4-target.png,250,3.4025,3.6605,1,1234,512,261,989,250,508,,,,,,1111112,1275151,49
276467,DepthScenes,duration_discrimination,discrim_jsons/shuffled_g0.json,http://54.89.209.186/DepthDuration/depth_discrimination_MTurk/DepthDiscrim_HTML.html#4,4,1440,757,1440,900,7-20-2021,11-42-35,36,depth_discrimination_stimuli/001170_2014-06-17_15-43-44_260595134347_rgbf000096-resize_6/001170_2014-06-17_15-43-44_260595134347_rgbf000096-resize_6-target.png,depth_discrimination_stimuli/002364_2014-06-28_20-11-05_260595134347_rgbf000042-resize_0/002364_2014-06-28_20-11-05_260595134347_rgbf000042-resize_0-target.png,250,1.191,4.682,1,3090,539,224,1013,226,501,,,,,,1111112,1275151,49
276467,DepthScenes,duration_discrimination,discrim_jsons/shuffled_g0.json,http://54.89.209.186/DepthDuration/depth_discrimination_MTurk/DepthDiscrim_HTML.html#4,4,1440,757,1440,900,7-20-2021,11-42-35,37,depth_discrimination_stimuli/002323_2014-06-28_20-01-54_260595134347_rgbf000051-resize_4/002323_2014-06-28_20-01-54_260595134347_rgbf000051-resize_4-target.png,depth_discrimination_stimuli/001032_2014-06-08_13-23-17_260595134347_rgbf000021-resize_3/001032_2014-06-08_13-23-17_260595134347_rgbf000021-resize_3-target.png,250,3.731,3.2725,1,1704,512,253,995,248,500,,,,,,1111112,1275151,49
276467,DepthScenes,duration_discrimination,discrim_jsons/shuffled_g0.json,http://54.89.209.186/DepthDuration/depth_discrimination_MTurk/DepthDiscrim_HTML.html#4,4,1440,757,1440,900,7-20-2021,11-42-35,38,depth_discrimination_stimuli/001808_2014-06-26_20-50-58_260595134347_rgbf000029-resize_1/001808_2014-06-26_20-50-58_260595134347_rgbf000029-resize_1-target.png,depth_discrimination_stimuli/002748_2014-06-22_19-07-22_094959634447_rgbf000078-resize_1/002748_2014-06-22_19-07-22_094959634447_rgbf000078-resize_1-target.png,250,4.249,4.6705,0,1329,510,250,998,251,499,,,,,,1111112,1275151,49
276467,DepthScenes,duration_discrimination,discrim_jsons/shuffled_g0.json,http://54.89.209.186/DepthDuration/depth_discrimination_MTurk/DepthDiscrim_HTML.html#4,4,1440,757,1440,900,7-20-2021,11-42-35,39,depth_discrimination_stimuli/002660_2014-06-13_15-44-18_094959634447_rgbf001878-resize_2/002660_2014-06-13_15-44-18_094959634447_rgbf001878-resize_2-target.png,depth_discrimination_stimuli/003081_2014-06-15_15-19-16_094959634447_rgbf000150-resize_1/003081_2014-06-15_15-19-16_094959634447_rgbf000150-resize_1-target.png,1000,3.576,3.9125,1,1963,515,987,1007,996,501,,,,,,1111112,1275151,49
276467,DepthScenes,duration_discrimination,discrim_jsons/shuffled_g0.json,http://54.89.209.186/DepthDuration/depth_discrimination_MTurk/DepthDiscrim_HTML.html#4,4,1440,757,1440,900,7-20-2021,11-42-35,40,depth_discrimination_stimuli/003395_2014-05-20_15-39-18_094959634447_rgbf000101-resize_0/003395_2014-05-20_15-39-18_094959634447_rgbf000101-resize_0-target.png,depth_discrimination_stimuli/001540_2014-06-20_17-01-05_260595134347_rgbf000086-resize_2/001540_2014-06-20_17-01-05_260595134347_rgbf000086-resize_2-target.png,1000,4.835,1.459,1,1983,514,996,994,1017,496,,,,,,1111112,1275151,49
276467,DepthScenes,duration_discrimination,discrim_jsons/shuffled_g0.json,http://54.89.209.186/DepthDuration/depth_discrimination_MTurk/DepthDiscrim_HTML.html#4,4,1440,757,1440,900,7-20-2021,11-42-35,40,,,,,,,1983,514,996,994,1017,496,,,,,,1111112,1275151,49
276467,DepthScenes,duration_discrimination,discrim_jsons/shuffled_g0.json,http://54.89.209.186/DepthDuration/depth_discrimination_MTurk/DepthDiscrim_HTML.html#4,4,1423,757,1440,900,7-20-2021,11-42-35,42,,,,,,,1983,514,996,994,1017,496,,3,3,depth_discrimination_stimuli/003069_2014-06-15_14-57-50_094959634447_rgbf000150-resize_4/003069_2014-06-15_14-57-50_094959634447_rgbf000150-resize-original.jpg,28373,1111112,1275151,49
276467,DepthScenes,duration_discrimination,discrim_jsons/shuffled_g0.json,http://54.89.209.186/DepthDuration/depth_discrimination_MTurk/DepthDiscrim_HTML.html#4,4,1423,757,1440,900,7-20-2021,11-42-35,43,,,,,,,1983,514,996,994,1017,496,,1,5,depth_discrimination_stimuli/003587_2014-05-23_16-48-02_094959634447_rgbf002384-resize_2/003587_2014-05-23_16-48-02_094959634447_rgbf002384-resize-original.jpg,8796,1111112,1275151,49
276467,DepthScenes,duration_discrimination,discrim_jsons/shuffled_g0.json,http://54.89.209.186/DepthDuration/depth_discrimination_MTurk/DepthDiscrim_HTML.html#4,4,1423,757,1440,900,7-20-2021,11-42-35,44,,,,,,,1983,514,996,994,1017,496,,3,5,depth_discrimination_stimuli/003288_2014-05-14_21-50-30_094959634447_rgbf000028-resize_3/003288_2014-05-14_21-50-30_094959634447_rgbf000028-resize-original.jpg,7162,1111112,1275151,49
276467,DepthScenes,duration_discrimination,discrim_jsons/shuffled_g0.json,http://54.89.209.186/DepthDuration/depth_discrimination_MTurk/DepthDiscrim_HTML.html#4,4,1423,757,1440,900,7-20-2021,11-42-35,45,,,,,,,1983,514,996,994,1017,496,,4,5,depth_discrimination_stimuli/001417_2014-06-19_16-25-36_260595134347_rgbf000115-resize_5/001417_2014-06-19_16-25-36_260595134347_rgbf000115-resize-original.jpg,6686,1111112,1275151,49
276467,DepthScenes,duration_discrimination,discrim_jsons/shuffled_g0.json,http://54.89.209.186/DepthDuration/depth_discrimination_MTurk/DepthDiscrim_HTML.html#4,4,1423,757,1440,900,7-20-2021,11-42-35,46,,,,,,,1983,514,996,994,1017,496,,3,5,depth_discrimination_stimuli/000009_2014-05-26_14-32-05_260595134347_rgbf000034-resize_3/000009_2014-05-26_14-32-05_260595134347_rgbf000034-resize-original.jpg,2932,1111112,1275151,49
276467,DepthScenes,duration_discrimination,discrim_jsons/shuffled_g0.json,http://54.89.209.186/DepthDuration/depth_discrimination_MTurk/DepthDiscrim_HTML.html#4,4,1423,757,1440,900,7-20-2021,11-42-35,47,,,,,,,1983,514,996,994,1017,496,,3,5,depth_discrimination_stimuli/003081_2014-06-15_15-19-16_094959634447_rgbf000150-resize_1/003081_2014-06-15_15-19-16_094959634447_rgbf000150-resize-original.jpg,4362,1111112,1275151,49
276467,DepthScenes,duration_discrimination,discrim_jsons/shuffled_g0.json,http://54.89.209.186/DepthDuration/depth_discrimination_MTurk/DepthDiscrim_HTML.html#4,4,1423,757,1440,900,7-20-2021,11-42-35,48,,,,,,,1983,514,996,994,1017,496,,2,5,depth_discrimination_stimuli/000753_2014-06-08_21-57-44_260595134347_rgbf000123-resize_3/000753_2014-06-08_21-57-44_260595134347_rgbf000123-resize-original.jpg,4439,1111112,1275151,49
276467,DepthScenes,duration_discrimination,discrim_jsons/shuffled_g0.json,http://54.89.209.186/DepthDuration/depth_discrimination_MTurk/DepthDiscrim_HTML.html#4,4,1423,757,1440,900,7-20-2021,11-42-35,49,,,,,,,1983,514,996,994,1017,496,,3,5,depth_discrimination_stimuli/001133_2014-06-17_14-49-16_260595134347_rgbf000100-resize_0/001133_2014-06-17_14-49-16_260595134347_rgbf000100-resize-original.jpg,4680,1111112,1275151,49
276467,DepthScenes,duration_discrimination,discrim_jsons/shuffled_g0.json,http://54.89.209.186/DepthDuration/depth_discrimination_MTurk/DepthDiscrim_HTML.html#4,4,1423,757,1440,900,7-20-2021,11-42-35,50,,,,,,,1983,514,996,994,1017,496,,3,3,depth_discrimination_stimuli/000642_2014-06-08_16-59-25_260595134347_rgbf000098-resize_2/000642_2014-06-08_16-59-25_260595134347_rgbf000098-resize-original.jpg,3942,1111112,1275151,49
276467,DepthScenes,duration_discrimination,discrim_jsons/shuffled_g0.json,http://54.89.209.186/DepthDuration/depth_discrimination_MTurk/DepthDiscrim_HTML.html#4,4,1423,757,1440,900,7-20-2021,11-42-35,51,,,,,,,1983,514,996,994,1017,496,,1,3,depth_discrimination_stimuli/002340_2014-06-28_20-05-46_260595134347_rgbf000113-resize_0/002340_2014-06-28_20-05-46_260595134347_rgbf000113-resize-original.jpg,5380,1111112,1275151,49
276467,DepthScenes,duration_discrimination,discrim_jsons/shuffled_g0.json,http://54.89.209.186/DepthDuration/depth_discrimination_MTurk/DepthDiscrim_HTML.html#4,4,1423,757,1440,900,7-20-2021,11-42-35,52,,,,,,,1983,514,996,994,1017,496,,2,3,depth_discrimination_stimuli/001584_2014-06-20_11-07-43_260595134347_rgbf000002-resize_1/001584_2014-06-20_11-07-43_260595134347_rgbf000002-resize-original.jpg,6147,1111112,1275151,49
276467,DepthScenes,duration_discrimination,discrim_jsons/shuffled_g0.json,http://54.89.209.186/DepthDuration/depth_discrimination_MTurk/DepthDiscrim_HTML.html#4,4,1423,757,1440,900,7-20-2021,11-42-35,53,,,,,,,1983,514,996,994,1017,496,,3,5,depth_discrimination_stimuli/001570_2014-06-20_17-21-09_260595134347_rgbf000135-resize_4/001570_2014-06-20_17-21-09_260595134347_rgbf000135-resize-original.jpg,5309,1111112,1275151,49
276467,DepthScenes,duration_discrimination,discrim_jsons/shuffled_g0.json,http://54.89.209.186/DepthDuration/depth_discrimination_MTurk/DepthDiscrim_HTML.html#4,4,1423,757,1440,900,7-20-2021,11-42-35,54,,,,,,,1983,514,996,994,1017,496,,2,5,depth_discrimination_stimuli/001555_2014-06-20_17-12-10_260595134347_rgbf000065-resize_4/001555_2014-06-20_17-12-10_260595134347_rgbf000065-resize-original.jpg,4654,1111112,1275151,49
276467,DepthScenes,duration_discrimination,discrim_jsons/shuffled_g0.json,http://54.89.209.186/DepthDuration/depth_discrimination_MTurk/DepthDiscrim_HTML.html#4,4,1423,757,1440,900,7-20-2021,11-42-35,55,,,,,,,1983,514,996,994,1017,496,,2,5,depth_discrimination_stimuli/002213_2014-06-28_18-37-58_260595134347_rgbf000055-resize_1/002213_2014-06-28_18-37-58_260595134347_rgbf000055-resize-original.jpg,4024,1111112,1275151,49
276467,DepthScenes,duration_discrimination,discrim_jsons/shuffled_g0.json,http://54.89.209.186/DepthDuration/depth_discrimination_MTurk/DepthDiscrim_HTML.html#4,4,1423,757,1440,900,7-20-2021,11-42-35,56,,,,,,,1983,514,996,994,1017,496,,2,4,depth_discrimination_stimuli/001148_2014-06-17_15-26-42_260595134347_rgbf000129-resize_0/001148_2014-06-17_15-26-42_260595134347_rgbf000129-resize-original.jpg,4943,1111112,1275151,49
276467,DepthScenes,duration_discrimination,discrim_jsons/shuffled_g0.json,http://54.89.209.186/DepthDuration/depth_discrimination_MTurk/DepthDiscrim_HTML.html#4,4,1423,757,1440,900,7-20-2021,11-42-35,57,,,,,,,1983,514,996,994,1017,496,,2,2,scene_property_catch_stimuli/sun_bpzzatthlcapxzol.jpg,4829,1111112,1275151,49
276467,DepthScenes,duration_discrimination,discrim_jsons/shuffled_g0.json,http://54.89.209.186/DepthDuration/depth_discrimination_MTurk/DepthDiscrim_HTML.html#4,4,1423,757,1440,900,7-20-2021,11-42-35,58,,,,,,,1983,514,996,994,1017,496,,4,5,scene_property_catch_stimuli/sun_aatxlublfjchvvzu.jpg,4124,1111112,1275151,49
276467,DepthScenes,duration_discrimination,discrim_jsons/shuffled_g0.json,http://54.89.209.186/DepthDuration/depth_discrimination_MTurk/DepthDiscrim_HTML.html#4,4,1423,757,1440,900,7-20-2021,11-42-35,59,,,,,,,1983,514,996,994,1017,496,,2,5,depth_discrimination_stimuli/001214_2014-06-17_16-13-55_260595134347_rgbf000111-resize_0/001214_2014-06-17_16-13-55_260595134347_rgbf000111-resize-original.jpg,3996,1111112,1275151,49
276467,DepthScenes,duration_discrimination,discrim_jsons/shuffled_g0.json,http://54.89.209.186/DepthDuration/depth_discrimination_MTurk/DepthDiscrim_HTML.html#4,4,1423,757,1440,900,7-20-2021,11-42-35,60,,,,,,,1983,514,996,994,1017,496,,2,5,depth_discrimination_stimuli/002305_2014-06-28_19-56-50_260595134347_rgbf000102-resize_7/002305_2014-06-28_19-56-50_260595134347_rgbf000102-resize-original.jpg,3085,1111112,1275151,49
276467,DepthScenes,duration_discrimination,discrim_jsons/shuffled_g0.json,http://54.89.209.186/DepthDuration/depth_discrimination_MTurk/DepthDiscrim_HTML.html#4,4,1423,757,1440,900,7-20-2021,11-42-35,61,,,,,,,1983,514,996,994,1017,496,,2,2,depth_discrimination_stimuli/000773_2014-06-08_22-24-54_260595134347_rgbf000093-resize_1/000773_2014-06-08_22-24-54_260595134347_rgbf000093-resize-original.jpg,4418,1111112,1275151,49
276467,DepthScenes,duration_discrimination,discrim_jsons/shuffled_g0.json,http://54.89.209.186/DepthDuration/depth_discrimination_MTurk/DepthDiscrim_HTML.html#4,4,1423,757,1440,900,7-20-2021,11-42-35,62,,,,,,,1983,514,996,994,1017,496,,2,5,depth_discrimination_stimuli/003079_2014-06-15_15-18-20_094959634447_rgbf000152-resize_8/003079_2014-06-15_15-18-20_094959634447_rgbf000152-resize-original.jpg,4278,1111112,1275151,49
276467,DepthScenes,duration_discrimination,discrim_jsons/shuffled_g0.json,http://54.89.209.186/DepthDuration/depth_discrimination_MTurk/DepthDiscrim_HTML.html#4,4,1423,757,1440,900,7-20-2021,11-42-35,63,,,,,,,1983,514,996,994,1017,496,,3,3,depth_discrimination_stimuli/000549_2014-06-08_22-10-24_260595134347_rgbf000247-resize_3/000549_2014-06-08_22-10-24_260595134347_rgbf000247-resize-original.jpg,5701,1111112,1275151,49
276467,DepthScenes,duration_discrimination,discrim_jsons/shuffled_g0.json,http://54.89.209.186/DepthDuration/depth_discrimination_MTurk/DepthDiscrim_HTML.html#4,4,1423,757,1440,900,7-20-2021,11-42-35,64,,,,,,,1983,514,996,994,1017,496,,2,4,depth_discrimination_stimuli/000854_2014-06-09_19-43-13_260595134347_rgbf000066-resize_0/000854_2014-06-09_19-43-13_260595134347_rgbf000066-resize-original.jpg,4797,1111112,1275151,49
276467,DepthScenes,duration_discrimination,discrim_jsons/shuffled_g0.json,http://54.89.209.186/DepthDuration/depth_discrimination_MTurk/DepthDiscrim_HTML.html#4,4,1423,757,1440,900,7-20-2021,11-42-35,65,,,,,,,1983,514,996,994,1017,496,,3,2,depth_discrimination_stimuli/002964_2014-06-08_17-46-11_094959634447_rgbf000091-resize_4/002964_2014-06-08_17-46-11_094959634447_rgbf000091-resize-original.jpg,7135,1111112,1275151,49
276467,DepthScenes,duration_discrimination,discrim_jsons/shuffled_g0.json,http://54.89.209.186/DepthDuration/depth_discrimination_MTurk/DepthDiscrim_HTML.html#4,4,1423,757,1440,900,7-20-2021,11-42-35,66,,,,,,,1983,514,996,994,1017,496,,3,2,depth_discrimination_stimuli/000739_2014-06-08_18-45-58_260595134347_rgbf000068-resize_1/000739_2014-06-08_18-45-58_260595134347_rgbf000068-resize-original.jpg,6825,1111112,1275151,49
276467,DepthScenes,duration_discrimination,discrim_jsons/shuffled_g0.json,http://54.89.209.186/DepthDuration/depth_discrimination_MTurk/DepthDiscrim_HTML.html#4,4,1423,757,1440,900,7-20-2021,11-42-35,67,,,,,,,1983,514,996,994,1017,496,,3,2,depth_discrimination_stimuli/002464_2014-06-28_20-36-57_260595134347_rgbf000029-resize_0/002464_2014-06-28_20-36-57_260595134347_rgbf000029-resize-original.jpg,4299,1111112,1275151,49
276467,DepthScenes,duration_discrimination,discrim_jsons/shuffled_g0.json,http://54.89.209.186/DepthDuration/depth_discrimination_MTurk/DepthDiscrim_HTML.html#4,4,1423,757,1440,900,7-20-2021,11-42-35,68,,,,,,,1983,514,996,994,1017,496,,3,4,depth_discrimination_stimuli/002153_2014-06-25_21-27-18_260595134347_rgbf000038-resize_5/002153_2014-06-25_21-27-18_260595134347_rgbf000038-resize-original.jpg,4345,1111112,1275151,49
276467,DepthScenes,duration_discrimination,discrim_jsons/shuffled_g0.json,http://54.89.209.186/DepthDuration/depth_discrimination_MTurk/DepthDiscrim_HTML.html#4,4,1423,757,1440,900,7-20-2021,11-42-35,69,,,,,,,1983,514,996,994,1017,496,,3,5,depth_discrimination_stimuli/001447_2014-06-19_17-00-32_260595134347_rgbf000082-resize_5/001447_2014-06-19_17-00-32_260595134347_rgbf000082-resize-original.jpg,5097,1111112,1275151,49
276467,DepthScenes,duration_discrimination,discrim_jsons/shuffled_g0.json,http://54.89.209.186/DepthDuration/depth_discrimination_MTurk/DepthDiscrim_HTML.html#4,4,1423,757,1440,900,7-20-2021,11-42-35,70,,,,,,,1983,514,996,994,1017,496,,2,5,depth_discrimination_stimuli/000906_2014-06-08_13-35-43_260595134347_rgbf000155-resize_1/000906_2014-06-08_13-35-43_260595134347_rgbf000155-resize-original.jpg,3293,1111112,1275151,49
276467,DepthScenes,duration_discrimination,discrim_jsons/shuffled_g0.json,http://54.89.209.186/DepthDuration/depth_discrimination_MTurk/DepthDiscrim_HTML.html#4,4,1423,757,1440,900,7-20-2021,11-42-35,71,,,,,,,1983,514,996,994,1017,496,,2,2,depth_discrimination_stimuli/000800_2014-06-08_22-42-09_260595134347_rgbf000095-resize_3/000800_2014-06-08_22-42-09_260595134347_rgbf000095-resize-original.jpg,3755,1111112,1275151,49
276467,DepthScenes,duration_discrimination,discrim_jsons/shuffled_g0.json,http://54.89.209.186/DepthDuration/depth_discrimination_MTurk/DepthDiscrim_HTML.html#4,4,1423,757,1440,900,7-20-2021,11-42-35,72,,,,,,,1983,514,996,994,1017,496,,2,3,depth_discrimination_stimuli/002637_2014-06-24_14-51-13_094959634447_rgbf000066-resize_4/002637_2014-06-24_14-51-13_094959634447_rgbf000066-resize-original.jpg,2919,1111112,1275151,49
276467,DepthScenes,duration_discrimination,discrim_jsons/shuffled_g0.json,http://54.89.209.186/DepthDuration/depth_discrimination_MTurk/DepthDiscrim_HTML.html#4,4,1423,757,1440,900,7-20-2021,11-42-35,73,,,,,,,1983,514,996,994,1017,496,,2,5,depth_discrimination_stimuli/001136_2014-06-17_15-19-41_260595134347_rgbf000076-resize_3/001136_2014-06-17_15-19-41_260595134347_rgbf000076-resize-original.jpg,5610,1111112,1275151,49
276467,DepthScenes,duration_discrimination,discrim_jsons/shuffled_g0.json,http://54.89.209.186/DepthDuration/depth_discrimination_MTurk/DepthDiscrim_HTML.html#4,4,1423,757,1440,900,7-20-2021,11-42-35,74,,,,,,,1983,514,996,994,1017,496,,1,5,depth_discrimination_stimuli/001618_2014-06-20_11-37-31_260595134347_rgbf000027-resize_3/001618_2014-06-20_11-37-31_260595134347_rgbf000027-resize-original.jpg,6440,1111112,1275151,49
276467,DepthScenes,duration_discrimination,discrim_jsons/shuffled_g0.json,http://54.89.209.186/DepthDuration/depth_discrimination_MTurk/DepthDiscrim_HTML.html#4,4,1423,757,1440,900,7-20-2021,11-42-35,75,,,,,,,1983,514,996,994,1017,496,,1,4,depth_discrimination_stimuli/002323_2014-06-28_20-01-54_260595134347_rgbf000051-resize_4/002323_2014-06-28_20-01-54_260595134347_rgbf000051-resize-original.jpg,3543,1111112,1275151,49
276467,DepthScenes,duration_discrimination,discrim_jsons/shuffled_g0.json,http://54.89.209.186/DepthDuration/depth_discrimination_MTurk/DepthDiscrim_HTML.html#4,4,1423,757,1440,900,7-20-2021,11-42-35,76,,,,,,,1983,514,996,994,1017,496,,3,2,depth_discrimination_stimuli/002509_2014-06-24_13-19-22_094959634447_rgbf000077-resize_0/002509_2014-06-24_13-19-22_094959634447_rgbf000077-resize-original.jpg,11444,1111112,1275151,49
276467,DepthScenes,duration_discrimination,discrim_jsons/shuffled_g0.json,http://54.89.209.186/DepthDuration/depth_discrimination_MTurk/DepthDiscrim_HTML.html#4,4,1423,757,1440,900,7-20-2021,11-42-35,77,,,,,,,1983,514,996,994,1017,496,,3,2,depth_discrimination_stimuli/000740_2014-06-08_18-46-23_260595134347_rgbf000049-resize_6/000740_2014-06-08_18-46-23_260595134347_rgbf000049-resize-original.jpg,4694,1111112,1275151,49
276467,DepthScenes,duration_discrimination,discrim_jsons/shuffled_g0.json,http://54.89.209.186/DepthDuration/depth_discrimination_MTurk/DepthDiscrim_HTML.html#4,4,1423,757,1440,900,7-20-2021,11-42-35,78,,,,,,,1983,514,996,994,1017,496,,3,5,depth_discrimination_stimuli/000691_2014-06-08_13-08-50_260595134347_rgbf000132-resize_3/000691_2014-06-08_13-08-50_260595134347_rgbf000132-resize-original.jpg,2452,1111112,1275151,49
276467,DepthScenes,duration_discrimination,discrim_jsons/shuffled_g0.json,http://54.89.209.186/DepthDuration/depth_discrimination_MTurk/DepthDiscrim_HTML.html#4,4,1423,757,1440,900,7-20-2021,11-42-35,79,,,,,,,1983,514,996,994,1017,496,,2,5,depth_discrimination_stimuli/002549_2014-06-24_13-41-39_094959634447_rgbf000022-resize_3/002549_2014-06-24_13-41-39_094959634447_rgbf000022-resize-original.jpg,4183,1111112,1275151,49
276467,DepthScenes,duration_discrimination,discrim_jsons/shuffled_g0.json,http://54.89.209.186/DepthDuration/depth_discrimination_MTurk/DepthDiscrim_HTML.html#4,4,1423,757,1440,900,7-20-2021,11-42-35,80,,,,,,,1983,514,996,994,1017,496,,2,4,depth_discrimination_stimuli/000457_2014-06-08_16-52-43_260595134347_rgbf000199-resize_1/000457_2014-06-08_16-52-43_260595134347_rgbf000199-resize-original.jpg,3773,1111112,1275151,49
276467,DepthScenes,duration_discrimination,discrim_jsons/shuffled_g0.json,http://54.89.209.186/DepthDuration/depth_discrimination_MTurk/DepthDiscrim_HTML.html#4,4,1423,757,1440,900,7-20-2021,11-42-35,81,,,,,,,1983,514,996,994,1017,496,,2,5,depth_discrimination_stimuli/001617_2014-06-20_11-35-32_260595134347_rgbf000066-resize_1/001617_2014-06-20_11-35-32_260595134347_rgbf000066-resize-original.jpg,3627,1111112,1275151,49
276467,DepthScenes,duration_discrimination,discrim_jsons/shuffled_g0.json,http://54.89.209.186/DepthDuration/depth_discrimination_MTurk/DepthDiscrim_HTML.html#4,4,1423,757,1440,900,7-20-2021,11-42-35,82,,,,,,,1983,514,996,994,1017,496,,2,3,depth_discrimination_stimuli/000780_2014-06-08_22-28-29_260595134347_rgbf000126-resize_1/000780_2014-06-08_22-28-29_260595134347_rgbf000126-resize-original.jpg,2985,1111112,1275151,49
276467,DepthScenes,duration_discrimination,discrim_jsons/shuffled_g0.json,http://54.89.209.186/DepthDuration/depth_discrimination_MTurk/DepthDiscrim_HTML.html#4,4,1423,757,1440,900,7-20-2021,11-42-35,83,,,,,,,1983,514,996,994,1017,496,,2,5,depth_discrimination_stimuli/000502_2014-06-08_23-02-32_260595134347_rgbf000063-resize_4/000502_2014-06-08_23-02-32_260595134347_rgbf000063-resize-original.jpg,3721,1111112,1275151,49
276467,DepthScenes,duration_discrimination,discrim_jsons/shuffled_g0.json,http://54.89.209.186/DepthDuration/depth_discrimination_MTurk/DepthDiscrim_HTML.html#4,4,1423,757,1440,900,7-20-2021,11-42-35,84,,,,,,,1983,514,996,994,1017,496,,4,5,depth_discrimination_stimuli/002570_2014-06-24_13-59-54_094959634447_rgbf000059-resize_0/002570_2014-06-24_13-59-54_094959634447_rgbf000059-resize-original.jpg,3182,1111112,1275151,49
276467,DepthScenes,duration_discrimination,discrim_jsons/shuffled_g0.json,http://54.89.209.186/DepthDuration/depth_discrimination_MTurk/DepthDiscrim_HTML.html#4,4,1423,757,1440,900,7-20-2021,11-42-35,85,,,,,,,1983,514,996,994,1017,496,,3,3,depth_discrimination_stimuli/002989_2014-06-15_12-25-03_094959634447_rgbf000150-resize_3/002989_2014-06-15_12-25-03_094959634447_rgbf000150-resize-original.jpg,5168,1111112,1275151,49
276467,DepthScenes,duration_discrimination,discrim_jsons/shuffled_g0.json,http://54.89.209.186/DepthDuration/depth_discrimination_MTurk/DepthDiscrim_HTML.html#4,4,1423,757,1440,900,7-20-2021,11-42-35,86,,,,,,,1983,514,996,994,1017,496,,3,4,depth_discrimination_stimuli/000447_2014-06-08_16-15-46_260595134347_rgbf000130-resize_1/000447_2014-06-08_16-15-46_260595134347_rgbf000130-resize-original.jpg,4368,1111112,1275151,49
276467,DepthScenes,duration_discrimination,discrim_jsons/shuffled_g0.json,http://54.89.209.186/DepthDuration/depth_discrimination_MTurk/DepthDiscrim_HTML.html#4,4,1423,757,1440,900,7-20-2021,11-42-35,87,,,,,,,1983,514,996,994,1017,496,,3,5,depth_discrimination_stimuli/000191_2014-05-12_17-07-38_260595134347_rgbf000199-resize_0/000191_2014-05-12_17-07-38_260595134347_rgbf000199-resize-original.jpg,5975,1111112,1275151,49
276467,DepthScenes,duration_discrimination,discrim_jsons/shuffled_g0.json,http://54.89.209.186/DepthDuration/depth_discrimination_MTurk/DepthDiscrim_HTML.html#4,4,1423,757,1440,900,7-20-2021,11-42-35,88,,,,,,,1983,514,996,994,1017,496,,3,4,depth_discrimination_stimuli/003423_2014-05-21_10-23-26_094959634447_rgbf002665-resize_2/003423_2014-05-21_10-23-26_094959634447_rgbf002665-resize-original.jpg,5619,1111112,1275151,49
276467,DepthScenes,duration_discrimination,discrim_jsons/shuffled_g0.json,http://54.89.209.186/DepthDuration/depth_discrimination_MTurk/DepthDiscrim_HTML.html#4,4,1423,757,1440,900,7-20-2021,11-42-35,89,,,,,,,1983,514,996,994,1017,496,,4,3,depth_discrimination_stimuli/001724_2014-06-26_19-28-50_260595134347_rgbf000037-resize_7/001724_2014-06-26_19-28-50_260595134347_rgbf000037-resize-original.jpg,5956,1111112,1275151,49
276467,DepthScenes,duration_discrimination,discrim_jsons/shuffled_g0.json,http://54.89.209.186/DepthDuration/depth_discrimination_MTurk/DepthDiscrim_HTML.html#4,4,1423,757,1440,900,7-20-2021,11-42-35,90,,,,,,,1983,514,996,994,1017,496,,2,4,depth_discrimination_stimuli/001052_2014-06-08_18-24-54_260595134347_rgbf000130-resize_1/001052_2014-06-08_18-24-54_260595134347_rgbf000130-resize-original.jpg,5511,1111112,1275151,49
276467,DepthScenes,duration_discrimination,discrim_jsons/shuffled_g0.json,http://54.89.209.186/DepthDuration/depth_discrimination_MTurk/DepthDiscrim_HTML.html#4,4,1423,757,1440,900,7-20-2021,11-42-35,91,,,,,,,1983,514,996,994,1017,496,,2,5,scene_property_catch_stimuli/000675_2014-06-08_22-59-18_260595134347_rgbf000096-resize.jpg,3484,1111112,1275151,49
276467,DepthScenes,duration_discrimination,discrim_jsons/shuffled_g0.json,http://54.89.209.186/DepthDuration/depth_discrimination_MTurk/DepthDiscrim_HTML.html#4,4,1423,757,1440,900,7-20-2021,11-42-35,92,,,,,,,1983,514,996,994,1017,496,,2,5,depth_discrimination_stimuli/003048_2014-06-15_13-49-43_094959634447_rgbf000150-resize_1/003048_2014-06-15_13-49-43_094959634447_rgbf000150-resize-original.jpg,5440,1111112,1275151,49
276467,DepthScenes,duration_discrimination,discrim_jsons/shuffled_g0.json,http://54.89.209.186/DepthDuration/depth_discrimination_MTurk/DepthDiscrim_HTML.html#4,4,1423,757,1440,900,7-20-2021,11-42-35,93,,,,,,,1983,514,996,994,1017,496,,2,3,depth_discrimination_stimuli/002039_2014-06-24_20-22-38_260595134347_rgbf000084-resize_1/002039_2014-06-24_20-22-38_260595134347_rgbf000084-resize-original.jpg,13625,1111112,1275151,49
276467,DepthScenes,duration_discrimination,discrim_jsons/shuffled_g0.json,http://54.89.209.186/DepthDuration/depth_discrimination_MTurk/DepthDiscrim_HTML.html#4,4,1423,757,1440,900,7-20-2021,11-42-35,94,,,,,,,1983,514,996,994,1017,496,,2,3,depth_discrimination_stimuli/000109_2014-05-14_23-41-52_260595134347_rgbf000035-resize_9/000109_2014-05-14_23-41-52_260595134347_rgbf000035-resize-original.jpg,3109,1111112,1275151,49
276467,DepthScenes,duration_discrimination,discrim_jsons/shuffled_g0.json,http://54.89.209.186/DepthDuration/depth_discrimination_MTurk/DepthDiscrim_HTML.html#4,4,1423,757,1440,900,7-20-2021,11-42-35,95,,,,,,,1983,514,996,994,1017,496,,2,5,depth_discrimination_stimuli/000734_2014-06-08_17-39-11_260595134347_rgbf000128-resize_2/000734_2014-06-08_17-39-11_260595134347_rgbf000128-resize-original.jpg,1994,1111112,1275151,49
276467,DepthScenes,duration_discrimination,discrim_jsons/shuffled_g0.json,http://54.89.209.186/DepthDuration/depth_discrimination_MTurk/DepthDiscrim_HTML.html#4,4,1423,757,1440,900,7-20-2021,11-42-35,96,,,,,,,1983,514,996,994,1017,496,,2,5,depth_discrimination_stimuli/000927_2014-06-09_16-32-30_260595134347_rgbf000123-resize_3/000927_2014-06-09_16-32-30_260595134347_rgbf000123-resize-original.jpg,3926,1111112,1275151,49
276467,DepthScenes,duration_discrimination,discrim_jsons/shuffled_g0.json,http://54.89.209.186/DepthDuration/depth_discrimination_MTurk/DepthDiscrim_HTML.html#4,4,1423,757,1440,900,7-20-2021,11-42-35,97,,,,,,,1983,514,996,994,1017,496,,2,5,depth_discrimination_stimuli/000414_2014-06-04_19-49-13_260595134347_rgbf000044-resize_0/000414_2014-06-04_19-49-13_260595134347_rgbf000044-resize-original.jpg,3881,1111112,1275151,49
276467,DepthScenes,duration_discrimination,discrim_jsons/shuffled_g0.json,http://54.89.209.186/DepthDuration/depth_discrimination_MTurk/DepthDiscrim_HTML.html#4,4,1423,757,1440,900,7-20-2021,11-42-35,98,,,,,,,1983,514,996,994,1017,496,,2,5,depth_discrimination_stimuli/000555_2014-06-09_22-42-23_260595134347_rgbf000037-resize_4/000555_2014-06-09_22-42-23_260595134347_rgbf000037-resize-original.jpg,4629,1111112,1275151,49
276467,DepthScenes,duration_discrimination,discrim_jsons/shuffled_g0.json,http://54.89.209.186/DepthDuration/depth_discrimination_MTurk/DepthDiscrim_HTML.html#4,4,1423,757,1440,900,7-20-2021,11-42-35,99,,,,,,,1983,514,996,994,1017,496,,3,3,depth_discrimination_stimuli/001175_2014-06-17_15-45-55_260595134347_rgbf000129-resize_4/001175_2014-06-17_15-45-55_260595134347_rgbf000129-resize-original.jpg,4320,1111112,1275151,49
276467,DepthScenes,duration_discrimination,discrim_jsons/shuffled_g0.json,http://54.89.209.186/DepthDuration/depth_discrimination_MTurk/DepthDiscrim_HTML.html#4,4,1423,757,1440,900,7-20-2021,11-42-35,100,,,,,,,1983,514,996,994,1017,496,,3,1,depth_discrimination_stimuli/000866_2014-06-09_20-45-42_260595134347_rgbf000139-resize_1/000866_2014-06-09_20-45-42_260595134347_rgbf000139-resize-original.jpg,7023,1111112,1275151,49
276467,DepthScenes,duration_discrimination,discrim_jsons/shuffled_g0.json,http://54.89.209.186/DepthDuration/depth_discrimination_MTurk/DepthDiscrim_HTML.html#4,4,1423,757,1440,900,7-20-2021,11-42-35,101,,,,,,,1983,514,996,994,1017,496,,3,2,depth_discrimination_stimuli/003621_2014-05-23_18-06-08_094959634447_rgbf000101-resize_1/003621_2014-05-23_18-06-08_094959634447_rgbf000101-resize-original.jpg,4562,1111112,1275151,49
276467,DepthScenes,duration_discrimination,discrim_jsons/shuffled_g0.json,http://54.89.209.186/DepthDuration/depth_discrimination_MTurk/DepthDiscrim_HTML.html#4,4,1423,757,1440,900,7-20-2021,11-42-35,102,,,,,,,1983,514,996,994,1017,496,,3,5,depth_discrimination_stimuli/000556_2014-06-09_22-42-56_260595134347_rgbf000214-resize_1/000556_2014-06-09_22-42-56_260595134347_rgbf000214-resize-original.jpg,3654,1111112,1275151,49
276467,DepthScenes,duration_discrimination,discrim_jsons/shuffled_g0.json,http://54.89.209.186/DepthDuration/depth_discrimination_MTurk/DepthDiscrim_HTML.html#4,4,1423,757,1440,900,7-20-2021,11-42-35,103,,,,,,,1983,514,996,994,1017,496,,1,5,depth_discrimination_stimuli/002988_2014-06-15_12-24-20_094959634447_rgbf000150-resize_1/002988_2014-06-15_12-24-20_094959634447_rgbf000150-resize-original.jpg,5615,1111112,1275151,49
276467,DepthScenes,duration_discrimination,discrim_jsons/shuffled_g0.json,http://54.89.209.186/DepthDuration/depth_discrimination_MTurk/DepthDiscrim_HTML.html#4,4,1423,757,1440,900,7-20-2021,11-42-35,104,,,,,,,1983,514,996,994,1017,496,,2,5,depth_discrimination_stimuli/000469_2014-06-09_19-42-10_260595134347_rgbf000081-resize_1/000469_2014-06-09_19-42-10_260595134347_rgbf000081-resize-original.jpg,2892,1111112,1275151,49
276467,DepthScenes,duration_discrimination,discrim_jsons/shuffled_g0.json,http://54.89.209.186/DepthDuration/depth_discrimination_MTurk/DepthDiscrim_HTML.html#4,4,1423,757,1440,900,7-20-2021,11-42-35,105,,,,,,,1983,514,996,994,1017,496,,2,3,depth_discrimination_stimuli/002445_2014-06-28_20-32-16_260595134347_rgbf000029-resize_4/002445_2014-06-28_20-32-16_260595134347_rgbf000029-resize-original.jpg,4612,1111112,1275151,49
276467,DepthScenes,duration_discrimination,discrim_jsons/shuffled_g0.json,http://54.89.209.186/DepthDuration/depth_discrimination_MTurk/DepthDiscrim_HTML.html#4,4,1423,757,1440,900,7-20-2021,11-42-35,106,,,,,,,1983,514,996,994,1017,496,,3,5,depth_discrimination_stimuli/002805_2014-06-22_19-54-03_094959634447_rgbf000079-resize_1/002805_2014-06-22_19-54-03_094959634447_rgbf000079-resize-original.jpg,2580,1111112,1275151,49
276467,DepthScenes,duration_discrimination,discrim_jsons/shuffled_g0.json,http://54.89.209.186/DepthDuration/depth_discrimination_MTurk/DepthDiscrim_HTML.html#4,4,1423,757,1440,900,7-20-2021,11-42-35,107,,,,,,,1983,514,996,994,1017,496,,2,5,depth_discrimination_stimuli/001094_2014-06-15_17-36-00_260595134347_rgbf000205-resize_0/001094_2014-06-15_17-36-00_260595134347_rgbf000205-resize-original.jpg,3846,1111112,1275151,49
276467,DepthScenes,duration_discrimination,discrim_jsons/shuffled_g0.json,http://54.89.209.186/DepthDuration/depth_discrimination_MTurk/DepthDiscrim_HTML.html#4,4,1423,757,1440,900,7-20-2021,11-42-35,108,,,,,,,1983,514,996,994,1017,496,,2,5,depth_discrimination_stimuli/001110_2014-06-15_17-25-28_260595134347_rgbf000150-resize_1/001110_2014-06-15_17-25-28_260595134347_rgbf000150-resize-original.jpg,3437,1111112,1275151,49
276467,DepthScenes,duration_discrimination,discrim_jsons/shuffled_g0.json,http://54.89.209.186/DepthDuration/depth_discrimination_MTurk/DepthDiscrim_HTML.html#4,4,1423,757,1440,900,7-20-2021,11-42-35,109,,,,,,,1983,514,996,994,1017,496,,2,5,depth_discrimination_stimuli/001016_2014-06-09_16-16-10_260595134347_rgbf000112-resize_5/001016_2014-06-09_16-16-10_260595134347_rgbf000112-resize-original.jpg,2826,1111112,1275151,49
276467,DepthScenes,duration_discrimination,discrim_jsons/shuffled_g0.json,http://54.89.209.186/DepthDuration/depth_discrimination_MTurk/DepthDiscrim_HTML.html#4,4,1423,757,1440,900,7-20-2021,11-42-35,110,,,,,,,1983,514,996,994,1017,496,,3,4,depth_discrimination_stimuli/000929_2014-06-09_16-33-19_260595134347_rgbf000139-resize_0/000929_2014-06-09_16-33-19_260595134347_rgbf000139-resize-original.jpg,4084,1111112,1275151,49
276467,DepthScenes,duration_discrimination,discrim_jsons/shuffled_g0.json,http://54.89.209.186/DepthDuration/depth_discrimination_MTurk/DepthDiscrim_HTML.html#4,4,1423,757,1440,900,7-20-2021,11-42-35,111,,,,,,,1983,514,996,994,1017,496,,2,3,depth_discrimination_stimuli/002660_2014-06-13_15-44-18_094959634447_rgbf001878-resize_2/002660_2014-06-13_15-44-18_094959634447_rgbf001878-resize-original.jpg,5764,1111112,1275151,49
276467,DepthScenes,duration_discrimination,discrim_jsons/shuffled_g0.json,http://54.89.209.186/DepthDuration/depth_discrimination_MTurk/DepthDiscrim_HTML.html#4,4,1423,757,1440,900,7-20-2021,11-42-35,112,,,,,,,1983,514,996,994,1017,496,,2,2,depth_discrimination_stimuli/000869_2014-06-09_20-50-18_260595134347_rgbf000060-resize_3/000869_2014-06-09_20-50-18_260595134347_rgbf000060-resize-original.jpg,4388,1111112,1275151,49
276467,DepthScenes,duration_discrimination,discrim_jsons/shuffled_g0.json,http://54.89.209.186/DepthDuration/depth_discrimination_MTurk/DepthDiscrim_HTML.html#4,4,1423,757,1440,900,7-20-2021,11-42-35,113,,,,,,,1983,514,996,994,1017,496,,3,2,depth_discrimination_stimuli/002663_2014-06-13_15-50-26_094959634447_rgbf000075-resize_1/002663_2014-06-13_15-50-26_094959634447_rgbf000075-resize-original.jpg,3944,1111112,1275151,49
276467,DepthScenes,duration_discrimination,discrim_jsons/shuffled_g0.json,http://54.89.209.186/DepthDuration/depth_discrimination_MTurk/DepthDiscrim_HTML.html#4,4,1423,757,1440,900,7-20-2021,11-42-35,114,,,,,,,1983,514,996,994,1017,496,,3,3,depth_discrimination_stimuli/000735_2014-06-08_18-23-50_260595134347_rgbf000163-resize_2/000735_2014-06-08_18-23-50_260595134347_rgbf000163-resize-original.jpg,5364,1111112,1275151,49
276467,DepthScenes,duration_discrimination,discrim_jsons/shuffled_g0.json,http://54.89.209.186/DepthDuration/depth_discrimination_MTurk/DepthDiscrim_HTML.html#4,4,1423,757,1440,900,7-20-2021,11-42-35,115,,,,,,,1983,514,996,994,1017,496,,3,5,depth_discrimination_stimuli/002425_2014-06-28_20-27-29_260595134347_rgbf000031-resize_8/002425_2014-06-28_20-27-29_260595134347_rgbf000031-resize-original.jpg,4077,1111112,1275151,49
276467,DepthScenes,duration_discrimination,discrim_jsons/shuffled_g0.json,http://54.89.209.186/DepthDuration/depth_discrimination_MTurk/DepthDiscrim_HTML.html#4,4,1423,757,1440,900,7-20-2021,11-42-35,116,,,,,,,1983,514,996,994,1017,496,,3,5,depth_discrimination_stimuli/001181_2014-06-17_15-50-57_260595134347_rgbf000106-resize_4/001181_2014-06-17_15-50-57_260595134347_rgbf000106-resize-original.jpg,3161,1111112,1275151,49
276467,DepthScenes,duration_discrimination,discrim_jsons/shuffled_g0.json,http://54.89.209.186/DepthDuration/depth_discrimination_MTurk/DepthDiscrim_HTML.html#4,4,1423,757,1440,900,7-20-2021,11-42-35,117,,,,,,,1983,514,996,994,1017,496,,3,2,depth_discrimination_stimuli/002579_2014-06-24_14-08-03_094959634447_rgbf000061-resize_2/002579_2014-06-24_14-08-03_094959634447_rgbf000061-resize-original.jpg,3432,1111112,1275151,49
276467,DepthScenes,duration_discrimination,discrim_jsons/shuffled_g0.json,http://54.89.209.186/DepthDuration/depth_discrimination_MTurk/DepthDiscrim_HTML.html#4,4,1423,757,1440,900,7-20-2021,11-42-35,118,,,,,,,1983,514,996,994,1017,496,,2,5,depth_discrimination_stimuli/002199_2014-06-28_18-33-56_260595134347_rgbf000074-resize_0/002199_2014-06-28_18-33-56_260595134347_rgbf000074-resize-original.jpg,6550,1111112,1275151,49
276467,DepthScenes,duration_discrimination,discrim_jsons/shuffled_g0.json,http://54.89.209.186/DepthDuration/depth_discrimination_MTurk/DepthDiscrim_HTML.html#4,4,1423,757,1440,900,7-20-2021,11-42-35,119,,,,,,,1983,514,996,994,1017,496,,4,3,depth_discrimination_stimuli/002748_2014-06-22_19-07-22_094959634447_rgbf000078-resize_1/002748_2014-06-22_19-07-22_094959634447_rgbf000078-resize-original.jpg,8748,1111112,1275151,49
276467,DepthScenes,duration_discrimination,discrim_jsons/shuffled_g0.json,http://54.89.209.186/DepthDuration/depth_discrimination_MTurk/DepthDiscrim_HTML.html#4,4,1423,757,1440,900,7-20-2021,11-42-35,120,,,,,,,1983,514,996,994,1017,496,,2,5,depth_discrimination_stimuli/001449_2014-06-19_17-01-27_260595134347_rgbf000116-resize_2/001449_2014-06-19_17-01-27_260595134347_rgbf000116-resize-original.jpg,4783,1111112,1275151,49
276467,DepthScenes,duration_discrimination,discrim_jsons/shuffled_g0.json,http://54.89.209.186/DepthDuration/depth_discrimination_MTurk/DepthDiscrim_HTML.html#4,4,1423,757,1440,900,7-20-2021,11-42-35,121,,,,,,,1983,514,996,994,1017,496,,3,5,depth_discrimination_stimuli/001810_2014-06-26_20-51-35_260595134347_rgbf000040-resize_3/001810_2014-06-26_20-51-35_260595134347_rgbf000040-resize-original.jpg,22879,1111112,1275151,49
276467,DepthScenes,duration_discrimination,discrim_jsons/shuffled_g0.json,http://54.89.209.186/DepthDuration/depth_discrimination_MTurk/DepthDiscrim_HTML.html#4,4,1423,757,1440,900,7-20-2021,11-42-35,122,,,,,,,1983,514,996,994,1017,496,,2,3,depth_discrimination_stimuli/001032_2014-06-08_13-23-17_260595134347_rgbf000021-resize_3/001032_2014-06-08_13-23-17_260595134347_rgbf000021-resize-original.jpg,3339,1111112,1275151,49
276467,DepthScenes,duration_discrimination,discrim_jsons/shuffled_g0.json,http://54.89.209.186/DepthDuration/depth_discrimination_MTurk/DepthDiscrim_HTML.html#4,4,1423,757,1440,900,7-20-2021,11-42-35,123,,,,,,,1983,514,996,994,1017,496,,2,5,depth_discrimination_stimuli/000830_2014-06-04_19-49-31_260595134347_rgbf000096-resize_2/000830_2014-06-04_19-49-31_260595134347_rgbf000096-resize-original.jpg,2989,1111112,1275151,49
276467,DepthScenes,duration_discrimination,discrim_jsons/shuffled_g0.json,http://54.89.209.186/DepthDuration/depth_discrimination_MTurk/DepthDiscrim_HTML.html#4,4,1423,757,1440,900,7-20-2021,11-42-35,124,,,,,,,1983,514,996,994,1017,496,,1,5,depth_discrimination_stimuli/002103_2014-06-25_20-00-40_260595134347_rgbf000049-resize_0/002103_2014-06-25_20-00-40_260595134347_rgbf000049-resize-original.jpg,3403,1111112,1275151,49
276467,DepthScenes,duration_discrimination,discrim_jsons/shuffled_g0.json,http://54.89.209.186/DepthDuration/depth_discrimination_MTurk/DepthDiscrim_HTML.html#4,4,1423,757,1440,900,7-20-2021,11-42-35,125,,,,,,,1983,514,996,994,1017,496,,2,5,depth_discrimination_stimuli/001167_2014-06-17_15-38-07_260595134347_rgbf000108-resize_0/001167_2014-06-17_15-38-07_260595134347_rgbf000108-resize-original.jpg,4251,1111112,1275151,49
276467,DepthScenes,duration_discrimination,discrim_jsons/shuffled_g0.json,http://54.89.209.186/DepthDuration/depth_discrimination_MTurk/DepthDiscrim_HTML.html#4,4,1423,757,1440,900,7-20-2021,11-42-35,126,,,,,,,1983,514,996,994,1017,496,,1,5,depth_discrimination_stimuli/002344_2014-06-28_20-06-29_260595134347_rgbf000030-resize_1/002344_2014-06-28_20-06-29_260595134347_rgbf000030-resize-original.jpg,2738,1111112,1275151,49
276467,DepthScenes,duration_discrimination,discrim_jsons/shuffled_g0.json,http://54.89.209.186/DepthDuration/depth_discrimination_MTurk/DepthDiscrim_HTML.html#4,4,1423,757,1440,900,7-20-2021,11-42-35,127,,,,,,,1983,514,996,994,1017,496,,1,5,depth_discrimination_stimuli/002987_2014-06-08_18-48-20_094959634447_rgbf000022-resize_0/002987_2014-06-08_18-48-20_094959634447_rgbf000022-resize-original.jpg,2840,1111112,1275151,49
276467,DepthScenes,duration_discrimination,discrim_jsons/shuffled_g0.json,http://54.89.209.186/DepthDuration/depth_discrimination_MTurk/DepthDiscrim_HTML.html#4,4,1423,757,1440,900,7-20-2021,11-42-35,128,,,,,,,1983,514,996,994,1017,496,,2,5,depth_discrimination_stimuli/000943_2014-06-09_19-31-07_260595134347_rgbf000128-resize_1/000943_2014-06-09_19-31-07_260595134347_rgbf000128-resize-original.jpg,2852,1111112,1275151,49
276467,DepthScenes,duration_discrimination,discrim_jsons/shuffled_g0.json,http://54.89.209.186/DepthDuration/depth_discrimination_MTurk/DepthDiscrim_HTML.html#4,4,1423,757,1440,900,7-20-2021,11-42-35,129,,,,,,,1983,514,996,994,1017,496,,3,3,depth_discrimination_stimuli/000486_2014-06-09_20-47-20_260595134347_rgbf000143-resize_2/000486_2014-06-09_20-47-20_260595134347_rgbf000143-resize-original.jpg,4241,1111112,1275151,49
276467,DepthScenes,duration_discrimination,discrim_jsons/shuffled_g0.json,http://54.89.209.186/DepthDuration/depth_discrimination_MTurk/DepthDiscrim_HTML.html#4,4,1423,757,1440,900,7-20-2021,11-42-35,130,,,,,,,1983,514,996,994,1017,496,,3,3,depth_discrimination_stimuli/003546_2014-05-22_15-48-53_094959634447_rgbf004816-resize_3/003546_2014-05-22_15-48-53_094959634447_rgbf004816-resize-original.jpg,3946,1111112,1275151,49
276467,DepthScenes,duration_discrimination,discrim_jsons/shuffled_g0.json,http://54.89.209.186/DepthDuration/depth_discrimination_MTurk/DepthDiscrim_HTML.html#4,4,1423,757,1440,900,7-20-2021,11-42-35,131,,,,,,,1983,514,996,994,1017,496,,2,5,depth_discrimination_stimuli/002414_2014-06-28_20-24-58_260595134347_rgbf000067-resize_4/002414_2014-06-28_20-24-58_260595134347_rgbf000067-resize-original.jpg,2560,1111112,1275151,49
276467,DepthScenes,duration_discrimination,discrim_jsons/shuffled_g0.json,http://54.89.209.186/DepthDuration/depth_discrimination_MTurk/DepthDiscrim_HTML.html#4,4,1423,757,1440,900,7-20-2021,11-42-35,132,,,,,,,1983,514,996,994,1017,496,,1,4,depth_discrimination_stimuli/002953_2014-06-08_17-32-18_094959634447_rgbf000059-resize_5/002953_2014-06-08_17-32-18_094959634447_rgbf000059-resize-original.jpg,4118,1111112,1275151,49
276467,DepthScenes,duration_discrimination,discrim_jsons/shuffled_g0.json,http://54.89.209.186/DepthDuration/depth_discrimination_MTurk/DepthDiscrim_HTML.html#4,4,1423,757,1440,900,7-20-2021,11-42-35,133,,,,,,,1983,514,996,994,1017,496,,3,3,depth_discrimination_stimuli/003492_2014-05-21_15-50-55_094959634447_rgbf000828-resize_1/003492_2014-05-21_15-50-55_094959634447_rgbf000828-resize-original.jpg,3692,1111112,1275151,49
276467,DepthScenes,duration_discrimination,discrim_jsons/shuffled_g0.json,http://54.89.209.186/DepthDuration/depth_discrimination_MTurk/DepthDiscrim_HTML.html#4,4,1423,757,1440,900,7-20-2021,11-42-35,134,,,,,,,1983,514,996,994,1017,496,,2,5,depth_discrimination_stimuli/002750_2014-06-22_19-08-03_094959634447_rgbf000094-resize_4/002750_2014-06-22_19-08-03_094959634447_rgbf000094-resize-original.jpg,4374,1111112,1275151,49
276467,DepthScenes,duration_discrimination,discrim_jsons/shuffled_g0.json,http://54.89.209.186/DepthDuration/depth_discrimination_MTurk/DepthDiscrim_HTML.html#4,4,1423,757,1440,900,7-20-2021,11-42-35,135,,,,,,,1983,514,996,994,1017,496,,2,5,depth_discrimination_stimuli/000635_2014-06-08_16-38-42_260595134347_rgbf000106-resize_1/000635_2014-06-08_16-38-42_260595134347_rgbf000106-resize-original.jpg,2616,1111112,1275151,49
276467,DepthScenes,duration_discrimination,discrim_jsons/shuffled_g0.json,http://54.89.209.186/DepthDuration/depth_discrimination_MTurk/DepthDiscrim_HTML.html#4,4,1423,757,1440,900,7-20-2021,11-42-35,136,,,,,,,1983,514,996,994,1017,496,,2,4,depth_discrimination_stimuli/003070_2014-06-15_14-58-27_094959634447_rgbf000150-resize_3/003070_2014-06-15_14-58-27_094959634447_rgbf000150-resize-original.jpg,4852,1111112,1275151,49
276467,DepthScenes,duration_discrimination,discrim_jsons/shuffled_g0.json,http://54.89.209.186/DepthDuration/depth_discrimination_MTurk/DepthDiscrim_HTML.html#4,4,1423,757,1440,900,7-20-2021,11-42-35,137,,,,,,,1983,514,996,994,1017,496,,2,4,depth_discrimination_stimuli/002995_2014-06-15_12-31-26_094959634447_rgbf000150-resize_1/002995_2014-06-15_12-31-26_094959634447_rgbf000150-resize-original.jpg,5091,1111112,1275151,49
276467,DepthScenes,duration_discrimination,discrim_jsons/shuffled_g0.json,http://54.89.209.186/DepthDuration/depth_discrimination_MTurk/DepthDiscrim_HTML.html#4,4,1423,757,1440,900,7-20-2021,11-42-35,138,,,,,,,1983,514,996,994,1017,496,,3,3,depth_discrimination_stimuli/000522_2014-06-08_13-35-06_260595134347_rgbf000244-resize_1/000522_2014-06-08_13-35-06_260595134347_rgbf000244-resize-original.jpg,3468,1111112,1275151,49
276467,DepthScenes,duration_discrimination,discrim_jsons/shuffled_g0.json,http://54.89.209.186/DepthDuration/depth_discrimination_MTurk/DepthDiscrim_HTML.html#4,4,1423,757,1440,900,7-20-2021,11-42-35,139,,,,,,,1983,514,996,994,1017,496,,2,5,depth_discrimination_stimuli/001806_2014-06-26_20-50-20_260595134347_rgbf000091-resize_1/001806_2014-06-26_20-50-20_260595134347_rgbf000091-resize-original.jpg,3464,1111112,1275151,49
276467,DepthScenes,duration_discrimination,discrim_jsons/shuffled_g0.json,http://54.89.209.186/DepthDuration/depth_discrimination_MTurk/DepthDiscrim_HTML.html#4,4,1423,757,1440,900,7-20-2021,11-42-35,140,,,,,,,1983,514,996,994,1017,496,,1,4,depth_discrimination_stimuli/002763_2014-06-22_19-13-10_094959634447_rgbf000075-resize_4/002763_2014-06-22_19-13-10_094959634447_rgbf000075-resize-original.jpg,4718,1111112,1275151,49
276467,DepthScenes,duration_discrimination,discrim_jsons/shuffled_g0.json,http://54.89.209.186/DepthDuration/depth_discrimination_MTurk/DepthDiscrim_HTML.html#4,4,1423,757,1440,900,7-20-2021,11-42-35,141,,,,,,,1983,514,996,994,1017,496,,1,4,depth_discrimination_stimuli/002131_2014-06-25_21-12-01_260595134347_rgbf000083-resize_0/002131_2014-06-25_21-12-01_260595134347_rgbf000083-resize-original.jpg,3818,1111112,1275151,49
276467,DepthScenes,duration_discrimination,discrim_jsons/shuffled_g0.json,http://54.89.209.186/DepthDuration/depth_discrimination_MTurk/DepthDiscrim_HTML.html#4,4,1423,757,1440,900,7-20-2021,11-42-35,142,,,,,,,1983,514,996,994,1017,496,,3,3,depth_discrimination_stimuli/001450_2014-06-19_17-02-03_260595134347_rgbf000203-resize_4/001450_2014-06-19_17-02-03_260595134347_rgbf000203-resize-original.jpg,4843,1111112,1275151,49
276467,DepthScenes,duration_discrimination,discrim_jsons/shuffled_g0.json,http://54.89.209.186/DepthDuration/depth_discrimination_MTurk/DepthDiscrim_HTML.html#4,4,1423,757,1440,900,7-20-2021,11-42-35,143,,,,,,,1983,514,996,994,1017,496,,3,4,depth_discrimination_stimuli/001150_2014-06-17_15-27-34_260595134347_rgbf000108-resize_2/001150_2014-06-17_15-27-34_260595134347_rgbf000108-resize-original.jpg,3517,1111112,1275151,49
276467,DepthScenes,duration_discrimination,discrim_jsons/shuffled_g0.json,http://54.89.209.186/DepthDuration/depth_discrimination_MTurk/DepthDiscrim_HTML.html#4,4,1423,757,1440,900,7-20-2021,11-42-35,144,,,,,,,1983,514,996,994,1017,496,,3,4,depth_discrimination_stimuli/003490_2014-05-21_15-50-11_094959634447_rgbf000101-resize_3/003490_2014-05-21_15-50-11_094959634447_rgbf000101-resize-original.jpg,3572,1111112,1275151,49
276467,DepthScenes,duration_discrimination,discrim_jsons/shuffled_g0.json,http://54.89.209.186/DepthDuration/depth_discrimination_MTurk/DepthDiscrim_HTML.html#4,4,1423,757,1440,900,7-20-2021,11-42-35,145,,,,,,,1983,514,996,994,1017,496,,2,5,depth_discrimination_stimuli/001571_2014-06-20_17-21-32_260595134347_rgbf000089-resize_1/001571_2014-06-20_17-21-32_260595134347_rgbf000089-resize-original.jpg,2599,1111112,1275151,49
276467,DepthScenes,duration_discrimination,discrim_jsons/shuffled_g0.json,http://54.89.209.186/DepthDuration/depth_discrimination_MTurk/DepthDiscrim_HTML.html#4,4,1423,757,1440,900,7-20-2021,11-42-35,146,,,,,,,1983,514,996,994,1017,496,,3,3,depth_discrimination_stimuli/003228_2014-05-14_13-42-35_094959634447_rgbf000101-resize_1/003228_2014-05-14_13-42-35_094959634447_rgbf000101-resize-original.jpg,4213,1111112,1275151,49
276467,DepthScenes,duration_discrimination,discrim_jsons/shuffled_g0.json,http://54.89.209.186/DepthDuration/depth_discrimination_MTurk/DepthDiscrim_HTML.html#4,4,1423,757,1440,900,7-20-2021,11-42-35,147,,,,,,,1983,514,996,994,1017,496,,2,4,depth_discrimination_stimuli/000483_2014-06-09_20-41-45_260595134347_rgbf000116-resize_4/000483_2014-06-09_20-41-45_260595134347_rgbf000116-resize-original.jpg,3956,1111112,1275151,49
276467,DepthScenes,duration_discrimination,discrim_jsons/shuffled_g0.json,http://54.89.209.186/DepthDuration/depth_discrimination_MTurk/DepthDiscrim_HTML.html#4,4,1423,757,1440,900,7-20-2021,11-42-35,148,,,,,,,1983,514,996,994,1017,496,,2,5,depth_discrimination_stimuli/001029_2014-06-08_13-17-57_260595134347_rgbf000065-resize_1/001029_2014-06-08_13-17-57_260595134347_rgbf000065-resize-original.jpg,3044,1111112,1275151,49
276467,DepthScenes,duration_discrimination,discrim_jsons/shuffled_g0.json,http://54.89.209.186/DepthDuration/depth_discrimination_MTurk/DepthDiscrim_HTML.html#4,4,1423,757,1440,900,7-20-2021,11-42-35,149,,,,,,,1983,514,996,994,1017,496,,2,4,depth_discrimination_stimuli/003338_2014-05-20_11-01-23_094959634447_rgbf000051-resize_6/003338_2014-05-20_11-01-23_094959634447_rgbf000051-resize-original.jpg,4699,1111112,1275151,49
276467,DepthScenes,duration_discrimination,discrim_jsons/shuffled_g0.json,http://54.89.209.186/DepthDuration/depth_discrimination_MTurk/DepthDiscrim_HTML.html#4,4,1423,757,1440,900,7-20-2021,11-42-35,150,,,,,,,1983,514,996,994,1017,496,,3,5,depth_discrimination_stimuli/001059_2014-06-08_21-53-27_260595134347_rgbf000061-resize_4/001059_2014-06-08_21-53-27_260595134347_rgbf000061-resize-original.jpg,5962,1111112,1275151,49
276467,DepthScenes,duration_discrimination,discrim_jsons/shuffled_g0.json,http://54.89.209.186/DepthDuration/depth_discrimination_MTurk/DepthDiscrim_HTML.html#4,4,1423,757,1440,900,7-20-2021,11-42-35,151,,,,,,,1983,514,996,994,1017,496,,3,3,depth_discrimination_stimuli/000736_2014-06-08_18-24-15_260595134347_rgbf000206-resize_3/000736_2014-06-08_18-24-15_260595134347_rgbf000206-resize-original.jpg,3640,1111112,1275151,49
276467,DepthScenes,duration_discrimination,discrim_jsons/shuffled_g0.json,http://54.89.209.186/DepthDuration/depth_discrimination_MTurk/DepthDiscrim_HTML.html#4,4,1423,757,1440,900,7-20-2021,11-42-35,152,,,,,,,1983,514,996,994,1017,496,,2,4,depth_discrimination_stimuli/002467_2014-06-28_20-38-07_260595134347_rgbf000026-resize_2/002467_2014-06-28_20-38-07_260595134347_rgbf000026-resize-original.jpg,3810,1111112,1275151,49
276467,DepthScenes,duration_discrimination,discrim_jsons/shuffled_g0.json,http://54.89.209.186/DepthDuration/depth_discrimination_MTurk/DepthDiscrim_HTML.html#4,4,1423,757,1440,900,7-20-2021,11-42-35,153,,,,,,,1983,514,996,994,1017,496,,3,4,depth_discrimination_stimuli/002678_2014-06-13_16-15-32_094959634447_rgbf000151-resize_6/002678_2014-06-13_16-15-32_094959634447_rgbf000151-resize-original.jpg,3925,1111112,1275151,49
276467,DepthScenes,duration_discrimination,discrim_jsons/shuffled_g0.json,http://54.89.209.186/DepthDuration/depth_discrimination_MTurk/DepthDiscrim_HTML.html#4,4,1423,757,1440,900,7-20-2021,11-42-35,154,,,,,,,1983,514,996,994,1017,496,,2,3,depth_discrimination_stimuli/000720_2014-06-08_18-37-27_260595134347_rgbf000203-resize_4/000720_2014-06-08_18-37-27_260595134347_rgbf000203-resize-original.jpg,4112,1111112,1275151,49
276467,DepthScenes,duration_discrimination,discrim_jsons/shuffled_g0.json,http://54.89.209.186/DepthDuration/depth_discrimination_MTurk/DepthDiscrim_HTML.html#4,4,1423,757,1440,900,7-20-2021,11-42-35,155,,,,,,,1983,514,996,994,1017,496,,4,4,depth_discrimination_stimuli/002118_2014-06-25_20-32-08_260595134347_rgbf000078-resize_1/002118_2014-06-25_20-32-08_260595134347_rgbf000078-resize-original.jpg,9449,1111112,1275151,49
276467,DepthScenes,duration_discrimination,discrim_jsons/shuffled_g0.json,http://54.89.209.186/DepthDuration/depth_discrimination_MTurk/DepthDiscrim_HTML.html#4,4,1423,757,1440,900,7-20-2021,11-42-35,156,,,,,,,1983,514,996,994,1017,496,,2,4,depth_discrimination_stimuli/000742_2014-06-08_18-48-09_260595134347_rgbf000164-resize_4/000742_2014-06-08_18-48-09_260595134347_rgbf000164-resize-original.jpg,8517,1111112,1275151,49
276467,DepthScenes,duration_discrimination,discrim_jsons/shuffled_g0.json,http://54.89.209.186/DepthDuration/depth_discrimination_MTurk/DepthDiscrim_HTML.html#4,4,1423,757,1440,900,7-20-2021,11-42-35,157,,,,,,,1983,514,996,994,1017,496,,3,4,depth_discrimination_stimuli/001188_2014-06-17_15-54-10_260595134347_rgbf000090-resize_2/001188_2014-06-17_15-54-10_260595134347_rgbf000090-resize-original.jpg,2650,1111112,1275151,49
276467,DepthScenes,duration_discrimination,discrim_jsons/shuffled_g0.json,http://54.89.209.186/DepthDuration/depth_discrimination_MTurk/DepthDiscrim_HTML.html#4,4,1423,757,1440,900,7-20-2021,11-42-35,158,,,,,,,1983,514,996,994,1017,496,,2,5,depth_discrimination_stimuli/000709_2014-06-08_13-51-55_260595134347_rgbf000068-resize_3/000709_2014-06-08_13-51-55_260595134347_rgbf000068-resize-original.jpg,5532,1111112,1275151,49
276467,DepthScenes,duration_discrimination,discrim_jsons/shuffled_g0.json,http://54.89.209.186/DepthDuration/depth_discrimination_MTurk/DepthDiscrim_HTML.html#4,4,1423,757,1440,900,7-20-2021,11-42-35,159,,,,,,,1983,514,996,994,1017,496,,2,4,depth_discrimination_stimuli/000505_2014-06-08_23-03-23_260595134347_rgbf000091-resize_0/000505_2014-06-08_23-03-23_260595134347_rgbf000091-resize-original.jpg,3431,1111112,1275151,49
276467,DepthScenes,duration_discrimination,discrim_jsons/shuffled_g0.json,http://54.89.209.186/DepthDuration/depth_discrimination_MTurk/DepthDiscrim_HTML.html#4,4,1423,757,1440,900,7-20-2021,11-42-35,160,,,,,,,1983,514,996,994,1017,496,,1,4,depth_discrimination_stimuli/002057_2014-06-24_21-00-13_260595134347_rgbf000120-resize_1/002057_2014-06-24_21-00-13_260595134347_rgbf000120-resize-original.jpg,4959,1111112,1275151,49
276467,DepthScenes,duration_discrimination,discrim_jsons/shuffled_g0.json,http://54.89.209.186/DepthDuration/depth_discrimination_MTurk/DepthDiscrim_HTML.html#4,4,1423,757,1440,900,7-20-2021,11-42-35,161,,,,,,,1983,514,996,994,1017,496,,2,5,depth_discrimination_stimuli/002365_2014-06-28_20-11-21_260595134347_rgbf000102-resize_1/002365_2014-06-28_20-11-21_260595134347_rgbf000102-resize-original.jpg,3639,1111112,1275151,49
276467,DepthScenes,duration_discrimination,discrim_jsons/shuffled_g0.json,http://54.89.209.186/DepthDuration/depth_discrimination_MTurk/DepthDiscrim_HTML.html#4,4,1423,757,1440,900,7-20-2021,11-42-35,162,,,,,,,1983,514,996,994,1017,496,,1,5,depth_discrimination_stimuli/001516_2014-06-20_16-25-09_260595134347_rgbf000076-resize_2/001516_2014-06-20_16-25-09_260595134347_rgbf000076-resize-original.jpg,3151,1111112,1275151,49
276467,DepthScenes,duration_discrimination,discrim_jsons/shuffled_g0.json,http://54.89.209.186/DepthDuration/depth_discrimination_MTurk/DepthDiscrim_HTML.html#4,4,1423,757,1440,900,7-20-2021,11-42-35,163,,,,,,,1983,514,996,994,1017,496,,2,5,depth_discrimination_stimuli/002444_2014-06-28_20-32-08_260595134347_rgbf000027-resize_0/002444_2014-06-28_20-32-08_260595134347_rgbf000027-resize-original.jpg,3525,1111112,1275151,49
276467,DepthScenes,duration_discrimination,discrim_jsons/shuffled_g0.json,http://54.89.209.186/DepthDuration/depth_discrimination_MTurk/DepthDiscrim_HTML.html#4,4,1423,757,1440,900,7-20-2021,11-42-35,164,,,,,,,1983,514,996,994,1017,496,,1,5,depth_discrimination_stimuli/002139_2014-06-25_21-19-37_260595134347_rgbf000124-resize_2/002139_2014-06-25_21-19-37_260595134347_rgbf000124-resize-original.jpg,3195,1111112,1275151,49
276467,DepthScenes,duration_discrimination,discrim_jsons/shuffled_g0.json,http://54.89.209.186/DepthDuration/depth_discrimination_MTurk/DepthDiscrim_HTML.html#4,4,1423,757,1440,900,7-20-2021,11-42-35,165,,,,,,,1983,514,996,994,1017,496,,2,4,depth_discrimination_stimuli/000436_2014-06-09_22-25-11_260595134347_rgbf000137-resize_1/000436_2014-06-09_22-25-11_260595134347_rgbf000137-resize-original.jpg,2898,1111112,1275151,49
276467,DepthScenes,duration_discrimination,discrim_jsons/shuffled_g0.json,http://54.89.209.186/DepthDuration/depth_discrimination_MTurk/DepthDiscrim_HTML.html#4,4,1423,757,1440,900,7-20-2021,11-42-35,166,,,,,,,1983,514,996,994,1017,496,,2,3,depth_discrimination_stimuli/000749_2014-06-08_21-55-06_260595134347_rgbf000070-resize_2/000749_2014-06-08_21-55-06_260595134347_rgbf000070-resize-original.jpg,4169,1111112,1275151,49
276467,DepthScenes,duration_discrimination,discrim_jsons/shuffled_g0.json,http://54.89.209.186/DepthDuration/depth_discrimination_MTurk/DepthDiscrim_HTML.html#4,4,1423,757,1440,900,7-20-2021,11-42-35,167,,,,,,,1983,514,996,994,1017,496,,3,5,depth_discrimination_stimuli/003010_2014-06-15_12-54-35_094959634447_rgbf000112-resize_0/003010_2014-06-15_12-54-35_094959634447_rgbf000112-resize-original.jpg,3244,1111112,1275151,49
276467,DepthScenes,duration_discrimination,discrim_jsons/shuffled_g0.json,http://54.89.209.186/DepthDuration/depth_discrimination_MTurk/DepthDiscrim_HTML.html#4,4,1423,757,1440,900,7-20-2021,11-42-35,168,,,,,,,1983,514,996,994,1017,496,,4,5,scene_property_catch_stimuli/sun_aoquhiddlfqapdlz.jpg,3102,1111112,1275151,49
276467,DepthScenes,duration_discrimination,discrim_jsons/shuffled_g0.json,http://54.89.209.186/DepthDuration/depth_discrimination_MTurk/DepthDiscrim_HTML.html#4,4,1423,757,1440,900,7-20-2021,11-42-35,169,,,,,,,1983,514,996,994,1017,496,,2,4,depth_discrimination_stimuli/002136_2014-06-25_21-18-03_260595134347_rgbf000109-resize_3/002136_2014-06-25_21-18-03_260595134347_rgbf000109-resize-original.jpg,4153,1111112,1275151,49
276467,DepthScenes,duration_discrimination,discrim_jsons/shuffled_g0.json,http://54.89.209.186/DepthDuration/depth_discrimination_MTurk/DepthDiscrim_HTML.html#4,4,1423,757,1440,900,7-20-2021,11-42-35,170,,,,,,,1983,514,996,994,1017,496,,1,5,depth_discrimination_stimuli/001055_2014-06-08_18-45-35_260595134347_rgbf000111-resize_4/001055_2014-06-08_18-45-35_260595134347_rgbf000111-resize-original.jpg,3177,1111112,1275151,49
276467,DepthScenes,duration_discrimination,discrim_jsons/shuffled_g0.json,http://54.89.209.186/DepthDuration/depth_discrimination_MTurk/DepthDiscrim_HTML.html#4,4,1423,757,1440,900,7-20-2021,11-42-35,171,,,,,,,1983,514,996,994,1017,496,,2,5,depth_discrimination_stimuli/000542_2014-06-08_18-27-08_260595134347_rgbf000118-resize_1/000542_2014-06-08_18-27-08_260595134347_rgbf000118-resize-original.jpg,3273,1111112,1275151,49
276467,DepthScenes,duration_discrimination,discrim_jsons/shuffled_g0.json,http://54.89.209.186/DepthDuration/depth_discrimination_MTurk/DepthDiscrim_HTML.html#4,4,1423,757,1440,900,7-20-2021,11-42-35,172,,,,,,,1983,514,996,994,1017,496,,2,5,depth_discrimination_stimuli/002209_2014-06-28_18-36-10_260595134347_rgbf000051-resize_1/002209_2014-06-28_18-36-10_260595134347_rgbf000051-resize-original.jpg,4129,1111112,1275151,49
276467,DepthScenes,duration_discrimination,discrim_jsons/shuffled_g0.json,http://54.89.209.186/DepthDuration/depth_discrimination_MTurk/DepthDiscrim_HTML.html#4,4,1423,757,1440,900,7-20-2021,11-42-35,173,,,,,,,1983,514,996,994,1017,496,,3,3,depth_discrimination_stimuli/002700_2014-06-22_11-27-02_094959634447_rgbf000124-resize_3/002700_2014-06-22_11-27-02_094959634447_rgbf000124-resize-original.jpg,5519,1111112,1275151,49
276467,DepthScenes,duration_discrimination,discrim_jsons/shuffled_g0.json,http://54.89.209.186/DepthDuration/depth_discrimination_MTurk/DepthDiscrim_HTML.html#4,4,1423,757,1440,900,7-20-2021,11-42-35,174,,,,,,,1983,514,996,994,1017,496,,3,5,depth_discrimination_stimuli/000636_2014-06-08_16-39-02_260595134347_rgbf000108-resize_4/000636_2014-06-08_16-39-02_260595134347_rgbf000108-resize-original.jpg,3261,1111112,1275151,49
276467,DepthScenes,duration_discrimination,discrim_jsons/shuffled_g0.json,http://54.89.209.186/DepthDuration/depth_discrimination_MTurk/DepthDiscrim_HTML.html#4,4,1423,757,1440,900,7-20-2021,11-42-35,175,,,,,,,1983,514,996,994,1017,496,,2,5,depth_discrimination_stimuli/000810_2014-06-08_17-20-01_260595134347_rgbf000105-resize_0/000810_2014-06-08_17-20-01_260595134347_rgbf000105-resize-original.jpg,3752,1111112,1275151,49
276467,DepthScenes,duration_discrimination,discrim_jsons/shuffled_g0.json,http://54.89.209.186/DepthDuration/depth_discrimination_MTurk/DepthDiscrim_HTML.html#4,4,1423,757,1440,900,7-20-2021,11-42-35,176,,,,,,,1983,514,996,994,1017,496,,2,5,depth_discrimination_stimuli/001650_2014-06-20_12-09-00_260595134347_rgbf000087-resize_3/001650_2014-06-20_12-09-00_260595134347_rgbf000087-resize-original.jpg,6161,1111112,1275151,49
276467,DepthScenes,duration_discrimination,discrim_jsons/shuffled_g0.json,http://54.89.209.186/DepthDuration/depth_discrimination_MTurk/DepthDiscrim_HTML.html#4,4,1423,757,1440,900,7-20-2021,11-42-35,177,,,,,,,1983,514,996,994,1017,496,,1,5,depth_discrimination_stimuli/001244_2014-06-17_16-47-45_260595134347_rgbf000030-resize_4/001244_2014-06-17_16-47-45_260595134347_rgbf000030-resize-original.jpg,2642,1111112,1275151,49
276467,DepthScenes,duration_discrimination,discrim_jsons/shuffled_g0.json,http://54.89.209.186/DepthDuration/depth_discrimination_MTurk/DepthDiscrim_HTML.html#4,4,1423,757,1440,900,7-20-2021,11-42-35,178,,,,,,,1983,514,996,994,1017,496,,1,5,depth_discrimination_stimuli/002460_2014-06-28_20-35-43_260595134347_rgbf000028-resize_4/002460_2014-06-28_20-35-43_260595134347_rgbf000028-resize-original.jpg,2735,1111112,1275151,49
276467,DepthScenes,duration_discrimination,discrim_jsons/shuffled_g0.json,http://54.89.209.186/DepthDuration/depth_discrimination_MTurk/DepthDiscrim_HTML.html#4,4,1423,757,1440,900,7-20-2021,11-42-35,179,,,,,,,1983,514,996,994,1017,496,,3,4,depth_discrimination_stimuli/000368_2014-06-09_15-53-01_260595134347_rgbf000155-resize_2/000368_2014-06-09_15-53-01_260595134347_rgbf000155-resize-original.jpg,3123,1111112,1275151,49
276467,DepthScenes,duration_discrimination,discrim_jsons/shuffled_g0.json,http://54.89.209.186/DepthDuration/depth_discrimination_MTurk/DepthDiscrim_HTML.html#4,4,1423,757,1440,900,7-20-2021,11-42-35,180,,,,,,,1983,514,996,994,1017,496,,2,5,depth_discrimination_stimuli/000409_2014-06-04_19-23-33_260595134347_rgbf000067-resize_0/000409_2014-06-04_19-23-33_260595134347_rgbf000067-resize-original.jpg,2658,1111112,1275151,49
276467,DepthScenes,duration_discrimination,discrim_jsons/shuffled_g0.json,http://54.89.209.186/DepthDuration/depth_discrimination_MTurk/DepthDiscrim_HTML.html#4,4,1423,757,1440,900,7-20-2021,11-42-35,181,,,,,,,1983,514,996,994,1017,496,,3,3,depth_discrimination_stimuli/002639_2014-06-24_14-51-37_094959634447_rgbf000074-resize_4/002639_2014-06-24_14-51-37_094959634447_rgbf000074-resize-original.jpg,4244,1111112,1275151,49
276467,DepthScenes,duration_discrimination,discrim_jsons/shuffled_g0.json,http://54.89.209.186/DepthDuration/depth_discrimination_MTurk/DepthDiscrim_HTML.html#4,4,1423,757,1440,900,7-20-2021,11-42-35,182,,,,,,,1983,514,996,994,1017,496,,2,5,depth_discrimination_stimuli/001815_2014-06-26_20-52-55_260595134347_rgbf000020-resize_0/001815_2014-06-26_20-52-55_260595134347_rgbf000020-resize-original.jpg,3230,1111112,1275151,49
276467,DepthScenes,duration_discrimination,discrim_jsons/shuffled_g0.json,http://54.89.209.186/DepthDuration/depth_discrimination_MTurk/DepthDiscrim_HTML.html#4,4,1423,757,1440,900,7-20-2021,11-42-35,183,,,,,,,1983,514,996,994,1017,496,,1,5,depth_discrimination_stimuli/001532_2014-06-20_16-50-41_260595134347_rgbf000081-resize_4/001532_2014-06-20_16-50-41_260595134347_rgbf000081-resize-original.jpg,3925,1111112,1275151,49
276467,DepthScenes,duration_discrimination,discrim_jsons/shuffled_g0.json,http://54.89.209.186/DepthDuration/depth_discrimination_MTurk/DepthDiscrim_HTML.html#4,4,1423,757,1440,900,7-20-2021,11-42-35,184,,,,,,,1983,514,996,994,1017,496,,5,5,depth_discrimination_stimuli/000878_2014-06-08_22-52-45_260595134347_rgbf000045-resize_2/000878_2014-06-08_22-52-45_260595134347_rgbf000045-resize-original.jpg,9326,1111112,1275151,49
276467,DepthScenes,duration_discrimination,discrim_jsons/shuffled_g0.json,http://54.89.209.186/DepthDuration/depth_discrimination_MTurk/DepthDiscrim_HTML.html#4,4,1423,757,1440,900,7-20-2021,11-42-35,185,,,,,,,1983,514,996,994,1017,496,,2,4,depth_discrimination_stimuli/000506_2014-06-08_23-21-00_260595134347_rgbf000070-resize_7/000506_2014-06-08_23-21-00_260595134347_rgbf000070-resize-original.jpg,4674,1111112,1275151,49
276467,DepthScenes,duration_discrimination,discrim_jsons/shuffled_g0.json,http://54.89.209.186/DepthDuration/depth_discrimination_MTurk/DepthDiscrim_HTML.html#4,4,1423,757,1440,900,7-20-2021,11-42-35,186,,,,,,,1983,514,996,994,1017,496,,2,5,depth_discrimination_stimuli/002545_2014-06-24_13-38-53_094959634447_rgbf000080-resize_4/002545_2014-06-24_13-38-53_094959634447_rgbf000080-resize-original.jpg,5646,1111112,1275151,49
276467,DepthScenes,duration_discrimination,discrim_jsons/shuffled_g0.json,http://54.89.209.186/DepthDuration/depth_discrimination_MTurk/DepthDiscrim_HTML.html#4,4,1423,757,1440,900,7-20-2021,11-42-35,187,,,,,,,1983,514,996,994,1017,496,,3,4,depth_discrimination_stimuli/003292_2014-05-14_21-53-49_094959634447_rgbf000100-resize_2/003292_2014-05-14_21-53-49_094959634447_rgbf000100-resize-original.jpg,3407,1111112,1275151,49
276467,DepthScenes,duration_discrimination,discrim_jsons/shuffled_g0.json,http://54.89.209.186/DepthDuration/depth_discrimination_MTurk/DepthDiscrim_HTML.html#4,4,1423,757,1440,900,7-20-2021,11-42-35,188,,,,,,,1983,514,996,994,1017,496,,1,4,depth_discrimination_stimuli/002875_2014-06-01_15-19-00_094959634447_rgbf000151-resize_1/002875_2014-06-01_15-19-00_094959634447_rgbf000151-resize-original.jpg,3018,1111112,1275151,49
276467,DepthScenes,duration_discrimination,discrim_jsons/shuffled_g0.json,http://54.89.209.186/DepthDuration/depth_discrimination_MTurk/DepthDiscrim_HTML.html#4,4,1423,757,1440,900,7-20-2021,11-42-35,189,,,,,,,1983,514,996,994,1017,496,,1,5,depth_discrimination_stimuli/003534_2014-05-22_15-06-10_094959634447_rgbf000102-resize_4/003534_2014-05-22_15-06-10_094959634447_rgbf000102-resize-original.jpg,2732,1111112,1275151,49
276467,DepthScenes,duration_discrimination,discrim_jsons/shuffled_g0.json,http://54.89.209.186/DepthDuration/depth_discrimination_MTurk/DepthDiscrim_HTML.html#4,4,1423,757,1440,900,7-20-2021,11-42-35,190,,,,,,,1983,514,996,994,1017,496,,3,3,depth_discrimination_stimuli/001158_2014-06-17_15-32-16_260595134347_rgbf000138-resize_2/001158_2014-06-17_15-32-16_260595134347_rgbf000138-resize-original.jpg,3717,1111112,1275151,49
276467,DepthScenes,duration_discrimination,discrim_jsons/shuffled_g0.json,http://54.89.209.186/DepthDuration/depth_discrimination_MTurk/DepthDiscrim_HTML.html#4,4,1423,757,1440,900,7-20-2021,11-42-35,191,,,,,,,1983,514,996,994,1017,496,,2,4,depth_discrimination_stimuli/001011_2014-06-08_23-18-54_260595134347_rgbf000044-resize_4/001011_2014-06-08_23-18-54_260595134347_rgbf000044-resize-original.jpg,3620,1111112,1275151,49
276467,DepthScenes,duration_discrimination,discrim_jsons/shuffled_g0.json,http://54.89.209.186/DepthDuration/depth_discrimination_MTurk/DepthDiscrim_HTML.html#4,4,1423,757,1440,900,7-20-2021,11-42-35,192,,,,,,,1983,514,996,994,1017,496,,3,4,depth_discrimination_stimuli/001235_2014-06-17_16-37-36_260595134347_rgbf000084-resize_4/001235_2014-06-17_16-37-36_260595134347_rgbf000084-resize-original.jpg,3918,1111112,1275151,49
276467,DepthScenes,duration_discrimination,discrim_jsons/shuffled_g0.json,http://54.89.209.186/DepthDuration/depth_discrimination_MTurk/DepthDiscrim_HTML.html#4,4,1423,757,1440,900,7-20-2021,11-42-35,193,,,,,,,1983,514,996,994,1017,496,,3,5,depth_discrimination_stimuli/001392_2014-06-19_16-07-59_260595134347_rgbf000046-resize_1/001392_2014-06-19_16-07-59_260595134347_rgbf000046-resize-original.jpg,2758,1111112,1275151,49
276467,DepthScenes,duration_discrimination,discrim_jsons/shuffled_g0.json,http://54.89.209.186/DepthDuration/depth_discrimination_MTurk/DepthDiscrim_HTML.html#4,4,1423,757,1440,900,7-20-2021,11-42-35,194,,,,,,,1983,514,996,994,1017,496,,3,3,depth_discrimination_stimuli/001264_2014-06-16_16-10-23_260595134347_rgbf000109-resize_1/001264_2014-06-16_16-10-23_260595134347_rgbf000109-resize-original.jpg,4551,1111112,1275151,49
276467,DepthScenes,duration_discrimination,discrim_jsons/shuffled_g0.json,http://54.89.209.186/DepthDuration/depth_discrimination_MTurk/DepthDiscrim_HTML.html#4,4,1423,757,1440,900,7-20-2021,11-42-35,195,,,,,,,1983,514,996,994,1017,496,,2,5,depth_discrimination_stimuli/002905_2014-06-03_18-04-43_094959634447_rgbf000151-resize_2/002905_2014-06-03_18-04-43_094959634447_rgbf000151-resize-original.jpg,3210,1111112,1275151,49
276467,DepthScenes,duration_discrimination,discrim_jsons/shuffled_g0.json,http://54.89.209.186/DepthDuration/depth_discrimination_MTurk/DepthDiscrim_HTML.html#4,4,1423,757,1440,900,7-20-2021,11-42-35,196,,,,,,,1983,514,996,994,1017,496,,2,5,depth_discrimination_stimuli/001092_2014-06-15_17-34-58_260595134347_rgbf000171-resize_3/001092_2014-06-15_17-34-58_260595134347_rgbf000171-resize-original.jpg,4063,1111112,1275151,49
276467,DepthScenes,duration_discrimination,discrim_jsons/shuffled_g0.json,http://54.89.209.186/DepthDuration/depth_discrimination_MTurk/DepthDiscrim_HTML.html#4,4,1423,757,1440,900,7-20-2021,11-42-35,197,,,,,,,1983,514,996,994,1017,496,,2,4,depth_discrimination_stimuli/000103_2014-05-14_22-01-17_260595134347_rgbf000152-resize_5/000103_2014-05-14_22-01-17_260595134347_rgbf000152-resize-original.jpg,3144,1111112,1275151,49
276467,DepthScenes,duration_discrimination,discrim_jsons/shuffled_g0.json,http://54.89.209.186/DepthDuration/depth_discrimination_MTurk/DepthDiscrim_HTML.html#4,4,1423,757,1440,900,7-20-2021,11-42-35,198,,,,,,,1983,514,996,994,1017,496,,3,4,depth_discrimination_stimuli/002375_2014-06-28_20-13-44_260595134347_rgbf000032-resize_1/002375_2014-06-28_20-13-44_260595134347_rgbf000032-resize-original.jpg,4162,1111112,1275151,49
276467,DepthScenes,duration_discrimination,discrim_jsons/shuffled_g0.json,http://54.89.209.186/DepthDuration/depth_discrimination_MTurk/DepthDiscrim_HTML.html#4,4,1423,757,1440,900,7-20-2021,11-42-35,199,,,,,,,1983,514,996,994,1017,496,,2,5,depth_discrimination_stimuli/000692_2014-06-08_13-09-42_260595134347_rgbf000199-resize_2/000692_2014-06-08_13-09-42_260595134347_rgbf000199-resize-original.jpg,4252,1111112,1275151,49
276467,DepthScenes,duration_discrimination,discrim_jsons/shuffled_g0.json,http://54.89.209.186/DepthDuration/depth_discrimination_MTurk/DepthDiscrim_HTML.html#4,4,1423,757,1440,900,7-20-2021,11-42-35,200,,,,,,,1983,514,996,994,1017,496,,2,5,depth_discrimination_stimuli/002758_2014-06-22_19-11-20_094959634447_rgbf000128-resize_1/002758_2014-06-22_19-11-20_094959634447_rgbf000128-resize-original.jpg,2970,1111112,1275151,49
276467,DepthScenes,duration_discrimination,discrim_jsons/shuffled_g0.json,http://54.89.209.186/DepthDuration/depth_discrimination_MTurk/DepthDiscrim_HTML.html#4,4,1423,757,1440,900,7-20-2021,11-42-35,201,,,,,,,1983,514,996,994,1017,496,,2,3,depth_discrimination_stimuli/002272_2014-06-28_18-53-56_260595134347_rgbf000067-resize_2/002272_2014-06-28_18-53-56_260595134347_rgbf000067-resize-original.jpg,3682,1111112,1275151,49
276467,DepthScenes,duration_discrimination,discrim_jsons/shuffled_g0.json,http://54.89.209.186/DepthDuration/depth_discrimination_MTurk/DepthDiscrim_HTML.html#4,4,1423,757,1440,900,7-20-2021,11-42-35,202,,,,,,,1983,514,996,994,1017,496,,2,4,depth_discrimination_stimuli/003129_2014-05-12_10-48-10_094959634447_rgbf000100-resize_0/003129_2014-05-12_10-48-10_094959634447_rgbf000100-resize-original.jpg,9446,1111112,1275151,49
276467,DepthScenes,duration_discrimination,discrim_jsons/shuffled_g0.json,http://54.89.209.186/DepthDuration/depth_discrimination_MTurk/DepthDiscrim_HTML.html#4,4,1423,757,1440,900,7-20-2021,11-42-35,203,,,,,,,1983,514,996,994,1017,496,,3,4,depth_discrimination_stimuli/001132_2014-06-17_14-48-54_260595134347_rgbf000100-resize_2/001132_2014-06-17_14-48-54_260595134347_rgbf000100-resize-original.jpg,3716,1111112,1275151,49
276467,DepthScenes,duration_discrimination,discrim_jsons/shuffled_g0.json,http://54.89.209.186/DepthDuration/depth_discrimination_MTurk/DepthDiscrim_HTML.html#4,4,1423,757,1440,900,7-20-2021,11-42-35,204,,,,,,,1983,514,996,994,1017,496,,3,4,depth_discrimination_stimuli/002043_2014-06-24_20-29-38_260595134347_rgbf000039-resize_4/002043_2014-06-24_20-29-38_260595134347_rgbf000039-resize-original.jpg,4767,1111112,1275151,49
276467,DepthScenes,duration_discrimination,discrim_jsons/shuffled_g0.json,http://54.89.209.186/DepthDuration/depth_discrimination_MTurk/DepthDiscrim_HTML.html#4,4,1423,757,1440,900,7-20-2021,11-42-35,205,,,,,,,1983,514,996,994,1017,496,,2,5,depth_discrimination_stimuli/001056_2014-06-08_18-46-44_260595134347_rgbf000068-resize_0/001056_2014-06-08_18-46-44_260595134347_rgbf000068-resize-original.jpg,2800,1111112,1275151,49
276467,DepthScenes,duration_discrimination,discrim_jsons/shuffled_g0.json,http://54.89.209.186/DepthDuration/depth_discrimination_MTurk/DepthDiscrim_HTML.html#4,4,1423,757,1440,900,7-20-2021,11-42-35,206,,,,,,,1983,514,996,994,1017,496,,1,5,depth_discrimination_stimuli/001289_2014-06-16_16-25-52_260595134347_rgbf000067-resize_1/001289_2014-06-16_16-25-52_260595134347_rgbf000067-resize-original.jpg,3550,1111112,1275151,49
276467,DepthScenes,duration_discrimination,discrim_jsons/shuffled_g0.json,http://54.89.209.186/DepthDuration/depth_discrimination_MTurk/DepthDiscrim_HTML.html#4,4,1423,757,1440,900,7-20-2021,11-42-35,207,,,,,,,1983,514,996,994,1017,496,,2,5,depth_discrimination_stimuli/001197_2014-06-17_16-01-50_260595134347_rgbf000103-resize_4/001197_2014-06-17_16-01-50_260595134347_rgbf000103-resize-original.jpg,2393,1111112,1275151,49
276467,DepthScenes,duration_discrimination,discrim_jsons/shuffled_g0.json,http://54.89.209.186/DepthDuration/depth_discrimination_MTurk/DepthDiscrim_HTML.html#4,4,1423,757,1440,900,7-20-2021,11-42-35,208,,,,,,,1983,514,996,994,1017,496,,3,5,depth_discrimination_stimuli/002568_2014-06-24_13-59-21_094959634447_rgbf000062-resize_4/002568_2014-06-24_13-59-21_094959634447_rgbf000062-resize-original.jpg,3192,1111112,1275151,49
276467,DepthScenes,duration_discrimination,discrim_jsons/shuffled_g0.json,http://54.89.209.186/DepthDuration/depth_discrimination_MTurk/DepthDiscrim_HTML.html#4,4,1423,757,1440,900,7-20-2021,11-42-35,209,,,,,,,1983,514,996,994,1017,496,,2,3,depth_discrimination_stimuli/000137_2014-05-20_17-04-49_260595134347_rgbf000120-resize_1/000137_2014-05-20_17-04-49_260595134347_rgbf000120-resize-original.jpg,3166,1111112,1275151,49
276467,DepthScenes,duration_discrimination,discrim_jsons/shuffled_g0.json,http://54.89.209.186/DepthDuration/depth_discrimination_MTurk/DepthDiscrim_HTML.html#4,4,1423,757,1440,900,7-20-2021,11-42-35,210,,,,,,,1983,514,996,994,1017,496,,1,5,depth_discrimination_stimuli/002725_2014-06-22_11-47-51_094959634447_rgbf000070-resize_1/002725_2014-06-22_11-47-51_094959634447_rgbf000070-resize-original.jpg,2466,1111112,1275151,49
276467,DepthScenes,duration_discrimination,discrim_jsons/shuffled_g0.json,http://54.89.209.186/DepthDuration/depth_discrimination_MTurk/DepthDiscrim_HTML.html#4,4,1423,757,1440,900,7-20-2021,11-42-35,211,,,,,,,1983,514,996,994,1017,496,,2,4,depth_discrimination_stimuli/000917_2014-06-09_22-45-29_260595134347_rgbf000149-resize_3/000917_2014-06-09_22-45-29_260595134347_rgbf000149-resize-original.jpg,5954,1111112,1275151,49
276467,DepthScenes,duration_discrimination,discrim_jsons/shuffled_g0.json,http://54.89.209.186/DepthDuration/depth_discrimination_MTurk/DepthDiscrim_HTML.html#4,4,1423,757,1440,900,7-20-2021,11-42-35,212,,,,,,,1983,514,996,994,1017,496,,2,5,depth_discrimination_stimuli/001828_2014-06-26_21-40-03_260595134347_rgbf000024-resize_0/001828_2014-06-26_21-40-03_260595134347_rgbf000024-resize-original.jpg,2936,1111112,1275151,49
276467,DepthScenes,duration_discrimination,discrim_jsons/shuffled_g0.json,http://54.89.209.186/DepthDuration/depth_discrimination_MTurk/DepthDiscrim_HTML.html#4,4,1423,757,1440,900,7-20-2021,11-42-35,213,,,,,,,1983,514,996,994,1017,496,,3,3,depth_discrimination_stimuli/002630_2014-06-24_14-47-50_094959634447_rgbf000055-resize_1/002630_2014-06-24_14-47-50_094959634447_rgbf000055-resize-original.jpg,3328,1111112,1275151,49
276467,DepthScenes,duration_discrimination,discrim_jsons/shuffled_g0.json,http://54.89.209.186/DepthDuration/depth_discrimination_MTurk/DepthDiscrim_HTML.html#4,4,1423,757,1440,900,7-20-2021,11-42-35,214,,,,,,,1983,514,996,994,1017,496,,3,2,depth_discrimination_stimuli/000493_2014-06-09_21-01-18_260595134347_rgbf000196-resize_3/000493_2014-06-09_21-01-18_260595134347_rgbf000196-resize-original.jpg,4568,1111112,1275151,49
276467,DepthScenes,duration_discrimination,discrim_jsons/shuffled_g0.json,http://54.89.209.186/DepthDuration/depth_discrimination_MTurk/DepthDiscrim_HTML.html#4,4,1423,757,1440,900,7-20-2021,11-42-35,215,,,,,,,1983,514,996,994,1017,496,,3,3,depth_discrimination_stimuli/000677_2014-06-08_23-10-32_260595134347_rgbf000158-resize_6/000677_2014-06-08_23-10-32_260595134347_rgbf000158-resize-original.jpg,2562,1111112,1275151,49
276467,DepthScenes,duration_discrimination,discrim_jsons/shuffled_g0.json,http://54.89.209.186/DepthDuration/depth_discrimination_MTurk/DepthDiscrim_HTML.html#4,4,1423,757,1440,900,7-20-2021,11-42-35,216,,,,,,,1983,514,996,994,1017,496,,2,3,depth_discrimination_stimuli/002949_2014-06-26_15-57-42_094959634447_rgbf000079-resize_1/002949_2014-06-26_15-57-42_094959634447_rgbf000079-resize-original.jpg,4953,1111112,1275151,49
276467,DepthScenes,duration_discrimination,discrim_jsons/shuffled_g0.json,http://54.89.209.186/DepthDuration/depth_discrimination_MTurk/DepthDiscrim_HTML.html#4,4,1423,757,1440,900,7-20-2021,11-42-35,217,,,,,,,1983,514,996,994,1017,496,,3,3,depth_discrimination_stimuli/003495_2014-05-21_16-01-51_094959634447_rgbf000100-resize_3/003495_2014-05-21_16-01-51_094959634447_rgbf000100-resize-original.jpg,13007,1111112,1275151,49
276467,DepthScenes,duration_discrimination,discrim_jsons/shuffled_g0.json,http://54.89.209.186/DepthDuration/depth_discrimination_MTurk/DepthDiscrim_HTML.html#4,4,1423,757,1440,900,7-20-2021,11-42-35,218,,,,,,,1983,514,996,994,1017,496,,2,5,depth_discrimination_stimuli/002657_2014-06-13_15-29-54_094959634447_rgbf000150-resize_1/002657_2014-06-13_15-29-54_094959634447_rgbf000150-resize-original.jpg,3520,1111112,1275151,49
276467,DepthScenes,duration_discrimination,discrim_jsons/shuffled_g0.json,http://54.89.209.186/DepthDuration/depth_discrimination_MTurk/DepthDiscrim_HTML.html#4,4,1423,757,1440,900,7-20-2021,11-42-35,219,,,,,,,1983,514,996,994,1017,496,,2,5,depth_discrimination_stimuli/001808_2014-06-26_20-50-58_260595134347_rgbf000029-resize_1/001808_2014-06-26_20-50-58_260595134347_rgbf000029-resize-original.jpg,3271,1111112,1275151,49
