subjID,experimentName,versionName,sequenceName,url,selected_row,windowWidth,windowHeight,screenWidth,screenHeight,startDate,startTime,trial,stimulus_0,stimulus_1,duration,actual_depth_0,actual_depth_1,discrim_choice,trial_RT,log_fixation,log_sceneDuration1,log_mask1,log_sceneDuration2,log_mask2,unitSelection,meanDepth_rating,navigability_rating,rated_stimulus,rating_RT,experimentTime,totalTime,age
669732,DepthScenes,duration_discrimination,discrim_jsons/shuffled_g0_dr.json,http://54.89.209.186/DepthDuration/depth_discrimination_MTurk/DepthDiscrim_HTML.html#1,1,1536,700,1536,864,7-20-2021,10-20-53,1,depth_discrimination_stimuli/001618_2014-06-20_11-37-31_260595134347_rgbf000027-resize_3/001618_2014-06-20_11-37-31_260595134347_rgbf000027-resize_3-target.png,depth_discrimination_stimuli/000109_2014-05-14_23-41-52_260595134347_rgbf000035-resize_9/000109_2014-05-14_23-41-52_260595134347_rgbf000035-resize_9-target.png,1000,1.8725,1.3545,1,1868,504,1006,1003,1000,490,,,,,,1171419,1431415,47
669732,DepthScenes,duration_discrimination,discrim_jsons/shuffled_g0_dr.json,http://54.89.209.186/DepthDuration/depth_discrimination_MTurk/DepthDiscrim_HTML.html#1,1,1536,700,1536,864,7-20-2021,10-20-53,2,depth_discrimination_stimuli/002103_2014-06-25_20-00-40_260595134347_rgbf000049-resize_0/002103_2014-06-25_20-00-40_260595134347_rgbf000049-resize_0-target.png,depth_discrimination_stimuli/002444_2014-06-28_20-32-08_260595134347_rgbf000027-resize_0/002444_2014-06-28_20-32-08_260595134347_rgbf000027-resize_0-target.png,1000,4.105,4.389,1,2200,501,1006,1008,999,491,,,,,,1171419,1431415,47
669732,DepthScenes,duration_discrimination,discrim_jsons/shuffled_g0_dr.json,http://54.89.209.186/DepthDuration/depth_discrimination_MTurk/DepthDiscrim_HTML.html#1,1,1536,700,1536,864,7-20-2021,10-20-53,3,depth_discrimination_stimuli/000800_2014-06-08_22-42-09_260595134347_rgbf000095-resize_3/000800_2014-06-08_22-42-09_260595134347_rgbf000095-resize_3-target.png,depth_discrimination_stimuli/000869_2014-06-09_20-50-18_260595134347_rgbf000060-resize_3/000869_2014-06-09_20-50-18_260595134347_rgbf000060-resize_3-target.png,250,2.8,2.266,1,1090,504,248,1006,249,501,,,,,,1171419,1431415,47
669732,DepthScenes,duration_discrimination,discrim_jsons/shuffled_g0_dr.json,http://54.89.209.186/DepthDuration/depth_discrimination_MTurk/DepthDiscrim_HTML.html#1,1,1536,700,1536,864,7-20-2021,10-20-53,4,depth_discrimination_stimuli/001092_2014-06-15_17-34-58_260595134347_rgbf000171-resize_3/001092_2014-06-15_17-34-58_260595134347_rgbf000171-resize_3-target.png,depth_discrimination_stimuli/000502_2014-06-08_23-02-32_260595134347_rgbf000063-resize_4/000502_2014-06-08_23-02-32_260595134347_rgbf000063-resize_4-target.png,250,2.6935,2.431,1,1155,508,258,987,263,492,,,,,,1171419,1431415,47
669732,DepthScenes,duration_discrimination,discrim_jsons/shuffled_g0_dr.json,http://54.89.209.186/DepthDuration/depth_discrimination_MTurk/DepthDiscrim_HTML.html#1,1,1536,700,1536,864,7-20-2021,10-20-53,5,depth_discrimination_stimuli/000953_2014-06-08_11-42-19_260595134347_rgbf000083-resize_0/000953_2014-06-08_11-42-19_260595134347_rgbf000083-resize_0-target.png,depth_discrimination_stimuli/000787_2014-06-08_22-33-53_260595134347_rgbf000175-resize_1/000787_2014-06-08_22-33-53_260595134347_rgbf000175-resize_1-target.png,250,1.369,4.784,2,1099,515,247,990,253,496,,,,,,1171419,1431415,47
669732,DepthScenes,duration_discrimination,discrim_jsons/shuffled_g0_dr.json,http://54.89.209.186/DepthDuration/depth_discrimination_MTurk/DepthDiscrim_HTML.html#1,1,1536,700,1536,864,7-20-2021,10-20-53,6,depth_discrimination_stimuli/003083_2014-06-15_15-21-03_094959634447_rgbf000063-resize_1/003083_2014-06-15_15-21-03_094959634447_rgbf000063-resize_1-target.png,depth_discrimination_stimuli/000742_2014-06-08_18-48-09_260595134347_rgbf000164-resize_4/000742_2014-06-08_18-48-09_260595134347_rgbf000164-resize_4-target.png,1000,4.1405,4.632,0,1567,506,998,1002,1010,488,,,,,,1171419,1431415,47
669732,DepthScenes,duration_discrimination,discrim_jsons/shuffled_g0_dr.json,http://54.89.209.186/DepthDuration/depth_discrimination_MTurk/DepthDiscrim_HTML.html#1,1,1536,700,1536,864,7-20-2021,10-20-53,7,depth_discrimination_stimuli/000749_2014-06-08_21-55-06_260595134347_rgbf000070-resize_2/000749_2014-06-08_21-55-06_260595134347_rgbf000070-resize_2-target.png,depth_discrimination_stimuli/001056_2014-06-08_18-46-44_260595134347_rgbf000068-resize_0/001056_2014-06-08_18-46-44_260595134347_rgbf000068-resize_0-target.png,250,2.331,2.6625,0,1149,508,250,1006,246,501,,,,,,1171419,1431415,47
669732,DepthScenes,duration_discrimination,discrim_jsons/shuffled_g0_dr.json,http://54.89.209.186/DepthDuration/depth_discrimination_MTurk/DepthDiscrim_HTML.html#1,1,1536,700,1536,864,7-20-2021,10-20-53,8,depth_discrimination_stimuli/002043_2014-06-24_20-29-38_260595134347_rgbf000039-resize_4/002043_2014-06-24_20-29-38_260595134347_rgbf000039-resize_4-target.png,depth_discrimination_stimuli/001011_2014-06-08_23-18-54_260595134347_rgbf000044-resize_4/001011_2014-06-08_23-18-54_260595134347_rgbf000044-resize_4-target.png,1000,2.8435,2.473,1,4739,514,993,1010,994,494,,,,,,1171419,1431415,47
669732,DepthScenes,duration_discrimination,discrim_jsons/shuffled_g0_dr.json,http://54.89.209.186/DepthDuration/depth_discrimination_MTurk/DepthDiscrim_HTML.html#1,1,1536,700,1536,864,7-20-2021,10-20-53,9,depth_discrimination_stimuli/000454_2014-06-08_16-37-28_260595134347_rgbf000048-resize_2/000454_2014-06-08_16-37-28_260595134347_rgbf000048-resize_2-target.png,depth_discrimination_stimuli/000375_2014-06-08_11-17-29_260595134347_rgbf000133-resize_2/000375_2014-06-08_11-17-29_260595134347_rgbf000133-resize_2-target.png,1000,1.213,4.718,2,1856,503,1001,997,999,506,,,,,,1171419,1431415,47
669732,DepthScenes,duration_discrimination,discrim_jsons/shuffled_g0_dr.json,http://54.89.209.186/DepthDuration/depth_discrimination_MTurk/DepthDiscrim_HTML.html#1,1,1536,700,1536,864,7-20-2021,10-20-53,10,depth_discrimination_stimuli/001532_2014-06-20_16-50-41_260595134347_rgbf000081-resize_4/001532_2014-06-20_16-50-41_260595134347_rgbf000081-resize_4-target.png,depth_discrimination_stimuli/000943_2014-06-09_19-31-07_260595134347_rgbf000128-resize_1/000943_2014-06-09_19-31-07_260595134347_rgbf000128-resize_1-target.png,250,1.5758333333333,1.9765,1,2166,515,242,998,256,493,,,,,,1171419,1431415,47
669732,DepthScenes,duration_discrimination,discrim_jsons/shuffled_g0_dr.json,http://54.89.209.186/DepthDuration/depth_discrimination_MTurk/DepthDiscrim_HTML.html#1,1,1536,700,1536,864,7-20-2021,10-20-53,11,depth_discrimination_stimuli/002340_2014-06-28_20-05-46_260595134347_rgbf000113-resize_0/002340_2014-06-28_20-05-46_260595134347_rgbf000113-resize_0-target.png,depth_discrimination_stimuli/002905_2014-06-03_18-04-43_094959634447_rgbf000151-resize_2/002905_2014-06-03_18-04-43_094959634447_rgbf000151-resize_2-target.png,250,2.4735,2.0295,1,1155,512,243,1001,251,505,,,,,,1171419,1431415,47
669732,DepthScenes,duration_discrimination,discrim_jsons/shuffled_g0_dr.json,http://54.89.209.186/DepthDuration/depth_discrimination_MTurk/DepthDiscrim_HTML.html#1,1,1536,700,1536,864,7-20-2021,10-20-53,12,depth_discrimination_stimuli/000691_2014-06-08_13-08-50_260595134347_rgbf000132-resize_3/000691_2014-06-08_13-08-50_260595134347_rgbf000132-resize_3-target.png,depth_discrimination_stimuli/002039_2014-06-24_20-22-38_260595134347_rgbf000084-resize_1/002039_2014-06-24_20-22-38_260595134347_rgbf000084-resize_1-target.png,250,4.153,4.408,0,1873,510,245,1001,257,489,,,,,,1171419,1431415,47
669732,DepthScenes,duration_discrimination,discrim_jsons/shuffled_g0_dr.json,http://54.89.209.186/DepthDuration/depth_discrimination_MTurk/DepthDiscrim_HTML.html#1,1,1536,700,1536,864,7-20-2021,10-20-53,13,depth_discrimination_stimuli/000569_2014-06-09_22-51-47_260595134347_rgbf000141-resize_3/000569_2014-06-09_22-51-47_260595134347_rgbf000141-resize_3-target.png,depth_discrimination_stimuli/000868_2014-06-09_20-49-52_260595134347_rgbf000064-resize_4/000868_2014-06-09_20-49-52_260595134347_rgbf000064-resize_4-target.png,250,4.512,1.2815,1,1722,501,264,992,252,499,,,,,,1171419,1431415,47
669732,DepthScenes,duration_discrimination,discrim_jsons/shuffled_g0_dr.json,http://54.89.209.186/DepthDuration/depth_discrimination_MTurk/DepthDiscrim_HTML.html#1,1,1536,700,1536,864,7-20-2021,10-20-53,14,depth_discrimination_stimuli/003587_2014-05-23_16-48-02_094959634447_rgbf002384-resize_2/003587_2014-05-23_16-48-02_094959634447_rgbf002384-resize_2-target.png,depth_discrimination_stimuli/000709_2014-06-08_13-51-55_260595134347_rgbf000068-resize_3/000709_2014-06-08_13-51-55_260595134347_rgbf000068-resize_3-target.png,250,1.357,1.803,2,1670,502,265,984,264,500,,,,,,1171419,1431415,47
669732,DepthScenes,duration_discrimination,discrim_jsons/shuffled_g0_dr.json,http://54.89.209.186/DepthDuration/depth_discrimination_MTurk/DepthDiscrim_HTML.html#1,1,1536,700,1536,864,7-20-2021,10-20-53,15,depth_discrimination_stimuli/002199_2014-06-28_18-33-56_260595134347_rgbf000074-resize_0/002199_2014-06-28_18-33-56_260595134347_rgbf000074-resize_0-target.png,depth_discrimination_stimuli/001016_2014-06-09_16-16-10_260595134347_rgbf000112-resize_5/001016_2014-06-09_16-16-10_260595134347_rgbf000112-resize_5-target.png,1000,1.996,1.6565,0,1535,501,1001,1001,1005,506,,,,,,1171419,1431415,47
669732,DepthScenes,duration_discrimination,discrim_jsons/shuffled_g0_dr.json,http://54.89.209.186/DepthDuration/depth_discrimination_MTurk/DepthDiscrim_HTML.html#1,1,1536,700,1536,864,7-20-2021,10-20-53,16,depth_discrimination_stimuli/000493_2014-06-09_21-01-18_260595134347_rgbf000196-resize_3/000493_2014-06-09_21-01-18_260595134347_rgbf000196-resize_3-target.png,depth_discrimination_stimuli/000409_2014-06-04_19-23-33_260595134347_rgbf000067-resize_0/000409_2014-06-04_19-23-33_260595134347_rgbf000067-resize_0-target.png,1000,3.44,3.7335,1,1816,514,993,1005,1001,502,,,,,,1171419,1431415,47
669732,DepthScenes,duration_discrimination,discrim_jsons/shuffled_g0_dr.json,http://54.89.209.186/DepthDuration/depth_discrimination_MTurk/DepthDiscrim_HTML.html#1,1,1536,700,1536,864,7-20-2021,10-20-53,17,depth_discrimination_stimuli/002953_2014-06-08_17-32-18_094959634447_rgbf000059-resize_5/002953_2014-06-08_17-32-18_094959634447_rgbf000059-resize_5-target.png,depth_discrimination_stimuli/000470_2014-06-09_19-42-40_260595134347_rgbf000094-resize_1/000470_2014-06-09_19-42-40_260595134347_rgbf000094-resize_1-target.png,1000,1.551,1.831,0,1535,510,993,1004,997,505,,,,,,1171419,1431415,47
669732,DepthScenes,duration_discrimination,discrim_jsons/shuffled_g0_dr.json,http://54.89.209.186/DepthDuration/depth_discrimination_MTurk/DepthDiscrim_HTML.html#1,1,1536,700,1536,864,7-20-2021,10-20-53,18,depth_discrimination_stimuli/000929_2014-06-09_16-33-19_260595134347_rgbf000139-resize_0/000929_2014-06-09_16-33-19_260595134347_rgbf000139-resize_0-target.png,depth_discrimination_stimuli/001055_2014-06-08_18-45-35_260595134347_rgbf000111-resize_4/001055_2014-06-08_18-45-35_260595134347_rgbf000111-resize_4-target.png,250,2.868,2.429,0,1291,509,257,987,259,491,,,,,,1171419,1431415,47
669732,DepthScenes,duration_discrimination,discrim_jsons/shuffled_g0_dr.json,http://54.89.209.186/DepthDuration/depth_discrimination_MTurk/DepthDiscrim_HTML.html#1,1,1536,700,1536,864,7-20-2021,10-20-53,19,depth_discrimination_stimuli/002118_2014-06-25_20-32-08_260595134347_rgbf000078-resize_1/002118_2014-06-25_20-32-08_260595134347_rgbf000078-resize_1-target.png,depth_discrimination_stimuli/001164_2014-06-17_15-35-46_260595134347_rgbf000085-resize_3/001164_2014-06-17_15-35-46_260595134347_rgbf000085-resize_3-target.png,250,2.646,2.354,0,1098,507,247,1007,240,507,,,,,,1171419,1431415,47
669732,DepthScenes,duration_discrimination,discrim_jsons/shuffled_g0_dr.json,http://54.89.209.186/DepthDuration/depth_discrimination_MTurk/DepthDiscrim_HTML.html#1,1,1536,700,1536,864,7-20-2021,10-20-53,20,depth_discrimination_stimuli/002675_2014-06-13_16-08-49_094959634447_rgbf000151-resize_2/002675_2014-06-13_16-08-49_094959634447_rgbf000151-resize_2-target.png,depth_discrimination_stimuli/001222_2014-06-17_16-24-06_260595134347_rgbf000073-resize_0/001222_2014-06-17_16-24-06_260595134347_rgbf000073-resize_0-target.png,1000,4.5065,1.4385,1,3245,509,1007,990,1007,499,,,,,,1171419,1431415,47
669732,DepthScenes,duration_discrimination,discrim_jsons/shuffled_g0_dr.json,http://54.89.209.186/DepthDuration/depth_discrimination_MTurk/DepthDiscrim_HTML.html#1,1,1536,700,1536,864,7-20-2021,10-20-53,21,depth_discrimination_stimuli/000556_2014-06-09_22-42-56_260595134347_rgbf000214-resize_1/000556_2014-06-09_22-42-56_260595134347_rgbf000214-resize_1-target.png,depth_discrimination_stimuli/001148_2014-06-17_15-26-42_260595134347_rgbf000129-resize_0/001148_2014-06-17_15-26-42_260595134347_rgbf000129-resize_0-target.png,250,4.8415,4.368,0,1967,515,239,999,248,510,,,,,,1171419,1431415,47
669732,DepthScenes,duration_discrimination,discrim_jsons/shuffled_g0_dr.json,http://54.89.209.186/DepthDuration/depth_discrimination_MTurk/DepthDiscrim_HTML.html#1,1,1536,700,1536,864,7-20-2021,10-20-53,22,depth_discrimination_stimuli/002805_2014-06-22_19-54-03_094959634447_rgbf000079-resize_1/002805_2014-06-22_19-54-03_094959634447_rgbf000079-resize_1-target.png,depth_discrimination_stimuli/001584_2014-06-20_11-07-43_260595134347_rgbf000002-resize_1/001584_2014-06-20_11-07-43_260595134347_rgbf000002-resize_1-target.png,1000,3.144,3.53,0,2372,517,1000,997,990,513,,,,,,1171419,1431415,47
669732,DepthScenes,duration_discrimination,discrim_jsons/shuffled_g0_dr.json,http://54.89.209.186/DepthDuration/depth_discrimination_MTurk/DepthDiscrim_HTML.html#1,1,1536,700,1536,864,7-20-2021,10-20-53,23,depth_discrimination_stimuli/000549_2014-06-08_22-10-24_260595134347_rgbf000247-resize_3/000549_2014-06-08_22-10-24_260595134347_rgbf000247-resize_3-target.png,depth_discrimination_stimuli/002509_2014-06-24_13-19-22_094959634447_rgbf000077-resize_0/002509_2014-06-24_13-19-22_094959634447_rgbf000077-resize_0-target.png,250,1.841,1.3065,1,1527,512,241,999,250,513,,,,,,1171419,1431415,47
669732,DepthScenes,duration_discrimination,discrim_jsons/shuffled_g0_dr.json,http://54.89.209.186/DepthDuration/depth_discrimination_MTurk/DepthDiscrim_HTML.html#1,1,1536,700,1536,864,7-20-2021,10-20-53,24,depth_discrimination_stimuli/001450_2014-06-19_17-02-03_260595134347_rgbf000203-resize_4/001450_2014-06-19_17-02-03_260595134347_rgbf000203-resize_4-target.png,depth_discrimination_stimuli/002414_2014-06-28_20-24-58_260595134347_rgbf000067-resize_4/002414_2014-06-28_20-24-58_260595134347_rgbf000067-resize_4-target.png,1000,4.0106666666667,4.363,1,2669,502,1003,1010,986,501,,,,,,1171419,1431415,47
669732,DepthScenes,duration_discrimination,discrim_jsons/shuffled_g0_dr.json,http://54.89.209.186/DepthDuration/depth_discrimination_MTurk/DepthDiscrim_HTML.html#1,1,1536,700,1536,864,7-20-2021,10-20-53,25,depth_discrimination_stimuli/003495_2014-05-21_16-01-51_094959634447_rgbf000100-resize_3/003495_2014-05-21_16-01-51_094959634447_rgbf000100-resize_3-target.png,depth_discrimination_stimuli/002949_2014-06-26_15-57-42_094959634447_rgbf000079-resize_1/002949_2014-06-26_15-57-42_094959634447_rgbf000079-resize_1-target.png,1000,1.6255,1.8915,0,1832,502,1007,1004,993,509,,,,,,1171419,1431415,47
669732,DepthScenes,duration_discrimination,discrim_jsons/shuffled_g0_dr.json,http://54.89.209.186/DepthDuration/depth_discrimination_MTurk/DepthDiscrim_HTML.html#1,1,1536,700,1536,864,7-20-2021,10-20-53,26,depth_discrimination_stimuli/001498_2014-06-19_17-45-14_260595134347_rgbf000129-resize_4/001498_2014-06-19_17-45-14_260595134347_rgbf000129-resize_4-target.png,depth_discrimination_stimuli/003125_2014-05-12_10-39-22_094959634447_rgbf000100-resize_0/003125_2014-05-12_10-39-22_094959634447_rgbf000100-resize_0-target.png,1000,1.4075,4.8655,0,1780,514,994,994,1008,502,,,,,,1171419,1431415,47
669732,DepthScenes,duration_discrimination,discrim_jsons/shuffled_g0_dr.json,http://54.89.209.186/DepthDuration/depth_discrimination_MTurk/DepthDiscrim_HTML.html#1,1,1536,700,1536,864,7-20-2021,10-20-53,27,depth_discrimination_stimuli/002549_2014-06-24_13-41-39_094959634447_rgbf000022-resize_3/002549_2014-06-24_13-41-39_094959634447_rgbf000022-resize_3-target.png,depth_discrimination_stimuli/001136_2014-06-17_15-19-41_260595134347_rgbf000076-resize_3/001136_2014-06-17_15-19-41_260595134347_rgbf000076-resize_3-target.png,250,1.476,1.8655,0,1790,502,261,989,251,509,,,,,,1171419,1431415,47
669732,DepthScenes,duration_discrimination,discrim_jsons/shuffled_g0_dr.json,http://54.89.209.186/DepthDuration/depth_discrimination_MTurk/DepthDiscrim_HTML.html#1,1,1536,700,1536,864,7-20-2021,10-20-53,28,depth_discrimination_stimuli/003490_2014-05-21_15-50-11_094959634447_rgbf000101-resize_3/003490_2014-05-21_15-50-11_094959634447_rgbf000101-resize_3-target.png,depth_discrimination_stimuli/000866_2014-06-09_20-45-42_260595134347_rgbf000139-resize_1/000866_2014-06-09_20-45-42_260595134347_rgbf000139-resize_1-target.png,250,3.6445,3.2155,0,1481,506,251,1006,249,491,,,,,,1171419,1431415,47
669732,DepthScenes,duration_discrimination,discrim_jsons/shuffled_g0_dr.json,http://54.89.209.186/DepthDuration/depth_discrimination_MTurk/DepthDiscrim_HTML.html#1,1,1536,700,1536,864,7-20-2021,10-20-53,29,depth_discrimination_stimuli/003292_2014-05-14_21-53-49_094959634447_rgbf000100-resize_2/003292_2014-05-14_21-53-49_094959634447_rgbf000100-resize_2-target.png,depth_discrimination_stimuli/000542_2014-06-08_18-27-08_260595134347_rgbf000118-resize_1/000542_2014-06-08_18-27-08_260595134347_rgbf000118-resize_1-target.png,250,3.4815,3,1,1522,502,253,1001,256,490,,,,,,1171419,1431415,47
669732,DepthScenes,duration_discrimination,discrim_jsons/shuffled_g0_dr.json,http://54.89.209.186/DepthDuration/depth_discrimination_MTurk/DepthDiscrim_HTML.html#1,1,1536,700,1536,864,7-20-2021,10-20-53,30,depth_discrimination_stimuli/002072_2014-06-24_21-48-06_260595134347_rgbf000115-resize_0/002072_2014-06-24_21-48-06_260595134347_rgbf000115-resize_0-target.png,depth_discrimination_stimuli/001012_2014-06-08_23-19-38_260595134347_rgbf000057-resize_0/001012_2014-06-08_23-19-38_260595134347_rgbf000057-resize_0-target.png,250,4.702,1.38325,2,1772,510,255,992,247,499,,,,,,1171419,1431415,47
669732,DepthScenes,duration_discrimination,discrim_jsons/shuffled_g0_dr.json,http://54.89.209.186/DepthDuration/depth_discrimination_MTurk/DepthDiscrim_HTML.html#1,1,1536,700,1536,864,7-20-2021,10-20-53,31,depth_discrimination_stimuli/000927_2014-06-09_16-32-30_260595134347_rgbf000123-resize_3/000927_2014-06-09_16-32-30_260595134347_rgbf000123-resize_3-target.png,depth_discrimination_stimuli/002678_2014-06-13_16-15-32_094959634447_rgbf000151-resize_6/002678_2014-06-13_16-15-32_094959634447_rgbf000151-resize_6-target.png,1000,2.6785,2.183,1,1766,507,996,1001,1002,496,,,,,,1171419,1431415,47
669732,DepthScenes,duration_discrimination,discrim_jsons/shuffled_g0_dr.json,http://54.89.209.186/DepthDuration/depth_discrimination_MTurk/DepthDiscrim_HTML.html#1,1,1536,700,1536,864,7-20-2021,10-20-53,32,depth_discrimination_stimuli/002660_2014-06-13_15-44-18_094959634447_rgbf001878-resize_2/002660_2014-06-13_15-44-18_094959634447_rgbf001878-resize_2-target.png,depth_discrimination_stimuli/003081_2014-06-15_15-19-16_094959634447_rgbf000150-resize_1/003081_2014-06-15_15-19-16_094959634447_rgbf000150-resize_1-target.png,250,3.576,3.9125,0,1512,506,255,1001,239,512,,,,,,1171419,1431415,47
669732,DepthScenes,duration_discrimination,discrim_jsons/shuffled_g0_dr.json,http://54.89.209.186/DepthDuration/depth_discrimination_MTurk/DepthDiscrim_HTML.html#1,1,1536,700,1536,864,7-20-2021,10-20-53,33,depth_discrimination_stimuli/001158_2014-06-17_15-32-16_260595134347_rgbf000138-resize_2/001158_2014-06-17_15-32-16_260595134347_rgbf000138-resize_2-target.png,depth_discrimination_stimuli/001181_2014-06-17_15-50-57_260595134347_rgbf000106-resize_4/001181_2014-06-17_15-50-57_260595134347_rgbf000106-resize_4-target.png,1000,4.5315,4.149,0,1939,516,992,1001,1005,495,,,,,,1171419,1431415,47
669732,DepthScenes,duration_discrimination,discrim_jsons/shuffled_g0_dr.json,http://54.89.209.186/DepthDuration/depth_discrimination_MTurk/DepthDiscrim_HTML.html#1,1,1536,700,1536,864,7-20-2021,10-20-53,34,depth_discrimination_stimuli/002467_2014-06-28_20-38-07_260595134347_rgbf000026-resize_2/002467_2014-06-28_20-38-07_260595134347_rgbf000026-resize_2-target.png,depth_discrimination_stimuli/001133_2014-06-17_14-49-16_260595134347_rgbf000100-resize_0/001133_2014-06-17_14-49-16_260595134347_rgbf000100-resize_0-target.png,1000,4.742,4.2115,1,1726,502,1002,1003,1006,490,,,,,,1171419,1431415,47
669732,DepthScenes,duration_discrimination,discrim_jsons/shuffled_g0_dr.json,http://54.89.209.186/DepthDuration/depth_discrimination_MTurk/DepthDiscrim_HTML.html#1,1,1536,700,1536,864,7-20-2021,10-20-53,35,depth_discrimination_stimuli/001170_2014-06-17_15-43-44_260595134347_rgbf000096-resize_6/001170_2014-06-17_15-43-44_260595134347_rgbf000096-resize_6-target.png,depth_discrimination_stimuli/002364_2014-06-28_20-11-05_260595134347_rgbf000042-resize_0/002364_2014-06-28_20-11-05_260595134347_rgbf000042-resize_0-target.png,250,1.191,4.682,2,1814,512,260,990,254,501,,,,,,1171419,1431415,47
669732,DepthScenes,duration_discrimination,discrim_jsons/shuffled_g0_dr.json,http://54.89.209.186/DepthDuration/depth_discrimination_MTurk/DepthDiscrim_HTML.html#1,1,1536,700,1536,864,7-20-2021,10-20-53,36,depth_discrimination_stimuli/003423_2014-05-21_10-23-26_094959634447_rgbf002665-resize_2/003423_2014-05-21_10-23-26_094959634447_rgbf002665-resize_2-target.png,depth_discrimination_stimuli/000137_2014-05-20_17-04-49_260595134347_rgbf000120-resize_1/000137_2014-05-20_17-04-49_260595134347_rgbf000120-resize_1-target.png,1000,3.2575,3.786,0,2230,503,1008,998,1005,496,,,,,,1171419,1431415,47
669732,DepthScenes,duration_discrimination,discrim_jsons/shuffled_g0_dr.json,http://54.89.209.186/DepthDuration/depth_discrimination_MTurk/DepthDiscrim_HTML.html#1,1,1536,700,1536,864,7-20-2021,10-20-53,37,depth_discrimination_stimuli/001197_2014-06-17_16-01-50_260595134347_rgbf000103-resize_4/001197_2014-06-17_16-01-50_260595134347_rgbf000103-resize_4-target.png,depth_discrimination_stimuli/001235_2014-06-17_16-37-36_260595134347_rgbf000084-resize_4/001235_2014-06-17_16-37-36_260595134347_rgbf000084-resize_4-target.png,1000,3.4025,3.6605,0,2059,506,1002,1000,993,509,,,,,,1171419,1431415,47
669732,DepthScenes,duration_discrimination,discrim_jsons/shuffled_g0_dr.json,http://54.89.209.186/DepthDuration/depth_discrimination_MTurk/DepthDiscrim_HTML.html#1,1,1536,700,1536,864,7-20-2021,10-20-53,38,depth_discrimination_stimuli/003395_2014-05-20_15-39-18_094959634447_rgbf000101-resize_0/003395_2014-05-20_15-39-18_094959634447_rgbf000101-resize_0-target.png,depth_discrimination_stimuli/001540_2014-06-20_17-01-05_260595134347_rgbf000086-resize_2/001540_2014-06-20_17-01-05_260595134347_rgbf000086-resize_2-target.png,1000,4.835,1.459,1,1584,504,1010,1003,990,502,,,,,,1171419,1431415,47
669732,DepthScenes,duration_discrimination,discrim_jsons/shuffled_g0_dr.json,http://54.89.209.186/DepthDuration/depth_discrimination_MTurk/DepthDiscrim_HTML.html#1,1,1536,700,1536,864,7-20-2021,10-20-53,39,depth_discrimination_stimuli/001808_2014-06-26_20-50-58_260595134347_rgbf000029-resize_1/001808_2014-06-26_20-50-58_260595134347_rgbf000029-resize_1-target.png,depth_discrimination_stimuli/002748_2014-06-22_19-07-22_094959634447_rgbf000078-resize_1/002748_2014-06-22_19-07-22_094959634447_rgbf000078-resize_1-target.png,1000,4.249,4.6705,0,2122,503,1014,986,1006,502,,,,,,1171419,1431415,47
669732,DepthScenes,duration_discrimination,discrim_jsons/shuffled_g0_dr.json,http://54.89.209.186/DepthDuration/depth_discrimination_MTurk/DepthDiscrim_HTML.html#1,1,1536,700,1536,864,7-20-2021,10-20-53,40,depth_discrimination_stimuli/002323_2014-06-28_20-01-54_260595134347_rgbf000051-resize_4/002323_2014-06-28_20-01-54_260595134347_rgbf000051-resize_4-target.png,depth_discrimination_stimuli/001032_2014-06-08_13-23-17_260595134347_rgbf000021-resize_3/001032_2014-06-08_13-23-17_260595134347_rgbf000021-resize_3-target.png,1000,3.731,3.2725,1,1782,506,997,1011,991,508,,,,,,1171419,1431415,47
669732,DepthScenes,duration_discrimination,discrim_jsons/shuffled_g0_dr.json,http://54.89.209.186/DepthDuration/depth_discrimination_MTurk/DepthDiscrim_HTML.html#1,1,1536,700,1536,864,7-20-2021,10-20-53,40,,,,,,,1782,506,997,1011,991,508,,,,,,1171419,1431415,47
669732,DepthScenes,duration_discrimination,discrim_jsons/shuffled_g0_dr.json,http://54.89.209.186/DepthDuration/depth_discrimination_MTurk/DepthDiscrim_HTML.html#1,1,1519,700,1536,864,7-20-2021,10-20-53,42,,,,,,,1782,506,997,1011,991,508,,2,2,scene_property_catch_stimuli/sun_aatxlublfjchvvzu.jpg,26062,1171419,1431415,47
669732,DepthScenes,duration_discrimination,discrim_jsons/shuffled_g0_dr.json,http://54.89.209.186/DepthDuration/depth_discrimination_MTurk/DepthDiscrim_HTML.html#1,1,1519,700,1536,864,7-20-2021,10-20-53,43,,,,,,,1782,506,997,1011,991,508,,2,4,depth_discrimination_stimuli/002139_2014-06-25_21-19-37_260595134347_rgbf000124-resize_2/002139_2014-06-25_21-19-37_260595134347_rgbf000124-resize-original.jpg,10387,1171419,1431415,47
669732,DepthScenes,duration_discrimination,discrim_jsons/shuffled_g0_dr.json,http://54.89.209.186/DepthDuration/depth_discrimination_MTurk/DepthDiscrim_HTML.html#1,1,1519,700,1536,864,7-20-2021,10-20-53,44,,,,,,,1782,506,997,1011,991,508,,2,2,scene_property_catch_stimuli/000675_2014-06-08_22-59-18_260595134347_rgbf000096-resize.jpg,7971,1171419,1431415,47
669732,DepthScenes,duration_discrimination,discrim_jsons/shuffled_g0_dr.json,http://54.89.209.186/DepthDuration/depth_discrimination_MTurk/DepthDiscrim_HTML.html#1,1,1519,700,1536,864,7-20-2021,10-20-53,45,,,,,,,1782,506,997,1011,991,508,,3,3,depth_discrimination_stimuli/001052_2014-06-08_18-24-54_260595134347_rgbf000130-resize_1/001052_2014-06-08_18-24-54_260595134347_rgbf000130-resize-original.jpg,8711,1171419,1431415,47
669732,DepthScenes,duration_discrimination,discrim_jsons/shuffled_g0_dr.json,http://54.89.209.186/DepthDuration/depth_discrimination_MTurk/DepthDiscrim_HTML.html#1,1,1519,700,1536,864,7-20-2021,10-20-53,46,,,,,,,1782,506,997,1011,991,508,,2,3,depth_discrimination_stimuli/000486_2014-06-09_20-47-20_260595134347_rgbf000143-resize_2/000486_2014-06-09_20-47-20_260595134347_rgbf000143-resize-original.jpg,9314,1171419,1431415,47
669732,DepthScenes,duration_discrimination,discrim_jsons/shuffled_g0_dr.json,http://54.89.209.186/DepthDuration/depth_discrimination_MTurk/DepthDiscrim_HTML.html#1,1,1519,700,1536,864,7-20-2021,10-20-53,47,,,,,,,1782,506,997,1011,991,508,,2,2,depth_discrimination_stimuli/002136_2014-06-25_21-18-03_260595134347_rgbf000109-resize_3/002136_2014-06-25_21-18-03_260595134347_rgbf000109-resize-original.jpg,5339,1171419,1431415,47
669732,DepthScenes,duration_discrimination,discrim_jsons/shuffled_g0_dr.json,http://54.89.209.186/DepthDuration/depth_discrimination_MTurk/DepthDiscrim_HTML.html#1,1,1519,700,1536,864,7-20-2021,10-20-53,48,,,,,,,1782,506,997,1011,991,508,,3,2,depth_discrimination_stimuli/002964_2014-06-08_17-46-11_094959634447_rgbf000091-resize_4/002964_2014-06-08_17-46-11_094959634447_rgbf000091-resize-original.jpg,7463,1171419,1431415,47
669732,DepthScenes,duration_discrimination,discrim_jsons/shuffled_g0_dr.json,http://54.89.209.186/DepthDuration/depth_discrimination_MTurk/DepthDiscrim_HTML.html#1,1,1519,700,1536,864,7-20-2021,10-20-53,49,,,,,,,1782,506,997,1011,991,508,,3,3,depth_discrimination_stimuli/002464_2014-06-28_20-36-57_260595134347_rgbf000029-resize_0/002464_2014-06-28_20-36-57_260595134347_rgbf000029-resize-original.jpg,8750,1171419,1431415,47
669732,DepthScenes,duration_discrimination,discrim_jsons/shuffled_g0_dr.json,http://54.89.209.186/DepthDuration/depth_discrimination_MTurk/DepthDiscrim_HTML.html#1,1,1519,700,1536,864,7-20-2021,10-20-53,50,,,,,,,1782,506,997,1011,991,508,,3,2,depth_discrimination_stimuli/001158_2014-06-17_15-32-16_260595134347_rgbf000138-resize_2/001158_2014-06-17_15-32-16_260595134347_rgbf000138-resize-original.jpg,6418,1171419,1431415,47
669732,DepthScenes,duration_discrimination,discrim_jsons/shuffled_g0_dr.json,http://54.89.209.186/DepthDuration/depth_discrimination_MTurk/DepthDiscrim_HTML.html#1,1,1519,700,1536,864,7-20-2021,10-20-53,51,,,,,,,1782,506,997,1011,991,508,,3,5,scene_property_catch_stimuli/sun_aoquhiddlfqapdlz.jpg,7409,1171419,1431415,47
669732,DepthScenes,duration_discrimination,discrim_jsons/shuffled_g0_dr.json,http://54.89.209.186/DepthDuration/depth_discrimination_MTurk/DepthDiscrim_HTML.html#1,1,1519,700,1536,864,7-20-2021,10-20-53,52,,,,,,,1782,506,997,1011,991,508,,2,4,depth_discrimination_stimuli/002043_2014-06-24_20-29-38_260595134347_rgbf000039-resize_4/002043_2014-06-24_20-29-38_260595134347_rgbf000039-resize-original.jpg,8060,1171419,1431415,47
669732,DepthScenes,duration_discrimination,discrim_jsons/shuffled_g0_dr.json,http://54.89.209.186/DepthDuration/depth_discrimination_MTurk/DepthDiscrim_HTML.html#1,1,1519,700,1536,864,7-20-2021,10-20-53,53,,,,,,,1782,506,997,1011,991,508,,3,2,depth_discrimination_stimuli/002995_2014-06-15_12-31-26_094959634447_rgbf000150-resize_1/002995_2014-06-15_12-31-26_094959634447_rgbf000150-resize-original.jpg,8192,1171419,1431415,47
669732,DepthScenes,duration_discrimination,discrim_jsons/shuffled_g0_dr.json,http://54.89.209.186/DepthDuration/depth_discrimination_MTurk/DepthDiscrim_HTML.html#1,1,1519,700,1536,864,7-20-2021,10-20-53,54,,,,,,,1782,506,997,1011,991,508,,3,4,depth_discrimination_stimuli/002323_2014-06-28_20-01-54_260595134347_rgbf000051-resize_4/002323_2014-06-28_20-01-54_260595134347_rgbf000051-resize-original.jpg,6121,1171419,1431415,47
669732,DepthScenes,duration_discrimination,discrim_jsons/shuffled_g0_dr.json,http://54.89.209.186/DepthDuration/depth_discrimination_MTurk/DepthDiscrim_HTML.html#1,1,1519,700,1536,864,7-20-2021,10-20-53,55,,,,,,,1782,506,997,1011,991,508,,3,5,depth_discrimination_stimuli/002365_2014-06-28_20-11-21_260595134347_rgbf000102-resize_1/002365_2014-06-28_20-11-21_260595134347_rgbf000102-resize-original.jpg,5363,1171419,1431415,47
669732,DepthScenes,duration_discrimination,discrim_jsons/shuffled_g0_dr.json,http://54.89.209.186/DepthDuration/depth_discrimination_MTurk/DepthDiscrim_HTML.html#1,1,1519,700,1536,864,7-20-2021,10-20-53,56,,,,,,,1782,506,997,1011,991,508,,2,3,depth_discrimination_stimuli/003492_2014-05-21_15-50-55_094959634447_rgbf000828-resize_1/003492_2014-05-21_15-50-55_094959634447_rgbf000828-resize-original.jpg,6936,1171419,1431415,47
669732,DepthScenes,duration_discrimination,discrim_jsons/shuffled_g0_dr.json,http://54.89.209.186/DepthDuration/depth_discrimination_MTurk/DepthDiscrim_HTML.html#1,1,1519,700,1536,864,7-20-2021,10-20-53,57,,,,,,,1782,506,997,1011,991,508,,2,4,depth_discrimination_stimuli/001289_2014-06-16_16-25-52_260595134347_rgbf000067-resize_1/001289_2014-06-16_16-25-52_260595134347_rgbf000067-resize-original.jpg,6879,1171419,1431415,47
669732,DepthScenes,duration_discrimination,discrim_jsons/shuffled_g0_dr.json,http://54.89.209.186/DepthDuration/depth_discrimination_MTurk/DepthDiscrim_HTML.html#1,1,1519,700,1536,864,7-20-2021,10-20-53,58,,,,,,,1782,506,997,1011,991,508,,3,3,depth_discrimination_stimuli/001815_2014-06-26_20-52-55_260595134347_rgbf000020-resize_0/001815_2014-06-26_20-52-55_260595134347_rgbf000020-resize-original.jpg,5248,1171419,1431415,47
669732,DepthScenes,duration_discrimination,discrim_jsons/shuffled_g0_dr.json,http://54.89.209.186/DepthDuration/depth_discrimination_MTurk/DepthDiscrim_HTML.html#1,1,1519,700,1536,864,7-20-2021,10-20-53,59,,,,,,,1782,506,997,1011,991,508,,3,3,depth_discrimination_stimuli/002545_2014-06-24_13-38-53_094959634447_rgbf000080-resize_4/002545_2014-06-24_13-38-53_094959634447_rgbf000080-resize-original.jpg,3944,1171419,1431415,47
669732,DepthScenes,duration_discrimination,discrim_jsons/shuffled_g0_dr.json,http://54.89.209.186/DepthDuration/depth_discrimination_MTurk/DepthDiscrim_HTML.html#1,1,1519,700,1536,864,7-20-2021,10-20-53,60,,,,,,,1782,506,997,1011,991,508,,2,5,depth_discrimination_stimuli/000691_2014-06-08_13-08-50_260595134347_rgbf000132-resize_3/000691_2014-06-08_13-08-50_260595134347_rgbf000132-resize-original.jpg,7320,1171419,1431415,47
669732,DepthScenes,duration_discrimination,discrim_jsons/shuffled_g0_dr.json,http://54.89.209.186/DepthDuration/depth_discrimination_MTurk/DepthDiscrim_HTML.html#1,1,1519,700,1536,864,7-20-2021,10-20-53,61,,,,,,,1782,506,997,1011,991,508,,3,3,depth_discrimination_stimuli/002748_2014-06-22_19-07-22_094959634447_rgbf000078-resize_1/002748_2014-06-22_19-07-22_094959634447_rgbf000078-resize-original.jpg,4521,1171419,1431415,47
669732,DepthScenes,duration_discrimination,discrim_jsons/shuffled_g0_dr.json,http://54.89.209.186/DepthDuration/depth_discrimination_MTurk/DepthDiscrim_HTML.html#1,1,1519,700,1536,864,7-20-2021,10-20-53,62,,,,,,,1782,506,997,1011,991,508,,1,3,depth_discrimination_stimuli/000854_2014-06-09_19-43-13_260595134347_rgbf000066-resize_0/000854_2014-06-09_19-43-13_260595134347_rgbf000066-resize-original.jpg,7927,1171419,1431415,47
669732,DepthScenes,duration_discrimination,discrim_jsons/shuffled_g0_dr.json,http://54.89.209.186/DepthDuration/depth_discrimination_MTurk/DepthDiscrim_HTML.html#1,1,1519,700,1536,864,7-20-2021,10-20-53,63,,,,,,,1782,506,997,1011,991,508,,3,2,depth_discrimination_stimuli/000137_2014-05-20_17-04-49_260595134347_rgbf000120-resize_1/000137_2014-05-20_17-04-49_260595134347_rgbf000120-resize-original.jpg,4353,1171419,1431415,47
669732,DepthScenes,duration_discrimination,discrim_jsons/shuffled_g0_dr.json,http://54.89.209.186/DepthDuration/depth_discrimination_MTurk/DepthDiscrim_HTML.html#1,1,1519,700,1536,864,7-20-2021,10-20-53,64,,,,,,,1782,506,997,1011,991,508,,2,3,depth_discrimination_stimuli/000720_2014-06-08_18-37-27_260595134347_rgbf000203-resize_4/000720_2014-06-08_18-37-27_260595134347_rgbf000203-resize-original.jpg,4932,1171419,1431415,47
669732,DepthScenes,duration_discrimination,discrim_jsons/shuffled_g0_dr.json,http://54.89.209.186/DepthDuration/depth_discrimination_MTurk/DepthDiscrim_HTML.html#1,1,1519,700,1536,864,7-20-2021,10-20-53,65,,,,,,,1782,506,997,1011,991,508,,3,5,depth_discrimination_stimuli/001392_2014-06-19_16-07-59_260595134347_rgbf000046-resize_1/001392_2014-06-19_16-07-59_260595134347_rgbf000046-resize-original.jpg,3833,1171419,1431415,47
669732,DepthScenes,duration_discrimination,discrim_jsons/shuffled_g0_dr.json,http://54.89.209.186/DepthDuration/depth_discrimination_MTurk/DepthDiscrim_HTML.html#1,1,1519,700,1536,864,7-20-2021,10-20-53,66,,,,,,,1782,506,997,1011,991,508,,2,4,depth_discrimination_stimuli/001808_2014-06-26_20-50-58_260595134347_rgbf000029-resize_1/001808_2014-06-26_20-50-58_260595134347_rgbf000029-resize-original.jpg,9520,1171419,1431415,47
669732,DepthScenes,duration_discrimination,discrim_jsons/shuffled_g0_dr.json,http://54.89.209.186/DepthDuration/depth_discrimination_MTurk/DepthDiscrim_HTML.html#1,1,1519,700,1536,864,7-20-2021,10-20-53,67,,,,,,,1782,506,997,1011,991,508,,2,4,depth_discrimination_stimuli/001806_2014-06-26_20-50-20_260595134347_rgbf000091-resize_1/001806_2014-06-26_20-50-20_260595134347_rgbf000091-resize-original.jpg,6207,1171419,1431415,47
669732,DepthScenes,duration_discrimination,discrim_jsons/shuffled_g0_dr.json,http://54.89.209.186/DepthDuration/depth_discrimination_MTurk/DepthDiscrim_HTML.html#1,1,1519,700,1536,864,7-20-2021,10-20-53,68,,,,,,,1782,506,997,1011,991,508,,2,3,depth_discrimination_stimuli/002875_2014-06-01_15-19-00_094959634447_rgbf000151-resize_1/002875_2014-06-01_15-19-00_094959634447_rgbf000151-resize-original.jpg,7596,1171419,1431415,47
669732,DepthScenes,duration_discrimination,discrim_jsons/shuffled_g0_dr.json,http://54.89.209.186/DepthDuration/depth_discrimination_MTurk/DepthDiscrim_HTML.html#1,1,1519,700,1536,864,7-20-2021,10-20-53,69,,,,,,,1782,506,997,1011,991,508,,1,3,depth_discrimination_stimuli/001199_2014-06-17_16-03-48_260595134347_rgbf000077-resize_0/001199_2014-06-17_16-03-48_260595134347_rgbf000077-resize-original.jpg,4106,1171419,1431415,47
669732,DepthScenes,duration_discrimination,discrim_jsons/shuffled_g0_dr.json,http://54.89.209.186/DepthDuration/depth_discrimination_MTurk/DepthDiscrim_HTML.html#1,1,1519,700,1536,864,7-20-2021,10-20-53,70,,,,,,,1782,506,997,1011,991,508,,2,4,depth_discrimination_stimuli/003534_2014-05-22_15-06-10_094959634447_rgbf000102-resize_4/003534_2014-05-22_15-06-10_094959634447_rgbf000102-resize-original.jpg,5967,1171419,1431415,47
669732,DepthScenes,duration_discrimination,discrim_jsons/shuffled_g0_dr.json,http://54.89.209.186/DepthDuration/depth_discrimination_MTurk/DepthDiscrim_HTML.html#1,1,1519,700,1536,864,7-20-2021,10-20-53,71,,,,,,,1782,506,997,1011,991,508,,2,3,depth_discrimination_stimuli/000773_2014-06-08_22-24-54_260595134347_rgbf000093-resize_1/000773_2014-06-08_22-24-54_260595134347_rgbf000093-resize-original.jpg,6047,1171419,1431415,47
669732,DepthScenes,duration_discrimination,discrim_jsons/shuffled_g0_dr.json,http://54.89.209.186/DepthDuration/depth_discrimination_MTurk/DepthDiscrim_HTML.html#1,1,1519,700,1536,864,7-20-2021,10-20-53,72,,,,,,,1782,506,997,1011,991,508,,3,3,depth_discrimination_stimuli/000555_2014-06-09_22-42-23_260595134347_rgbf000037-resize_4/000555_2014-06-09_22-42-23_260595134347_rgbf000037-resize-original.jpg,3877,1171419,1431415,47
669732,DepthScenes,duration_discrimination,discrim_jsons/shuffled_g0_dr.json,http://54.89.209.186/DepthDuration/depth_discrimination_MTurk/DepthDiscrim_HTML.html#1,1,1519,700,1536,864,7-20-2021,10-20-53,73,,,,,,,1782,506,997,1011,991,508,,2,5,depth_discrimination_stimuli/000409_2014-06-04_19-23-33_260595134347_rgbf000067-resize_0/000409_2014-06-04_19-23-33_260595134347_rgbf000067-resize-original.jpg,5679,1171419,1431415,47
669732,DepthScenes,duration_discrimination,discrim_jsons/shuffled_g0_dr.json,http://54.89.209.186/DepthDuration/depth_discrimination_MTurk/DepthDiscrim_HTML.html#1,1,1519,700,1536,864,7-20-2021,10-20-53,74,,,,,,,1782,506,997,1011,991,508,,4,3,depth_discrimination_stimuli/002375_2014-06-28_20-13-44_260595134347_rgbf000032-resize_1/002375_2014-06-28_20-13-44_260595134347_rgbf000032-resize-original.jpg,5203,1171419,1431415,47
669732,DepthScenes,duration_discrimination,discrim_jsons/shuffled_g0_dr.json,http://54.89.209.186/DepthDuration/depth_discrimination_MTurk/DepthDiscrim_HTML.html#1,1,1519,700,1536,864,7-20-2021,10-20-53,75,,,,,,,1782,506,997,1011,991,508,,2,3,depth_discrimination_stimuli/000780_2014-06-08_22-28-29_260595134347_rgbf000126-resize_1/000780_2014-06-08_22-28-29_260595134347_rgbf000126-resize-original.jpg,4517,1171419,1431415,47
669732,DepthScenes,duration_discrimination,discrim_jsons/shuffled_g0_dr.json,http://54.89.209.186/DepthDuration/depth_discrimination_MTurk/DepthDiscrim_HTML.html#1,1,1519,700,1536,864,7-20-2021,10-20-53,76,,,,,,,1782,506,997,1011,991,508,,2,2,depth_discrimination_stimuli/002763_2014-06-22_19-13-10_094959634447_rgbf000075-resize_4/002763_2014-06-22_19-13-10_094959634447_rgbf000075-resize-original.jpg,4339,1171419,1431415,47
669732,DepthScenes,duration_discrimination,discrim_jsons/shuffled_g0_dr.json,http://54.89.209.186/DepthDuration/depth_discrimination_MTurk/DepthDiscrim_HTML.html#1,1,1519,700,1536,864,7-20-2021,10-20-53,77,,,,,,,1782,506,997,1011,991,508,,2,4,depth_discrimination_stimuli/001571_2014-06-20_17-21-32_260595134347_rgbf000089-resize_1/001571_2014-06-20_17-21-32_260595134347_rgbf000089-resize-original.jpg,4601,1171419,1431415,47
669732,DepthScenes,duration_discrimination,discrim_jsons/shuffled_g0_dr.json,http://54.89.209.186/DepthDuration/depth_discrimination_MTurk/DepthDiscrim_HTML.html#1,1,1519,700,1536,864,7-20-2021,10-20-53,78,,,,,,,1782,506,997,1011,991,508,,3,3,depth_discrimination_stimuli/000749_2014-06-08_21-55-06_260595134347_rgbf000070-resize_2/000749_2014-06-08_21-55-06_260595134347_rgbf000070-resize-original.jpg,3631,1171419,1431415,47
669732,DepthScenes,duration_discrimination,discrim_jsons/shuffled_g0_dr.json,http://54.89.209.186/DepthDuration/depth_discrimination_MTurk/DepthDiscrim_HTML.html#1,1,1519,700,1536,864,7-20-2021,10-20-53,79,,,,,,,1782,506,997,1011,991,508,,2,2,depth_discrimination_stimuli/000800_2014-06-08_22-42-09_260595134347_rgbf000095-resize_3/000800_2014-06-08_22-42-09_260595134347_rgbf000095-resize-original.jpg,5165,1171419,1431415,47
669732,DepthScenes,duration_discrimination,discrim_jsons/shuffled_g0_dr.json,http://54.89.209.186/DepthDuration/depth_discrimination_MTurk/DepthDiscrim_HTML.html#1,1,1519,700,1536,864,7-20-2021,10-20-53,80,,,,,,,1782,506,997,1011,991,508,,2,3,depth_discrimination_stimuli/003228_2014-05-14_13-42-35_094959634447_rgbf000101-resize_1/003228_2014-05-14_13-42-35_094959634447_rgbf000101-resize-original.jpg,6906,1171419,1431415,47
669732,DepthScenes,duration_discrimination,discrim_jsons/shuffled_g0_dr.json,http://54.89.209.186/DepthDuration/depth_discrimination_MTurk/DepthDiscrim_HTML.html#1,1,1519,700,1536,864,7-20-2021,10-20-53,81,,,,,,,1782,506,997,1011,991,508,,3,3,depth_discrimination_stimuli/001094_2014-06-15_17-36-00_260595134347_rgbf000205-resize_0/001094_2014-06-15_17-36-00_260595134347_rgbf000205-resize-original.jpg,3895,1171419,1431415,47
669732,DepthScenes,duration_discrimination,discrim_jsons/shuffled_g0_dr.json,http://54.89.209.186/DepthDuration/depth_discrimination_MTurk/DepthDiscrim_HTML.html#1,1,1519,700,1536,864,7-20-2021,10-20-53,82,,,,,,,1782,506,997,1011,991,508,,2,5,depth_discrimination_stimuli/002568_2014-06-24_13-59-21_094959634447_rgbf000062-resize_4/002568_2014-06-24_13-59-21_094959634447_rgbf000062-resize-original.jpg,5667,1171419,1431415,47
669732,DepthScenes,duration_discrimination,discrim_jsons/shuffled_g0_dr.json,http://54.89.209.186/DepthDuration/depth_discrimination_MTurk/DepthDiscrim_HTML.html#1,1,1519,700,1536,864,7-20-2021,10-20-53,83,,,,,,,1782,506,997,1011,991,508,,3,3,depth_discrimination_stimuli/002678_2014-06-13_16-15-32_094959634447_rgbf000151-resize_6/002678_2014-06-13_16-15-32_094959634447_rgbf000151-resize-original.jpg,5236,1171419,1431415,47
669732,DepthScenes,duration_discrimination,discrim_jsons/shuffled_g0_dr.json,http://54.89.209.186/DepthDuration/depth_discrimination_MTurk/DepthDiscrim_HTML.html#1,1,1519,700,1536,864,7-20-2021,10-20-53,84,,,,,,,1782,506,997,1011,991,508,,2,4,depth_discrimination_stimuli/002758_2014-06-22_19-11-20_094959634447_rgbf000128-resize_1/002758_2014-06-22_19-11-20_094959634447_rgbf000128-resize-original.jpg,6717,1171419,1431415,47
669732,DepthScenes,duration_discrimination,discrim_jsons/shuffled_g0_dr.json,http://54.89.209.186/DepthDuration/depth_discrimination_MTurk/DepthDiscrim_HTML.html#1,1,1519,700,1536,864,7-20-2021,10-20-53,85,,,,,,,1782,506,997,1011,991,508,,3,3,depth_discrimination_stimuli/002153_2014-06-25_21-27-18_260595134347_rgbf000038-resize_5/002153_2014-06-25_21-27-18_260595134347_rgbf000038-resize-original.jpg,5277,1171419,1431415,47
669732,DepthScenes,duration_discrimination,discrim_jsons/shuffled_g0_dr.json,http://54.89.209.186/DepthDuration/depth_discrimination_MTurk/DepthDiscrim_HTML.html#1,1,1519,700,1536,864,7-20-2021,10-20-53,86,,,,,,,1782,506,997,1011,991,508,,2,5,depth_discrimination_stimuli/002725_2014-06-22_11-47-51_094959634447_rgbf000070-resize_1/002725_2014-06-22_11-47-51_094959634447_rgbf000070-resize-original.jpg,4181,1171419,1431415,47
669732,DepthScenes,duration_discrimination,discrim_jsons/shuffled_g0_dr.json,http://54.89.209.186/DepthDuration/depth_discrimination_MTurk/DepthDiscrim_HTML.html#1,1,1519,700,1536,864,7-20-2021,10-20-53,87,,,,,,,1782,506,997,1011,991,508,,2,4,depth_discrimination_stimuli/001810_2014-06-26_20-51-35_260595134347_rgbf000040-resize_3/001810_2014-06-26_20-51-35_260595134347_rgbf000040-resize-original.jpg,6620,1171419,1431415,47
669732,DepthScenes,duration_discrimination,discrim_jsons/shuffled_g0_dr.json,http://54.89.209.186/DepthDuration/depth_discrimination_MTurk/DepthDiscrim_HTML.html#1,1,1519,700,1536,864,7-20-2021,10-20-53,88,,,,,,,1782,506,997,1011,991,508,,2,3,depth_discrimination_stimuli/003081_2014-06-15_15-19-16_094959634447_rgbf000150-resize_1/003081_2014-06-15_15-19-16_094959634447_rgbf000150-resize-original.jpg,4191,1171419,1431415,47
669732,DepthScenes,duration_discrimination,discrim_jsons/shuffled_g0_dr.json,http://54.89.209.186/DepthDuration/depth_discrimination_MTurk/DepthDiscrim_HTML.html#1,1,1519,700,1536,864,7-20-2021,10-20-53,89,,,,,,,1782,506,997,1011,991,508,,2,2,depth_discrimination_stimuli/000943_2014-06-09_19-31-07_260595134347_rgbf000128-resize_1/000943_2014-06-09_19-31-07_260595134347_rgbf000128-resize-original.jpg,4579,1171419,1431415,47
669732,DepthScenes,duration_discrimination,discrim_jsons/shuffled_g0_dr.json,http://54.89.209.186/DepthDuration/depth_discrimination_MTurk/DepthDiscrim_HTML.html#1,1,1519,700,1536,864,7-20-2021,10-20-53,90,,,,,,,1782,506,997,1011,991,508,,3,2,depth_discrimination_stimuli/002460_2014-06-28_20-35-43_260595134347_rgbf000028-resize_4/002460_2014-06-28_20-35-43_260595134347_rgbf000028-resize-original.jpg,3668,1171419,1431415,47
669732,DepthScenes,duration_discrimination,discrim_jsons/shuffled_g0_dr.json,http://54.89.209.186/DepthDuration/depth_discrimination_MTurk/DepthDiscrim_HTML.html#1,1,1519,700,1536,864,7-20-2021,10-20-53,91,,,,,,,1782,506,997,1011,991,508,,3,1,depth_discrimination_stimuli/002509_2014-06-24_13-19-22_094959634447_rgbf000077-resize_0/002509_2014-06-24_13-19-22_094959634447_rgbf000077-resize-original.jpg,5394,1171419,1431415,47
669732,DepthScenes,duration_discrimination,discrim_jsons/shuffled_g0_dr.json,http://54.89.209.186/DepthDuration/depth_discrimination_MTurk/DepthDiscrim_HTML.html#1,1,1519,700,1536,864,7-20-2021,10-20-53,92,,,,,,,1782,506,997,1011,991,508,,2,3,depth_discrimination_stimuli/003587_2014-05-23_16-48-02_094959634447_rgbf002384-resize_2/003587_2014-05-23_16-48-02_094959634447_rgbf002384-resize-original.jpg,6122,1171419,1431415,47
669732,DepthScenes,duration_discrimination,discrim_jsons/shuffled_g0_dr.json,http://54.89.209.186/DepthDuration/depth_discrimination_MTurk/DepthDiscrim_HTML.html#1,1,1519,700,1536,864,7-20-2021,10-20-53,93,,,,,,,1782,506,997,1011,991,508,,3,2,depth_discrimination_stimuli/002660_2014-06-13_15-44-18_094959634447_rgbf001878-resize_2/002660_2014-06-13_15-44-18_094959634447_rgbf001878-resize-original.jpg,5703,1171419,1431415,47
669732,DepthScenes,duration_discrimination,discrim_jsons/shuffled_g0_dr.json,http://54.89.209.186/DepthDuration/depth_discrimination_MTurk/DepthDiscrim_HTML.html#1,1,1519,700,1536,864,7-20-2021,10-20-53,94,,,,,,,1782,506,997,1011,991,508,,3,3,depth_discrimination_stimuli/000736_2014-06-08_18-24-15_260595134347_rgbf000206-resize_3/000736_2014-06-08_18-24-15_260595134347_rgbf000206-resize-original.jpg,3695,1171419,1431415,47
669732,DepthScenes,duration_discrimination,discrim_jsons/shuffled_g0_dr.json,http://54.89.209.186/DepthDuration/depth_discrimination_MTurk/DepthDiscrim_HTML.html#1,1,1519,700,1536,864,7-20-2021,10-20-53,95,,,,,,,1782,506,997,1011,991,508,,3,3,depth_discrimination_stimuli/003129_2014-05-12_10-48-10_094959634447_rgbf000100-resize_0/003129_2014-05-12_10-48-10_094959634447_rgbf000100-resize-original.jpg,3855,1171419,1431415,47
669732,DepthScenes,duration_discrimination,discrim_jsons/shuffled_g0_dr.json,http://54.89.209.186/DepthDuration/depth_discrimination_MTurk/DepthDiscrim_HTML.html#1,1,1519,700,1536,864,7-20-2021,10-20-53,96,,,,,,,1782,506,997,1011,991,508,,3,3,depth_discrimination_stimuli/001092_2014-06-15_17-34-58_260595134347_rgbf000171-resize_3/001092_2014-06-15_17-34-58_260595134347_rgbf000171-resize-original.jpg,4800,1171419,1431415,47
669732,DepthScenes,duration_discrimination,discrim_jsons/shuffled_g0_dr.json,http://54.89.209.186/DepthDuration/depth_discrimination_MTurk/DepthDiscrim_HTML.html#1,1,1519,700,1536,864,7-20-2021,10-20-53,97,,,,,,,1782,506,997,1011,991,508,,3,3,depth_discrimination_stimuli/001447_2014-06-19_17-00-32_260595134347_rgbf000082-resize_5/001447_2014-06-19_17-00-32_260595134347_rgbf000082-resize-original.jpg,5910,1171419,1431415,47
669732,DepthScenes,duration_discrimination,discrim_jsons/shuffled_g0_dr.json,http://54.89.209.186/DepthDuration/depth_discrimination_MTurk/DepthDiscrim_HTML.html#1,1,1519,700,1536,864,7-20-2021,10-20-53,98,,,,,,,1782,506,997,1011,991,508,,3,2,depth_discrimination_stimuli/000505_2014-06-08_23-03-23_260595134347_rgbf000091-resize_0/000505_2014-06-08_23-03-23_260595134347_rgbf000091-resize-original.jpg,5367,1171419,1431415,47
669732,DepthScenes,duration_discrimination,discrim_jsons/shuffled_g0_dr.json,http://54.89.209.186/DepthDuration/depth_discrimination_MTurk/DepthDiscrim_HTML.html#1,1,1519,700,1536,864,7-20-2021,10-20-53,99,,,,,,,1782,506,997,1011,991,508,,3,3,depth_discrimination_stimuli/002637_2014-06-24_14-51-13_094959634447_rgbf000066-resize_4/002637_2014-06-24_14-51-13_094959634447_rgbf000066-resize-original.jpg,4569,1171419,1431415,47
669732,DepthScenes,duration_discrimination,discrim_jsons/shuffled_g0_dr.json,http://54.89.209.186/DepthDuration/depth_discrimination_MTurk/DepthDiscrim_HTML.html#1,1,1519,700,1536,864,7-20-2021,10-20-53,100,,,,,,,1782,506,997,1011,991,508,,2,1,depth_discrimination_stimuli/002279_2014-06-28_18-55-32_260595134347_rgbf000040-resize_5/002279_2014-06-28_18-55-32_260595134347_rgbf000040-resize-original.jpg,5545,1171419,1431415,47
669732,DepthScenes,duration_discrimination,discrim_jsons/shuffled_g0_dr.json,http://54.89.209.186/DepthDuration/depth_discrimination_MTurk/DepthDiscrim_HTML.html#1,1,1519,700,1536,864,7-20-2021,10-20-53,101,,,,,,,1782,506,997,1011,991,508,,3,2,depth_discrimination_stimuli/000521_2014-06-08_13-34-35_260595134347_rgbf000191-resize_2/000521_2014-06-08_13-34-35_260595134347_rgbf000191-resize-original.jpg,4857,1171419,1431415,47
669732,DepthScenes,duration_discrimination,discrim_jsons/shuffled_g0_dr.json,http://54.89.209.186/DepthDuration/depth_discrimination_MTurk/DepthDiscrim_HTML.html#1,1,1519,700,1536,864,7-20-2021,10-20-53,102,,,,,,,1782,506,997,1011,991,508,,3,3,depth_discrimination_stimuli/002213_2014-06-28_18-37-58_260595134347_rgbf000055-resize_1/002213_2014-06-28_18-37-58_260595134347_rgbf000055-resize-original.jpg,5425,1171419,1431415,47
669732,DepthScenes,duration_discrimination,discrim_jsons/shuffled_g0_dr.json,http://54.89.209.186/DepthDuration/depth_discrimination_MTurk/DepthDiscrim_HTML.html#1,1,1519,700,1536,864,7-20-2021,10-20-53,103,,,,,,,1782,506,997,1011,991,508,,2,3,depth_discrimination_stimuli/000493_2014-06-09_21-01-18_260595134347_rgbf000196-resize_3/000493_2014-06-09_21-01-18_260595134347_rgbf000196-resize-original.jpg,4078,1171419,1431415,47
669732,DepthScenes,duration_discrimination,discrim_jsons/shuffled_g0_dr.json,http://54.89.209.186/DepthDuration/depth_discrimination_MTurk/DepthDiscrim_HTML.html#1,1,1519,700,1536,864,7-20-2021,10-20-53,104,,,,,,,1782,506,997,1011,991,508,,3,2,depth_discrimination_stimuli/003490_2014-05-21_15-50-11_094959634447_rgbf000101-resize_3/003490_2014-05-21_15-50-11_094959634447_rgbf000101-resize-original.jpg,6104,1171419,1431415,47
669732,DepthScenes,duration_discrimination,discrim_jsons/shuffled_g0_dr.json,http://54.89.209.186/DepthDuration/depth_discrimination_MTurk/DepthDiscrim_HTML.html#1,1,1519,700,1536,864,7-20-2021,10-20-53,105,,,,,,,1782,506,997,1011,991,508,,3,3,depth_discrimination_stimuli/002788_2014-06-22_19-36-03_094959634447_rgbf000088-resize_2/002788_2014-06-22_19-36-03_094959634447_rgbf000088-resize-original.jpg,3789,1171419,1431415,47
669732,DepthScenes,duration_discrimination,discrim_jsons/shuffled_g0_dr.json,http://54.89.209.186/DepthDuration/depth_discrimination_MTurk/DepthDiscrim_HTML.html#1,1,1519,700,1536,864,7-20-2021,10-20-53,106,,,,,,,1782,506,997,1011,991,508,,3,3,depth_discrimination_stimuli/000709_2014-06-08_13-51-55_260595134347_rgbf000068-resize_3/000709_2014-06-08_13-51-55_260595134347_rgbf000068-resize-original.jpg,3077,1171419,1431415,47
669732,DepthScenes,duration_discrimination,discrim_jsons/shuffled_g0_dr.json,http://54.89.209.186/DepthDuration/depth_discrimination_MTurk/DepthDiscrim_HTML.html#1,1,1519,700,1536,864,7-20-2021,10-20-53,107,,,,,,,1782,506,997,1011,991,508,,4,3,depth_discrimination_stimuli/000483_2014-06-09_20-41-45_260595134347_rgbf000116-resize_4/000483_2014-06-09_20-41-45_260595134347_rgbf000116-resize-original.jpg,3624,1171419,1431415,47
669732,DepthScenes,duration_discrimination,discrim_jsons/shuffled_g0_dr.json,http://54.89.209.186/DepthDuration/depth_discrimination_MTurk/DepthDiscrim_HTML.html#1,1,1519,700,1536,864,7-20-2021,10-20-53,108,,,,,,,1782,506,997,1011,991,508,,3,2,depth_discrimination_stimuli/000758_2014-06-08_22-05-08_260595134347_rgbf000085-resize_0/000758_2014-06-08_22-05-08_260595134347_rgbf000085-resize-original.jpg,5027,1171419,1431415,47
669732,DepthScenes,duration_discrimination,discrim_jsons/shuffled_g0_dr.json,http://54.89.209.186/DepthDuration/depth_discrimination_MTurk/DepthDiscrim_HTML.html#1,1,1519,700,1536,864,7-20-2021,10-20-53,109,,,,,,,1782,506,997,1011,991,508,,4,2,depth_discrimination_stimuli/001724_2014-06-26_19-28-50_260595134347_rgbf000037-resize_7/001724_2014-06-26_19-28-50_260595134347_rgbf000037-resize-original.jpg,5285,1171419,1431415,47
669732,DepthScenes,duration_discrimination,discrim_jsons/shuffled_g0_dr.json,http://54.89.209.186/DepthDuration/depth_discrimination_MTurk/DepthDiscrim_HTML.html#1,1,1519,700,1536,864,7-20-2021,10-20-53,110,,,,,,,1782,506,997,1011,991,508,,2,3,depth_discrimination_stimuli/001029_2014-06-08_13-17-57_260595134347_rgbf000065-resize_1/001029_2014-06-08_13-17-57_260595134347_rgbf000065-resize-original.jpg,3766,1171419,1431415,47
669732,DepthScenes,duration_discrimination,discrim_jsons/shuffled_g0_dr.json,http://54.89.209.186/DepthDuration/depth_discrimination_MTurk/DepthDiscrim_HTML.html#1,1,1519,700,1536,864,7-20-2021,10-20-53,111,,,,,,,1782,506,997,1011,991,508,,3,4,depth_discrimination_stimuli/001175_2014-06-17_15-45-55_260595134347_rgbf000129-resize_4/001175_2014-06-17_15-45-55_260595134347_rgbf000129-resize-original.jpg,4750,1171419,1431415,47
669732,DepthScenes,duration_discrimination,discrim_jsons/shuffled_g0_dr.json,http://54.89.209.186/DepthDuration/depth_discrimination_MTurk/DepthDiscrim_HTML.html#1,1,1519,700,1536,864,7-20-2021,10-20-53,112,,,,,,,1782,506,997,1011,991,508,,2,4,depth_discrimination_stimuli/000927_2014-06-09_16-32-30_260595134347_rgbf000123-resize_3/000927_2014-06-09_16-32-30_260595134347_rgbf000123-resize-original.jpg,5212,1171419,1431415,47
669732,DepthScenes,duration_discrimination,discrim_jsons/shuffled_g0_dr.json,http://54.89.209.186/DepthDuration/depth_discrimination_MTurk/DepthDiscrim_HTML.html#1,1,1519,700,1536,864,7-20-2021,10-20-53,113,,,,,,,1782,506,997,1011,991,508,,3,3,depth_discrimination_stimuli/002467_2014-06-28_20-38-07_260595134347_rgbf000026-resize_2/002467_2014-06-28_20-38-07_260595134347_rgbf000026-resize-original.jpg,3489,1171419,1431415,47
669732,DepthScenes,duration_discrimination,discrim_jsons/shuffled_g0_dr.json,http://54.89.209.186/DepthDuration/depth_discrimination_MTurk/DepthDiscrim_HTML.html#1,1,1519,700,1536,864,7-20-2021,10-20-53,114,,,,,,,1782,506,997,1011,991,508,,4,3,depth_discrimination_stimuli/001264_2014-06-16_16-10-23_260595134347_rgbf000109-resize_1/001264_2014-06-16_16-10-23_260595134347_rgbf000109-resize-original.jpg,4557,1171419,1431415,47
669732,DepthScenes,duration_discrimination,discrim_jsons/shuffled_g0_dr.json,http://54.89.209.186/DepthDuration/depth_discrimination_MTurk/DepthDiscrim_HTML.html#1,1,1519,700,1536,864,7-20-2021,10-20-53,115,,,,,,,1782,506,997,1011,991,508,,2,3,depth_discrimination_stimuli/001164_2014-06-17_15-35-46_260595134347_rgbf000085-resize_3/001164_2014-06-17_15-35-46_260595134347_rgbf000085-resize-original.jpg,5040,1171419,1431415,47
669732,DepthScenes,duration_discrimination,discrim_jsons/shuffled_g0_dr.json,http://54.89.209.186/DepthDuration/depth_discrimination_MTurk/DepthDiscrim_HTML.html#1,1,1519,700,1536,864,7-20-2021,10-20-53,116,,,,,,,1782,506,997,1011,991,508,,3,3,depth_discrimination_stimuli/000788_2014-06-08_22-34-36_260595134347_rgbf000131-resize_1/000788_2014-06-08_22-34-36_260595134347_rgbf000131-resize-original.jpg,4433,1171419,1431415,47
669732,DepthScenes,duration_discrimination,discrim_jsons/shuffled_g0_dr.json,http://54.89.209.186/DepthDuration/depth_discrimination_MTurk/DepthDiscrim_HTML.html#1,1,1519,700,1536,864,7-20-2021,10-20-53,117,,,,,,,1782,506,997,1011,991,508,,2,3,depth_discrimination_stimuli/001828_2014-06-26_21-40-03_260595134347_rgbf000024-resize_0/001828_2014-06-26_21-40-03_260595134347_rgbf000024-resize-original.jpg,3888,1171419,1431415,47
669732,DepthScenes,duration_discrimination,discrim_jsons/shuffled_g0_dr.json,http://54.89.209.186/DepthDuration/depth_discrimination_MTurk/DepthDiscrim_HTML.html#1,1,1519,700,1536,864,7-20-2021,10-20-53,118,,,,,,,1782,506,997,1011,991,508,,4,3,depth_discrimination_stimuli/000103_2014-05-14_22-01-17_260595134347_rgbf000152-resize_5/000103_2014-05-14_22-01-17_260595134347_rgbf000152-resize-original.jpg,4436,1171419,1431415,47
669732,DepthScenes,duration_discrimination,discrim_jsons/shuffled_g0_dr.json,http://54.89.209.186/DepthDuration/depth_discrimination_MTurk/DepthDiscrim_HTML.html#1,1,1519,700,1536,864,7-20-2021,10-20-53,119,,,,,,,1782,506,997,1011,991,508,,2,3,depth_discrimination_stimuli/001532_2014-06-20_16-50-41_260595134347_rgbf000081-resize_4/001532_2014-06-20_16-50-41_260595134347_rgbf000081-resize-original.jpg,4587,1171419,1431415,47
669732,DepthScenes,duration_discrimination,discrim_jsons/shuffled_g0_dr.json,http://54.89.209.186/DepthDuration/depth_discrimination_MTurk/DepthDiscrim_HTML.html#1,1,1519,700,1536,864,7-20-2021,10-20-53,120,,,,,,,1782,506,997,1011,991,508,,3,4,depth_discrimination_stimuli/002570_2014-06-24_13-59-54_094959634447_rgbf000059-resize_0/002570_2014-06-24_13-59-54_094959634447_rgbf000059-resize-original.jpg,4047,1171419,1431415,47
669732,DepthScenes,duration_discrimination,discrim_jsons/shuffled_g0_dr.json,http://54.89.209.186/DepthDuration/depth_discrimination_MTurk/DepthDiscrim_HTML.html#1,1,1519,700,1536,864,7-20-2021,10-20-53,121,,,,,,,1782,506,997,1011,991,508,,3,4,depth_discrimination_stimuli/001584_2014-06-20_11-07-43_260595134347_rgbf000002-resize_1/001584_2014-06-20_11-07-43_260595134347_rgbf000002-resize-original.jpg,8126,1171419,1431415,47
669732,DepthScenes,duration_discrimination,discrim_jsons/shuffled_g0_dr.json,http://54.89.209.186/DepthDuration/depth_discrimination_MTurk/DepthDiscrim_HTML.html#1,1,1519,700,1536,864,7-20-2021,10-20-53,122,,,,,,,1782,506,997,1011,991,508,,3,3,depth_discrimination_stimuli/001197_2014-06-17_16-01-50_260595134347_rgbf000103-resize_4/001197_2014-06-17_16-01-50_260595134347_rgbf000103-resize-original.jpg,3535,1171419,1431415,47
669732,DepthScenes,duration_discrimination,discrim_jsons/shuffled_g0_dr.json,http://54.89.209.186/DepthDuration/depth_discrimination_MTurk/DepthDiscrim_HTML.html#1,1,1519,700,1536,864,7-20-2021,10-20-53,123,,,,,,,1782,506,997,1011,991,508,,2,3,depth_discrimination_stimuli/001016_2014-06-09_16-16-10_260595134347_rgbf000112-resize_5/001016_2014-06-09_16-16-10_260595134347_rgbf000112-resize-original.jpg,4016,1171419,1431415,47
669732,DepthScenes,duration_discrimination,discrim_jsons/shuffled_g0_dr.json,http://54.89.209.186/DepthDuration/depth_discrimination_MTurk/DepthDiscrim_HTML.html#1,1,1519,700,1536,864,7-20-2021,10-20-53,124,,,,,,,1782,506,997,1011,991,508,,3,3,depth_discrimination_stimuli/002989_2014-06-15_12-25-03_094959634447_rgbf000150-resize_3/002989_2014-06-15_12-25-03_094959634447_rgbf000150-resize-original.jpg,5876,1171419,1431415,47
669732,DepthScenes,duration_discrimination,discrim_jsons/shuffled_g0_dr.json,http://54.89.209.186/DepthDuration/depth_discrimination_MTurk/DepthDiscrim_HTML.html#1,1,1519,700,1536,864,7-20-2021,10-20-53,125,,,,,,,1782,506,997,1011,991,508,,3,2,depth_discrimination_stimuli/000109_2014-05-14_23-41-52_260595134347_rgbf000035-resize_9/000109_2014-05-14_23-41-52_260595134347_rgbf000035-resize-original.jpg,4136,1171419,1431415,47
669732,DepthScenes,duration_discrimination,discrim_jsons/shuffled_g0_dr.json,http://54.89.209.186/DepthDuration/depth_discrimination_MTurk/DepthDiscrim_HTML.html#1,1,1519,700,1536,864,7-20-2021,10-20-53,126,,,,,,,1782,506,997,1011,991,508,,4,1,depth_discrimination_stimuli/002199_2014-06-28_18-33-56_260595134347_rgbf000074-resize_0/002199_2014-06-28_18-33-56_260595134347_rgbf000074-resize-original.jpg,8296,1171419,1431415,47
669732,DepthScenes,duration_discrimination,discrim_jsons/shuffled_g0_dr.json,http://54.89.209.186/DepthDuration/depth_discrimination_MTurk/DepthDiscrim_HTML.html#1,1,1519,700,1536,864,7-20-2021,10-20-53,127,,,,,,,1782,506,997,1011,991,508,,3,2,depth_discrimination_stimuli/001148_2014-06-17_15-26-42_260595134347_rgbf000129-resize_0/001148_2014-06-17_15-26-42_260595134347_rgbf000129-resize-original.jpg,5798,1171419,1431415,47
669732,DepthScenes,duration_discrimination,discrim_jsons/shuffled_g0_dr.json,http://54.89.209.186/DepthDuration/depth_discrimination_MTurk/DepthDiscrim_HTML.html#1,1,1519,700,1536,864,7-20-2021,10-20-53,128,,,,,,,1782,506,997,1011,991,508,,3,5,depth_discrimination_stimuli/003083_2014-06-15_15-21-03_094959634447_rgbf000063-resize_1/003083_2014-06-15_15-21-03_094959634447_rgbf000063-resize-original.jpg,4001,1171419,1431415,47
669732,DepthScenes,duration_discrimination,discrim_jsons/shuffled_g0_dr.json,http://54.89.209.186/DepthDuration/depth_discrimination_MTurk/DepthDiscrim_HTML.html#1,1,1519,700,1536,864,7-20-2021,10-20-53,129,,,,,,,1782,506,997,1011,991,508,,5,3,depth_discrimination_stimuli/002468_2014-06-28_20-38-39_260595134347_rgbf000045-resize_1/002468_2014-06-28_20-38-39_260595134347_rgbf000045-resize-original.jpg,5272,1171419,1431415,47
669732,DepthScenes,duration_discrimination,discrim_jsons/shuffled_g0_dr.json,http://54.89.209.186/DepthDuration/depth_discrimination_MTurk/DepthDiscrim_HTML.html#1,1,1519,700,1536,864,7-20-2021,10-20-53,130,,,,,,,1782,506,997,1011,991,508,,3,2,depth_discrimination_stimuli/001450_2014-06-19_17-02-03_260595134347_rgbf000203-resize_4/001450_2014-06-19_17-02-03_260595134347_rgbf000203-resize-original.jpg,5782,1171419,1431415,47
669732,DepthScenes,duration_discrimination,discrim_jsons/shuffled_g0_dr.json,http://54.89.209.186/DepthDuration/depth_discrimination_MTurk/DepthDiscrim_HTML.html#1,1,1519,700,1536,864,7-20-2021,10-20-53,131,,,,,,,1782,506,997,1011,991,508,,3,3,depth_discrimination_stimuli/000542_2014-06-08_18-27-08_260595134347_rgbf000118-resize_1/000542_2014-06-08_18-27-08_260595134347_rgbf000118-resize-original.jpg,4320,1171419,1431415,47
669732,DepthScenes,duration_discrimination,discrim_jsons/shuffled_g0_dr.json,http://54.89.209.186/DepthDuration/depth_discrimination_MTurk/DepthDiscrim_HTML.html#1,1,1519,700,1536,864,7-20-2021,10-20-53,132,,,,,,,1782,506,997,1011,991,508,,2,2,depth_discrimination_stimuli/001059_2014-06-08_21-53-27_260595134347_rgbf000061-resize_4/001059_2014-06-08_21-53-27_260595134347_rgbf000061-resize-original.jpg,3688,1171419,1431415,47
669732,DepthScenes,duration_discrimination,discrim_jsons/shuffled_g0_dr.json,http://54.89.209.186/DepthDuration/depth_discrimination_MTurk/DepthDiscrim_HTML.html#1,1,1519,700,1536,864,7-20-2021,10-20-53,133,,,,,,,1782,506,997,1011,991,508,,3,3,depth_discrimination_stimuli/000191_2014-05-12_17-07-38_260595134347_rgbf000199-resize_0/000191_2014-05-12_17-07-38_260595134347_rgbf000199-resize-original.jpg,4687,1171419,1431415,47
669732,DepthScenes,duration_discrimination,discrim_jsons/shuffled_g0_dr.json,http://54.89.209.186/DepthDuration/depth_discrimination_MTurk/DepthDiscrim_HTML.html#1,1,1519,700,1536,864,7-20-2021,10-20-53,134,,,,,,,1782,506,997,1011,991,508,,3,4,depth_discrimination_stimuli/001188_2014-06-17_15-54-10_260595134347_rgbf000090-resize_2/001188_2014-06-17_15-54-10_260595134347_rgbf000090-resize-original.jpg,7219,1171419,1431415,47
669732,DepthScenes,duration_discrimination,discrim_jsons/shuffled_g0_dr.json,http://54.89.209.186/DepthDuration/depth_discrimination_MTurk/DepthDiscrim_HTML.html#1,1,1519,700,1536,864,7-20-2021,10-20-53,135,,,,,,,1782,506,997,1011,991,508,,1,4,depth_discrimination_stimuli/000457_2014-06-08_16-52-43_260595134347_rgbf000199-resize_1/000457_2014-06-08_16-52-43_260595134347_rgbf000199-resize-original.jpg,5278,1171419,1431415,47
669732,DepthScenes,duration_discrimination,discrim_jsons/shuffled_g0_dr.json,http://54.89.209.186/DepthDuration/depth_discrimination_MTurk/DepthDiscrim_HTML.html#1,1,1519,700,1536,864,7-20-2021,10-20-53,136,,,,,,,1782,506,997,1011,991,508,,2,4,depth_discrimination_stimuli/001617_2014-06-20_11-35-32_260595134347_rgbf000066-resize_1/001617_2014-06-20_11-35-32_260595134347_rgbf000066-resize-original.jpg,4242,1171419,1431415,47
669732,DepthScenes,duration_discrimination,discrim_jsons/shuffled_g0_dr.json,http://54.89.209.186/DepthDuration/depth_discrimination_MTurk/DepthDiscrim_HTML.html#1,1,1519,700,1536,864,7-20-2021,10-20-53,137,,,,,,,1782,506,997,1011,991,508,,2,2,depth_discrimination_stimuli/002579_2014-06-24_14-08-03_094959634447_rgbf000061-resize_2/002579_2014-06-24_14-08-03_094959634447_rgbf000061-resize-original.jpg,3946,1171419,1431415,47
669732,DepthScenes,duration_discrimination,discrim_jsons/shuffled_g0_dr.json,http://54.89.209.186/DepthDuration/depth_discrimination_MTurk/DepthDiscrim_HTML.html#1,1,1519,700,1536,864,7-20-2021,10-20-53,138,,,,,,,1782,506,997,1011,991,508,,1,3,depth_discrimination_stimuli/001516_2014-06-20_16-25-09_260595134347_rgbf000076-resize_2/001516_2014-06-20_16-25-09_260595134347_rgbf000076-resize-original.jpg,3973,1171419,1431415,47
669732,DepthScenes,duration_discrimination,discrim_jsons/shuffled_g0_dr.json,http://54.89.209.186/DepthDuration/depth_discrimination_MTurk/DepthDiscrim_HTML.html#1,1,1519,700,1536,864,7-20-2021,10-20-53,139,,,,,,,1782,506,997,1011,991,508,,3,2,scene_property_catch_stimuli/sun_bpzzatthlcapxzol.jpg,4934,1171419,1431415,47
669732,DepthScenes,duration_discrimination,discrim_jsons/shuffled_g0_dr.json,http://54.89.209.186/DepthDuration/depth_discrimination_MTurk/DepthDiscrim_HTML.html#1,1,1519,700,1536,864,7-20-2021,10-20-53,140,,,,,,,1782,506,997,1011,991,508,,3,3,depth_discrimination_stimuli/002425_2014-06-28_20-27-29_260595134347_rgbf000031-resize_8/002425_2014-06-28_20-27-29_260595134347_rgbf000031-resize-original.jpg,3378,1171419,1431415,47
669732,DepthScenes,duration_discrimination,discrim_jsons/shuffled_g0_dr.json,http://54.89.209.186/DepthDuration/depth_discrimination_MTurk/DepthDiscrim_HTML.html#1,1,1519,700,1536,864,7-20-2021,10-20-53,141,,,,,,,1782,506,997,1011,991,508,,3,2,depth_discrimination_stimuli/000740_2014-06-08_18-46-23_260595134347_rgbf000049-resize_6/000740_2014-06-08_18-46-23_260595134347_rgbf000049-resize-original.jpg,4744,1171419,1431415,47
669732,DepthScenes,duration_discrimination,discrim_jsons/shuffled_g0_dr.json,http://54.89.209.186/DepthDuration/depth_discrimination_MTurk/DepthDiscrim_HTML.html#1,1,1519,700,1536,864,7-20-2021,10-20-53,142,,,,,,,1782,506,997,1011,991,508,,3,4,depth_discrimination_stimuli/002305_2014-06-28_19-56-50_260595134347_rgbf000102-resize_7/002305_2014-06-28_19-56-50_260595134347_rgbf000102-resize-original.jpg,5003,1171419,1431415,47
669732,DepthScenes,duration_discrimination,discrim_jsons/shuffled_g0_dr.json,http://54.89.209.186/DepthDuration/depth_discrimination_MTurk/DepthDiscrim_HTML.html#1,1,1519,700,1536,864,7-20-2021,10-20-53,143,,,,,,,1782,506,997,1011,991,508,,3,4,depth_discrimination_stimuli/000414_2014-06-04_19-49-13_260595134347_rgbf000044-resize_0/000414_2014-06-04_19-49-13_260595134347_rgbf000044-resize-original.jpg,4345,1171419,1431415,47
669732,DepthScenes,duration_discrimination,discrim_jsons/shuffled_g0_dr.json,http://54.89.209.186/DepthDuration/depth_discrimination_MTurk/DepthDiscrim_HTML.html#1,1,1519,700,1536,864,7-20-2021,10-20-53,144,,,,,,,1782,506,997,1011,991,508,,2,3,depth_discrimination_stimuli/001555_2014-06-20_17-12-10_260595134347_rgbf000065-resize_4/001555_2014-06-20_17-12-10_260595134347_rgbf000065-resize-original.jpg,5859,1171419,1431415,47
669732,DepthScenes,duration_discrimination,discrim_jsons/shuffled_g0_dr.json,http://54.89.209.186/DepthDuration/depth_discrimination_MTurk/DepthDiscrim_HTML.html#1,1,1519,700,1536,864,7-20-2021,10-20-53,145,,,,,,,1782,506,997,1011,991,508,,3,2,depth_discrimination_stimuli/000677_2014-06-08_23-10-32_260595134347_rgbf000158-resize_6/000677_2014-06-08_23-10-32_260595134347_rgbf000158-resize-original.jpg,5543,1171419,1431415,47
669732,DepthScenes,duration_discrimination,discrim_jsons/shuffled_g0_dr.json,http://54.89.209.186/DepthDuration/depth_discrimination_MTurk/DepthDiscrim_HTML.html#1,1,1519,700,1536,864,7-20-2021,10-20-53,146,,,,,,,1782,506,997,1011,991,508,,3,5,depth_discrimination_stimuli/002805_2014-06-22_19-54-03_094959634447_rgbf000079-resize_1/002805_2014-06-22_19-54-03_094959634447_rgbf000079-resize-original.jpg,5099,1171419,1431415,47
669732,DepthScenes,duration_discrimination,discrim_jsons/shuffled_g0_dr.json,http://54.89.209.186/DepthDuration/depth_discrimination_MTurk/DepthDiscrim_HTML.html#1,1,1519,700,1536,864,7-20-2021,10-20-53,147,,,,,,,1782,506,997,1011,991,508,,3,2,depth_discrimination_stimuli/002987_2014-06-08_18-48-20_094959634447_rgbf000022-resize_0/002987_2014-06-08_18-48-20_094959634447_rgbf000022-resize-original.jpg,4964,1171419,1431415,47
669732,DepthScenes,duration_discrimination,discrim_jsons/shuffled_g0_dr.json,http://54.89.209.186/DepthDuration/depth_discrimination_MTurk/DepthDiscrim_HTML.html#1,1,1519,700,1536,864,7-20-2021,10-20-53,148,,,,,,,1782,506,997,1011,991,508,,1,3,depth_discrimination_stimuli/001618_2014-06-20_11-37-31_260595134347_rgbf000027-resize_3/001618_2014-06-20_11-37-31_260595134347_rgbf000027-resize-original.jpg,3728,1171419,1431415,47
669732,DepthScenes,duration_discrimination,discrim_jsons/shuffled_g0_dr.json,http://54.89.209.186/DepthDuration/depth_discrimination_MTurk/DepthDiscrim_HTML.html#1,1,1519,700,1536,864,7-20-2021,10-20-53,149,,,,,,,1782,506,997,1011,991,508,,3,3,depth_discrimination_stimuli/002131_2014-06-25_21-12-01_260595134347_rgbf000083-resize_0/002131_2014-06-25_21-12-01_260595134347_rgbf000083-resize-original.jpg,5552,1171419,1431415,47
669732,DepthScenes,duration_discrimination,discrim_jsons/shuffled_g0_dr.json,http://54.89.209.186/DepthDuration/depth_discrimination_MTurk/DepthDiscrim_HTML.html#1,1,1519,700,1536,864,7-20-2021,10-20-53,150,,,,,,,1782,506,997,1011,991,508,,3,1,depth_discrimination_stimuli/002272_2014-06-28_18-53-56_260595134347_rgbf000067-resize_2/002272_2014-06-28_18-53-56_260595134347_rgbf000067-resize-original.jpg,6080,1171419,1431415,47
669732,DepthScenes,duration_discrimination,discrim_jsons/shuffled_g0_dr.json,http://54.89.209.186/DepthDuration/depth_discrimination_MTurk/DepthDiscrim_HTML.html#1,1,1519,700,1536,864,7-20-2021,10-20-53,151,,,,,,,1782,506,997,1011,991,508,,3,2,depth_discrimination_stimuli/001066_2014-06-08_22-03-20_260595134347_rgbf000066-resize_4/001066_2014-06-08_22-03-20_260595134347_rgbf000066-resize-original.jpg,5324,1171419,1431415,47
669732,DepthScenes,duration_discrimination,discrim_jsons/shuffled_g0_dr.json,http://54.89.209.186/DepthDuration/depth_discrimination_MTurk/DepthDiscrim_HTML.html#1,1,1519,700,1536,864,7-20-2021,10-20-53,152,,,,,,,1782,506,997,1011,991,508,,3,4,depth_discrimination_stimuli/001235_2014-06-17_16-37-36_260595134347_rgbf000084-resize_4/001235_2014-06-17_16-37-36_260595134347_rgbf000084-resize-original.jpg,6092,1171419,1431415,47
669732,DepthScenes,duration_discrimination,discrim_jsons/shuffled_g0_dr.json,http://54.89.209.186/DepthDuration/depth_discrimination_MTurk/DepthDiscrim_HTML.html#1,1,1519,700,1536,864,7-20-2021,10-20-53,153,,,,,,,1782,506,997,1011,991,508,,3,3,depth_discrimination_stimuli/002663_2014-06-13_15-50-26_094959634447_rgbf000075-resize_1/002663_2014-06-13_15-50-26_094959634447_rgbf000075-resize-original.jpg,3316,1171419,1431415,47
669732,DepthScenes,duration_discrimination,discrim_jsons/shuffled_g0_dr.json,http://54.89.209.186/DepthDuration/depth_discrimination_MTurk/DepthDiscrim_HTML.html#1,1,1519,700,1536,864,7-20-2021,10-20-53,154,,,,,,,1782,506,997,1011,991,508,,3,4,depth_discrimination_stimuli/000830_2014-06-04_19-49-31_260595134347_rgbf000096-resize_2/000830_2014-06-04_19-49-31_260595134347_rgbf000096-resize-original.jpg,4693,1171419,1431415,47
669732,DepthScenes,duration_discrimination,discrim_jsons/shuffled_g0_dr.json,http://54.89.209.186/DepthDuration/depth_discrimination_MTurk/DepthDiscrim_HTML.html#1,1,1519,700,1536,864,7-20-2021,10-20-53,155,,,,,,,1782,506,997,1011,991,508,,2,3,depth_discrimination_stimuli/002750_2014-06-22_19-08-03_094959634447_rgbf000094-resize_4/002750_2014-06-22_19-08-03_094959634447_rgbf000094-resize-original.jpg,3633,1171419,1431415,47
669732,DepthScenes,duration_discrimination,discrim_jsons/shuffled_g0_dr.json,http://54.89.209.186/DepthDuration/depth_discrimination_MTurk/DepthDiscrim_HTML.html#1,1,1519,700,1536,864,7-20-2021,10-20-53,156,,,,,,,1782,506,997,1011,991,508,,3,2,depth_discrimination_stimuli/002790_2014-06-22_19-36-35_094959634447_rgbf000074-resize_4/002790_2014-06-22_19-36-35_094959634447_rgbf000074-resize-original.jpg,3777,1171419,1431415,47
669732,DepthScenes,duration_discrimination,discrim_jsons/shuffled_g0_dr.json,http://54.89.209.186/DepthDuration/depth_discrimination_MTurk/DepthDiscrim_HTML.html#1,1,1519,700,1536,864,7-20-2021,10-20-53,157,,,,,,,1782,506,997,1011,991,508,,1,5,depth_discrimination_stimuli/002784_2014-06-22_19-26-30_094959634447_rgbf000083-resize_3/002784_2014-06-22_19-26-30_094959634447_rgbf000083-resize-original.jpg,5053,1171419,1431415,47
669732,DepthScenes,duration_discrimination,discrim_jsons/shuffled_g0_dr.json,http://54.89.209.186/DepthDuration/depth_discrimination_MTurk/DepthDiscrim_HTML.html#1,1,1519,700,1536,864,7-20-2021,10-20-53,158,,,,,,,1782,506,997,1011,991,508,,2,4,depth_discrimination_stimuli/000753_2014-06-08_21-57-44_260595134347_rgbf000123-resize_3/000753_2014-06-08_21-57-44_260595134347_rgbf000123-resize-original.jpg,5677,1171419,1431415,47
669732,DepthScenes,duration_discrimination,discrim_jsons/shuffled_g0_dr.json,http://54.89.209.186/DepthDuration/depth_discrimination_MTurk/DepthDiscrim_HTML.html#1,1,1519,700,1536,864,7-20-2021,10-20-53,159,,,,,,,1782,506,997,1011,991,508,,3,2,depth_discrimination_stimuli/003048_2014-06-15_13-49-43_094959634447_rgbf000150-resize_1/003048_2014-06-15_13-49-43_094959634447_rgbf000150-resize-original.jpg,3600,1171419,1431415,47
669732,DepthScenes,duration_discrimination,discrim_jsons/shuffled_g0_dr.json,http://54.89.209.186/DepthDuration/depth_discrimination_MTurk/DepthDiscrim_HTML.html#1,1,1519,700,1536,864,7-20-2021,10-20-53,160,,,,,,,1782,506,997,1011,991,508,,1,4,depth_discrimination_stimuli/001244_2014-06-17_16-47-45_260595134347_rgbf000030-resize_4/001244_2014-06-17_16-47-45_260595134347_rgbf000030-resize-original.jpg,5227,1171419,1431415,47
669732,DepthScenes,duration_discrimination,discrim_jsons/shuffled_g0_dr.json,http://54.89.209.186/DepthDuration/depth_discrimination_MTurk/DepthDiscrim_HTML.html#1,1,1519,700,1536,864,7-20-2021,10-20-53,161,,,,,,,1782,506,997,1011,991,508,,3,3,depth_discrimination_stimuli/000917_2014-06-09_22-45-29_260595134347_rgbf000149-resize_3/000917_2014-06-09_22-45-29_260595134347_rgbf000149-resize-original.jpg,3813,1171419,1431415,47
669732,DepthScenes,duration_discrimination,discrim_jsons/shuffled_g0_dr.json,http://54.89.209.186/DepthDuration/depth_discrimination_MTurk/DepthDiscrim_HTML.html#1,1,1519,700,1536,864,7-20-2021,10-20-53,162,,,,,,,1782,506,997,1011,991,508,,4,3,depth_discrimination_stimuli/001133_2014-06-17_14-49-16_260595134347_rgbf000100-resize_0/001133_2014-06-17_14-49-16_260595134347_rgbf000100-resize-original.jpg,5648,1171419,1431415,47
669732,DepthScenes,duration_discrimination,discrim_jsons/shuffled_g0_dr.json,http://54.89.209.186/DepthDuration/depth_discrimination_MTurk/DepthDiscrim_HTML.html#1,1,1519,700,1536,864,7-20-2021,10-20-53,163,,,,,,,1782,506,997,1011,991,508,,3,2,depth_discrimination_stimuli/001032_2014-06-08_13-23-17_260595134347_rgbf000021-resize_3/001032_2014-06-08_13-23-17_260595134347_rgbf000021-resize-original.jpg,5588,1171419,1431415,47
669732,DepthScenes,duration_discrimination,discrim_jsons/shuffled_g0_dr.json,http://54.89.209.186/DepthDuration/depth_discrimination_MTurk/DepthDiscrim_HTML.html#1,1,1519,700,1536,864,7-20-2021,10-20-53,164,,,,,,,1782,506,997,1011,991,508,,3,3,depth_discrimination_stimuli/000506_2014-06-08_23-21-00_260595134347_rgbf000070-resize_7/000506_2014-06-08_23-21-00_260595134347_rgbf000070-resize-original.jpg,4419,1171419,1431415,47
669732,DepthScenes,duration_discrimination,discrim_jsons/shuffled_g0_dr.json,http://54.89.209.186/DepthDuration/depth_discrimination_MTurk/DepthDiscrim_HTML.html#1,1,1519,700,1536,864,7-20-2021,10-20-53,165,,,,,,,1782,506,997,1011,991,508,,3,4,depth_discrimination_stimuli/003079_2014-06-15_15-18-20_094959634447_rgbf000152-resize_8/003079_2014-06-15_15-18-20_094959634447_rgbf000152-resize-original.jpg,3288,1171419,1431415,47
669732,DepthScenes,duration_discrimination,discrim_jsons/shuffled_g0_dr.json,http://54.89.209.186/DepthDuration/depth_discrimination_MTurk/DepthDiscrim_HTML.html#1,1,1519,700,1536,864,7-20-2021,10-20-53,166,,,,,,,1782,506,997,1011,991,508,,3,3,depth_discrimination_stimuli/003292_2014-05-14_21-53-49_094959634447_rgbf000100-resize_2/003292_2014-05-14_21-53-49_094959634447_rgbf000100-resize-original.jpg,3344,1171419,1431415,47
669732,DepthScenes,duration_discrimination,discrim_jsons/shuffled_g0_dr.json,http://54.89.209.186/DepthDuration/depth_discrimination_MTurk/DepthDiscrim_HTML.html#1,1,1519,700,1536,864,7-20-2021,10-20-53,167,,,,,,,1782,506,997,1011,991,508,,3,3,depth_discrimination_stimuli/002444_2014-06-28_20-32-08_260595134347_rgbf000027-resize_0/002444_2014-06-28_20-32-08_260595134347_rgbf000027-resize-original.jpg,2180,1171419,1431415,47
669732,DepthScenes,duration_discrimination,discrim_jsons/shuffled_g0_dr.json,http://54.89.209.186/DepthDuration/depth_discrimination_MTurk/DepthDiscrim_HTML.html#1,1,1519,700,1536,864,7-20-2021,10-20-53,168,,,,,,,1782,506,997,1011,991,508,,3,3,depth_discrimination_stimuli/000470_2014-06-09_19-42-40_260595134347_rgbf000094-resize_1/000470_2014-06-09_19-42-40_260595134347_rgbf000094-resize-original.jpg,6085,1171419,1431415,47
669732,DepthScenes,duration_discrimination,discrim_jsons/shuffled_g0_dr.json,http://54.89.209.186/DepthDuration/depth_discrimination_MTurk/DepthDiscrim_HTML.html#1,1,1519,700,1536,864,7-20-2021,10-20-53,169,,,,,,,1782,506,997,1011,991,508,,2,4,depth_discrimination_stimuli/000682_2014-06-08_23-14-58_260595134347_rgbf000041-resize_5/000682_2014-06-08_23-14-58_260595134347_rgbf000041-resize-original.jpg,5781,1171419,1431415,47
669732,DepthScenes,duration_discrimination,discrim_jsons/shuffled_g0_dr.json,http://54.89.209.186/DepthDuration/depth_discrimination_MTurk/DepthDiscrim_HTML.html#1,1,1519,700,1536,864,7-20-2021,10-20-53,170,,,,,,,1782,506,997,1011,991,508,,3,3,depth_discrimination_stimuli/000692_2014-06-08_13-09-42_260595134347_rgbf000199-resize_2/000692_2014-06-08_13-09-42_260595134347_rgbf000199-resize-original.jpg,3429,1171419,1431415,47
669732,DepthScenes,duration_discrimination,discrim_jsons/shuffled_g0_dr.json,http://54.89.209.186/DepthDuration/depth_discrimination_MTurk/DepthDiscrim_HTML.html#1,1,1519,700,1536,864,7-20-2021,10-20-53,171,,,,,,,1782,506,997,1011,991,508,,2,3,depth_discrimination_stimuli/001150_2014-06-17_15-27-34_260595134347_rgbf000108-resize_2/001150_2014-06-17_15-27-34_260595134347_rgbf000108-resize-original.jpg,4464,1171419,1431415,47
669732,DepthScenes,duration_discrimination,discrim_jsons/shuffled_g0_dr.json,http://54.89.209.186/DepthDuration/depth_discrimination_MTurk/DepthDiscrim_HTML.html#1,1,1519,700,1536,864,7-20-2021,10-20-53,172,,,,,,,1782,506,997,1011,991,508,,3,2,depth_discrimination_stimuli/002039_2014-06-24_20-22-38_260595134347_rgbf000084-resize_1/002039_2014-06-24_20-22-38_260595134347_rgbf000084-resize-original.jpg,5916,1171419,1431415,47
669732,DepthScenes,duration_discrimination,discrim_jsons/shuffled_g0_dr.json,http://54.89.209.186/DepthDuration/depth_discrimination_MTurk/DepthDiscrim_HTML.html#1,1,1519,700,1536,864,7-20-2021,10-20-53,173,,,,,,,1782,506,997,1011,991,508,,3,2,depth_discrimination_stimuli/000739_2014-06-08_18-45-58_260595134347_rgbf000068-resize_1/000739_2014-06-08_18-45-58_260595134347_rgbf000068-resize-original.jpg,3522,1171419,1431415,47
669732,DepthScenes,duration_discrimination,discrim_jsons/shuffled_g0_dr.json,http://54.89.209.186/DepthDuration/depth_discrimination_MTurk/DepthDiscrim_HTML.html#1,1,1519,700,1536,864,7-20-2021,10-20-53,174,,,,,,,1782,506,997,1011,991,508,,3,3,depth_discrimination_stimuli/001011_2014-06-08_23-18-54_260595134347_rgbf000044-resize_4/001011_2014-06-08_23-18-54_260595134347_rgbf000044-resize-original.jpg,4873,1171419,1431415,47
669732,DepthScenes,duration_discrimination,discrim_jsons/shuffled_g0_dr.json,http://54.89.209.186/DepthDuration/depth_discrimination_MTurk/DepthDiscrim_HTML.html#1,1,1519,700,1536,864,7-20-2021,10-20-53,175,,,,,,,1782,506,997,1011,991,508,,3,3,depth_discrimination_stimuli/001570_2014-06-20_17-21-09_260595134347_rgbf000135-resize_4/001570_2014-06-20_17-21-09_260595134347_rgbf000135-resize-original.jpg,3673,1171419,1431415,47
669732,DepthScenes,duration_discrimination,discrim_jsons/shuffled_g0_dr.json,http://54.89.209.186/DepthDuration/depth_discrimination_MTurk/DepthDiscrim_HTML.html#1,1,1519,700,1536,864,7-20-2021,10-20-53,176,,,,,,,1782,506,997,1011,991,508,,3,2,depth_discrimination_stimuli/002988_2014-06-15_12-24-20_094959634447_rgbf000150-resize_1/002988_2014-06-15_12-24-20_094959634447_rgbf000150-resize-original.jpg,4542,1171419,1431415,47
669732,DepthScenes,duration_discrimination,discrim_jsons/shuffled_g0_dr.json,http://54.89.209.186/DepthDuration/depth_discrimination_MTurk/DepthDiscrim_HTML.html#1,1,1519,700,1536,864,7-20-2021,10-20-53,177,,,,,,,1782,506,997,1011,991,508,,3,2,depth_discrimination_stimuli/001055_2014-06-08_18-45-35_260595134347_rgbf000111-resize_4/001055_2014-06-08_18-45-35_260595134347_rgbf000111-resize-original.jpg,3277,1171419,1431415,47
669732,DepthScenes,duration_discrimination,discrim_jsons/shuffled_g0_dr.json,http://54.89.209.186/DepthDuration/depth_discrimination_MTurk/DepthDiscrim_HTML.html#1,1,1519,700,1536,864,7-20-2021,10-20-53,178,,,,,,,1782,506,997,1011,991,508,,3,3,depth_discrimination_stimuli/002700_2014-06-22_11-27-02_094959634447_rgbf000124-resize_3/002700_2014-06-22_11-27-02_094959634447_rgbf000124-resize-original.jpg,2825,1171419,1431415,47
669732,DepthScenes,duration_discrimination,discrim_jsons/shuffled_g0_dr.json,http://54.89.209.186/DepthDuration/depth_discrimination_MTurk/DepthDiscrim_HTML.html#1,1,1519,700,1536,864,7-20-2021,10-20-53,179,,,,,,,1782,506,997,1011,991,508,,3,2,depth_discrimination_stimuli/002340_2014-06-28_20-05-46_260595134347_rgbf000113-resize_0/002340_2014-06-28_20-05-46_260595134347_rgbf000113-resize-original.jpg,5641,1171419,1431415,47
669732,DepthScenes,duration_discrimination,discrim_jsons/shuffled_g0_dr.json,http://54.89.209.186/DepthDuration/depth_discrimination_MTurk/DepthDiscrim_HTML.html#1,1,1519,700,1536,864,7-20-2021,10-20-53,180,,,,,,,1782,506,997,1011,991,508,,3,2,depth_discrimination_stimuli/000436_2014-06-09_22-25-11_260595134347_rgbf000137-resize_1/000436_2014-06-09_22-25-11_260595134347_rgbf000137-resize-original.jpg,3852,1171419,1431415,47
669732,DepthScenes,duration_discrimination,discrim_jsons/shuffled_g0_dr.json,http://54.89.209.186/DepthDuration/depth_discrimination_MTurk/DepthDiscrim_HTML.html#1,1,1519,700,1536,864,7-20-2021,10-20-53,181,,,,,,,1782,506,997,1011,991,508,,3,2,depth_discrimination_stimuli/000735_2014-06-08_18-23-50_260595134347_rgbf000163-resize_2/000735_2014-06-08_18-23-50_260595134347_rgbf000163-resize-original.jpg,5033,1171419,1431415,47
669732,DepthScenes,duration_discrimination,discrim_jsons/shuffled_g0_dr.json,http://54.89.209.186/DepthDuration/depth_discrimination_MTurk/DepthDiscrim_HTML.html#1,1,1519,700,1536,864,7-20-2021,10-20-53,182,,,,,,,1782,506,997,1011,991,508,,3,5,depth_discrimination_stimuli/000502_2014-06-08_23-02-32_260595134347_rgbf000063-resize_4/000502_2014-06-08_23-02-32_260595134347_rgbf000063-resize-original.jpg,4681,1171419,1431415,47
669732,DepthScenes,duration_discrimination,discrim_jsons/shuffled_g0_dr.json,http://54.89.209.186/DepthDuration/depth_discrimination_MTurk/DepthDiscrim_HTML.html#1,1,1519,700,1536,864,7-20-2021,10-20-53,183,,,,,,,1782,506,997,1011,991,508,,4,3,depth_discrimination_stimuli/002344_2014-06-28_20-06-29_260595134347_rgbf000030-resize_1/002344_2014-06-28_20-06-29_260595134347_rgbf000030-resize-original.jpg,4148,1171419,1431415,47
669732,DepthScenes,duration_discrimination,discrim_jsons/shuffled_g0_dr.json,http://54.89.209.186/DepthDuration/depth_discrimination_MTurk/DepthDiscrim_HTML.html#1,1,1519,700,1536,864,7-20-2021,10-20-53,184,,,,,,,1782,506,997,1011,991,508,,3,2,depth_discrimination_stimuli/003338_2014-05-20_11-01-23_094959634447_rgbf000051-resize_6/003338_2014-05-20_11-01-23_094959634447_rgbf000051-resize-original.jpg,4702,1171419,1431415,47
669732,DepthScenes,duration_discrimination,discrim_jsons/shuffled_g0_dr.json,http://54.89.209.186/DepthDuration/depth_discrimination_MTurk/DepthDiscrim_HTML.html#1,1,1519,700,1536,864,7-20-2021,10-20-53,185,,,,,,,1782,506,997,1011,991,508,,3,3,depth_discrimination_stimuli/002209_2014-06-28_18-36-10_260595134347_rgbf000051-resize_1/002209_2014-06-28_18-36-10_260595134347_rgbf000051-resize-original.jpg,3998,1171419,1431415,47
669732,DepthScenes,duration_discrimination,discrim_jsons/shuffled_g0_dr.json,http://54.89.209.186/DepthDuration/depth_discrimination_MTurk/DepthDiscrim_HTML.html#1,1,1519,700,1536,864,7-20-2021,10-20-53,186,,,,,,,1782,506,997,1011,991,508,,3,3,depth_discrimination_stimuli/003069_2014-06-15_14-57-50_094959634447_rgbf000150-resize_4/003069_2014-06-15_14-57-50_094959634447_rgbf000150-resize-original.jpg,2602,1171419,1431415,47
669732,DepthScenes,duration_discrimination,discrim_jsons/shuffled_g0_dr.json,http://54.89.209.186/DepthDuration/depth_discrimination_MTurk/DepthDiscrim_HTML.html#1,1,1519,700,1536,864,7-20-2021,10-20-53,187,,,,,,,1782,506,997,1011,991,508,,3,3,depth_discrimination_stimuli/001214_2014-06-17_16-13-55_260595134347_rgbf000111-resize_0/001214_2014-06-17_16-13-55_260595134347_rgbf000111-resize-original.jpg,2914,1171419,1431415,47
669732,DepthScenes,duration_discrimination,discrim_jsons/shuffled_g0_dr.json,http://54.89.209.186/DepthDuration/depth_discrimination_MTurk/DepthDiscrim_HTML.html#1,1,1519,700,1536,864,7-20-2021,10-20-53,188,,,,,,,1782,506,997,1011,991,508,,3,1,depth_discrimination_stimuli/002630_2014-06-24_14-47-50_094959634447_rgbf000055-resize_1/002630_2014-06-24_14-47-50_094959634447_rgbf000055-resize-original.jpg,5064,1171419,1431415,47
669732,DepthScenes,duration_discrimination,discrim_jsons/shuffled_g0_dr.json,http://54.89.209.186/DepthDuration/depth_discrimination_MTurk/DepthDiscrim_HTML.html#1,1,1519,700,1536,864,7-20-2021,10-20-53,189,,,,,,,1782,506,997,1011,991,508,,2,3,depth_discrimination_stimuli/001167_2014-06-17_15-38-07_260595134347_rgbf000108-resize_0/001167_2014-06-17_15-38-07_260595134347_rgbf000108-resize-original.jpg,4823,1171419,1431415,47
669732,DepthScenes,duration_discrimination,discrim_jsons/shuffled_g0_dr.json,http://54.89.209.186/DepthDuration/depth_discrimination_MTurk/DepthDiscrim_HTML.html#1,1,1519,700,1536,864,7-20-2021,10-20-53,190,,,,,,,1782,506,997,1011,991,508,,3,3,depth_discrimination_stimuli/000665_2014-06-09_20-42-35_260595134347_rgbf000110-resize_1/000665_2014-06-09_20-42-35_260595134347_rgbf000110-resize-original.jpg,3136,1171419,1431415,47
669732,DepthScenes,duration_discrimination,discrim_jsons/shuffled_g0_dr.json,http://54.89.209.186/DepthDuration/depth_discrimination_MTurk/DepthDiscrim_HTML.html#1,1,1519,700,1536,864,7-20-2021,10-20-53,191,,,,,,,1782,506,997,1011,991,508,,2,3,depth_discrimination_stimuli/001100_2014-06-15_17-46-26_260595134347_rgbf000225-resize_2/001100_2014-06-15_17-46-26_260595134347_rgbf000225-resize-original.jpg,4755,1171419,1431415,47
669732,DepthScenes,duration_discrimination,discrim_jsons/shuffled_g0_dr.json,http://54.89.209.186/DepthDuration/depth_discrimination_MTurk/DepthDiscrim_HTML.html#1,1,1519,700,1536,864,7-20-2021,10-20-53,192,,,,,,,1782,506,997,1011,991,508,,4,3,depth_discrimination_stimuli/003546_2014-05-22_15-48-53_094959634447_rgbf004816-resize_3/003546_2014-05-22_15-48-53_094959634447_rgbf004816-resize-original.jpg,4838,1171419,1431415,47
669732,DepthScenes,duration_discrimination,discrim_jsons/shuffled_g0_dr.json,http://54.89.209.186/DepthDuration/depth_discrimination_MTurk/DepthDiscrim_HTML.html#1,1,1519,700,1536,864,7-20-2021,10-20-53,193,,,,,,,1782,506,997,1011,991,508,,4,3,depth_discrimination_stimuli/001650_2014-06-20_12-09-00_260595134347_rgbf000087-resize_3/001650_2014-06-20_12-09-00_260595134347_rgbf000087-resize-original.jpg,4273,1171419,1431415,47
669732,DepthScenes,duration_discrimination,discrim_jsons/shuffled_g0_dr.json,http://54.89.209.186/DepthDuration/depth_discrimination_MTurk/DepthDiscrim_HTML.html#1,1,1519,700,1536,864,7-20-2021,10-20-53,194,,,,,,,1782,506,997,1011,991,508,,3,3,depth_discrimination_stimuli/002414_2014-06-28_20-24-58_260595134347_rgbf000067-resize_4/002414_2014-06-28_20-24-58_260595134347_rgbf000067-resize-original.jpg,3726,1171419,1431415,47
669732,DepthScenes,duration_discrimination,discrim_jsons/shuffled_g0_dr.json,http://54.89.209.186/DepthDuration/depth_discrimination_MTurk/DepthDiscrim_HTML.html#1,1,1519,700,1536,864,7-20-2021,10-20-53,195,,,,,,,1782,506,997,1011,991,508,,3,3,depth_discrimination_stimuli/000635_2014-06-08_16-38-42_260595134347_rgbf000106-resize_1/000635_2014-06-08_16-38-42_260595134347_rgbf000106-resize-original.jpg,2853,1171419,1431415,47
669732,DepthScenes,duration_discrimination,discrim_jsons/shuffled_g0_dr.json,http://54.89.209.186/DepthDuration/depth_discrimination_MTurk/DepthDiscrim_HTML.html#1,1,1519,700,1536,864,7-20-2021,10-20-53,196,,,,,,,1782,506,997,1011,991,508,,3,2,depth_discrimination_stimuli/001056_2014-06-08_18-46-44_260595134347_rgbf000068-resize_0/001056_2014-06-08_18-46-44_260595134347_rgbf000068-resize-original.jpg,4128,1171419,1431415,47
669732,DepthScenes,duration_discrimination,discrim_jsons/shuffled_g0_dr.json,http://54.89.209.186/DepthDuration/depth_discrimination_MTurk/DepthDiscrim_HTML.html#1,1,1519,700,1536,864,7-20-2021,10-20-53,197,,,,,,,1782,506,997,1011,991,508,,4,2,depth_discrimination_stimuli/003423_2014-05-21_10-23-26_094959634447_rgbf002665-resize_2/003423_2014-05-21_10-23-26_094959634447_rgbf002665-resize-original.jpg,4412,1171419,1431415,47
669732,DepthScenes,duration_discrimination,discrim_jsons/shuffled_g0_dr.json,http://54.89.209.186/DepthDuration/depth_discrimination_MTurk/DepthDiscrim_HTML.html#1,1,1519,700,1536,864,7-20-2021,10-20-53,198,,,,,,,1782,506,997,1011,991,508,,2,2,depth_discrimination_stimuli/000866_2014-06-09_20-45-42_260595134347_rgbf000139-resize_1/000866_2014-06-09_20-45-42_260595134347_rgbf000139-resize-original.jpg,3908,1171419,1431415,47
669732,DepthScenes,duration_discrimination,discrim_jsons/shuffled_g0_dr.json,http://54.89.209.186/DepthDuration/depth_discrimination_MTurk/DepthDiscrim_HTML.html#1,1,1519,700,1536,864,7-20-2021,10-20-53,199,,,,,,,1782,506,997,1011,991,508,,2,3,depth_discrimination_stimuli/000636_2014-06-08_16-39-02_260595134347_rgbf000108-resize_4/000636_2014-06-08_16-39-02_260595134347_rgbf000108-resize-original.jpg,4521,1171419,1431415,47
669732,DepthScenes,duration_discrimination,discrim_jsons/shuffled_g0_dr.json,http://54.89.209.186/DepthDuration/depth_discrimination_MTurk/DepthDiscrim_HTML.html#1,1,1519,700,1536,864,7-20-2021,10-20-53,200,,,,,,,1782,506,997,1011,991,508,,3,4,depth_discrimination_stimuli/003010_2014-06-15_12-54-35_094959634447_rgbf000112-resize_0/003010_2014-06-15_12-54-35_094959634447_rgbf000112-resize-original.jpg,3738,1171419,1431415,47
669732,DepthScenes,duration_discrimination,discrim_jsons/shuffled_g0_dr.json,http://54.89.209.186/DepthDuration/depth_discrimination_MTurk/DepthDiscrim_HTML.html#1,1,1519,700,1536,864,7-20-2021,10-20-53,201,,,,,,,1782,506,997,1011,991,508,,3,3,depth_discrimination_stimuli/002057_2014-06-24_21-00-13_260595134347_rgbf000120-resize_1/002057_2014-06-24_21-00-13_260595134347_rgbf000120-resize-original.jpg,5053,1171419,1431415,47
669732,DepthScenes,duration_discrimination,discrim_jsons/shuffled_g0_dr.json,http://54.89.209.186/DepthDuration/depth_discrimination_MTurk/DepthDiscrim_HTML.html#1,1,1519,700,1536,864,7-20-2021,10-20-53,202,,,,,,,1782,506,997,1011,991,508,,1,4,depth_discrimination_stimuli/002549_2014-06-24_13-41-39_094959634447_rgbf000022-resize_3/002549_2014-06-24_13-41-39_094959634447_rgbf000022-resize-original.jpg,6416,1171419,1431415,47
669732,DepthScenes,duration_discrimination,discrim_jsons/shuffled_g0_dr.json,http://54.89.209.186/DepthDuration/depth_discrimination_MTurk/DepthDiscrim_HTML.html#1,1,1519,700,1536,864,7-20-2021,10-20-53,203,,,,,,,1782,506,997,1011,991,508,,3,3,depth_discrimination_stimuli/002639_2014-06-24_14-51-37_094959634447_rgbf000074-resize_4/002639_2014-06-24_14-51-37_094959634447_rgbf000074-resize-original.jpg,3581,1171419,1431415,47
669732,DepthScenes,duration_discrimination,discrim_jsons/shuffled_g0_dr.json,http://54.89.209.186/DepthDuration/depth_discrimination_MTurk/DepthDiscrim_HTML.html#1,1,1519,700,1536,864,7-20-2021,10-20-53,204,,,,,,,1782,506,997,1011,991,508,,3,3,depth_discrimination_stimuli/000549_2014-06-08_22-10-24_260595134347_rgbf000247-resize_3/000549_2014-06-08_22-10-24_260595134347_rgbf000247-resize-original.jpg,3972,1171419,1431415,47
669732,DepthScenes,duration_discrimination,discrim_jsons/shuffled_g0_dr.json,http://54.89.209.186/DepthDuration/depth_discrimination_MTurk/DepthDiscrim_HTML.html#1,1,1519,700,1536,864,7-20-2021,10-20-53,205,,,,,,,1782,506,997,1011,991,508,,1,4,depth_discrimination_stimuli/000878_2014-06-08_22-52-45_260595134347_rgbf000045-resize_2/000878_2014-06-08_22-52-45_260595134347_rgbf000045-resize-original.jpg,4735,1171419,1431415,47
669732,DepthScenes,duration_discrimination,discrim_jsons/shuffled_g0_dr.json,http://54.89.209.186/DepthDuration/depth_discrimination_MTurk/DepthDiscrim_HTML.html#1,1,1519,700,1536,864,7-20-2021,10-20-53,206,,,,,,,1782,506,997,1011,991,508,,2,2,depth_discrimination_stimuli/002949_2014-06-26_15-57-42_094959634447_rgbf000079-resize_1/002949_2014-06-26_15-57-42_094959634447_rgbf000079-resize-original.jpg,4838,1171419,1431415,47
669732,DepthScenes,duration_discrimination,discrim_jsons/shuffled_g0_dr.json,http://54.89.209.186/DepthDuration/depth_discrimination_MTurk/DepthDiscrim_HTML.html#1,1,1519,700,1536,864,7-20-2021,10-20-53,207,,,,,,,1782,506,997,1011,991,508,,2,3,depth_discrimination_stimuli/001110_2014-06-15_17-25-28_260595134347_rgbf000150-resize_1/001110_2014-06-15_17-25-28_260595134347_rgbf000150-resize-original.jpg,3737,1171419,1431415,47
669732,DepthScenes,duration_discrimination,discrim_jsons/shuffled_g0_dr.json,http://54.89.209.186/DepthDuration/depth_discrimination_MTurk/DepthDiscrim_HTML.html#1,1,1519,700,1536,864,7-20-2021,10-20-53,208,,,,,,,1782,506,997,1011,991,508,,3,4,depth_discrimination_stimuli/000556_2014-06-09_22-42-56_260595134347_rgbf000214-resize_1/000556_2014-06-09_22-42-56_260595134347_rgbf000214-resize-original.jpg,4538,1171419,1431415,47
669732,DepthScenes,duration_discrimination,discrim_jsons/shuffled_g0_dr.json,http://54.89.209.186/DepthDuration/depth_discrimination_MTurk/DepthDiscrim_HTML.html#1,1,1519,700,1536,864,7-20-2021,10-20-53,209,,,,,,,1782,506,997,1011,991,508,,3,2,depth_discrimination_stimuli/002953_2014-06-08_17-32-18_094959634447_rgbf000059-resize_5/002953_2014-06-08_17-32-18_094959634447_rgbf000059-resize-original.jpg,3308,1171419,1431415,47
669732,DepthScenes,duration_discrimination,discrim_jsons/shuffled_g0_dr.json,http://54.89.209.186/DepthDuration/depth_discrimination_MTurk/DepthDiscrim_HTML.html#1,1,1519,700,1536,864,7-20-2021,10-20-53,210,,,,,,,1782,506,997,1011,991,508,,3,3,depth_discrimination_stimuli/002657_2014-06-13_15-29-54_094959634447_rgbf000150-resize_1/002657_2014-06-13_15-29-54_094959634447_rgbf000150-resize-original.jpg,3732,1171419,1431415,47
669732,DepthScenes,duration_discrimination,discrim_jsons/shuffled_g0_dr.json,http://54.89.209.186/DepthDuration/depth_discrimination_MTurk/DepthDiscrim_HTML.html#1,1,1519,700,1536,864,7-20-2021,10-20-53,211,,,,,,,1782,506,997,1011,991,508,,3,2,depth_discrimination_stimuli/001417_2014-06-19_16-25-36_260595134347_rgbf000115-resize_5/001417_2014-06-19_16-25-36_260595134347_rgbf000115-resize-original.jpg,3350,1171419,1431415,47
669732,DepthScenes,duration_discrimination,discrim_jsons/shuffled_g0_dr.json,http://54.89.209.186/DepthDuration/depth_discrimination_MTurk/DepthDiscrim_HTML.html#1,1,1519,700,1536,864,7-20-2021,10-20-53,212,,,,,,,1782,506,997,1011,991,508,,2,3,depth_discrimination_stimuli/003288_2014-05-14_21-50-30_094959634447_rgbf000028-resize_3/003288_2014-05-14_21-50-30_094959634447_rgbf000028-resize-original.jpg,5899,1171419,1431415,47
669732,DepthScenes,duration_discrimination,discrim_jsons/shuffled_g0_dr.json,http://54.89.209.186/DepthDuration/depth_discrimination_MTurk/DepthDiscrim_HTML.html#1,1,1519,700,1536,864,7-20-2021,10-20-53,213,,,,,,,1782,506,997,1011,991,508,,3,3,depth_discrimination_stimuli/003495_2014-05-21_16-01-51_094959634447_rgbf000100-resize_3/003495_2014-05-21_16-01-51_094959634447_rgbf000100-resize-original.jpg,4340,1171419,1431415,47
669732,DepthScenes,duration_discrimination,discrim_jsons/shuffled_g0_dr.json,http://54.89.209.186/DepthDuration/depth_discrimination_MTurk/DepthDiscrim_HTML.html#1,1,1519,700,1536,864,7-20-2021,10-20-53,214,,,,,,,1782,506,997,1011,991,508,,4,3,depth_discrimination_stimuli/002118_2014-06-25_20-32-08_260595134347_rgbf000078-resize_1/002118_2014-06-25_20-32-08_260595134347_rgbf000078-resize-original.jpg,3518,1171419,1431415,47
669732,DepthScenes,duration_discrimination,discrim_jsons/shuffled_g0_dr.json,http://54.89.209.186/DepthDuration/depth_discrimination_MTurk/DepthDiscrim_HTML.html#1,1,1519,700,1536,864,7-20-2021,10-20-53,215,,,,,,,1782,506,997,1011,991,508,,1,4,depth_discrimination_stimuli/002905_2014-06-03_18-04-43_094959634447_rgbf000151-resize_2/002905_2014-06-03_18-04-43_094959634447_rgbf000151-resize-original.jpg,4083,1171419,1431415,47
669732,DepthScenes,duration_discrimination,discrim_jsons/shuffled_g0_dr.json,http://54.89.209.186/DepthDuration/depth_discrimination_MTurk/DepthDiscrim_HTML.html#1,1,1519,700,1536,864,7-20-2021,10-20-53,216,,,,,,,1782,506,997,1011,991,508,,1,3,depth_discrimination_stimuli/000869_2014-06-09_20-50-18_260595134347_rgbf000060-resize_3/000869_2014-06-09_20-50-18_260595134347_rgbf000060-resize-original.jpg,4275,1171419,1431415,47
669732,DepthScenes,duration_discrimination,discrim_jsons/shuffled_g0_dr.json,http://54.89.209.186/DepthDuration/depth_discrimination_MTurk/DepthDiscrim_HTML.html#1,1,1519,700,1536,864,7-20-2021,10-20-53,217,,,,,,,1782,506,997,1011,991,508,,2,3,depth_discrimination_stimuli/000906_2014-06-08_13-35-43_260595134347_rgbf000155-resize_1/000906_2014-06-08_13-35-43_260595134347_rgbf000155-resize-original.jpg,4596,1171419,1431415,47
