subjID,experimentName,versionName,sequenceName,url,selected_row,windowWidth,windowHeight,screenWidth,screenHeight,startDate,startTime,trial,stimulus_0,stimulus_1,duration,actual_depth_0,actual_depth_1,discrim_choice,trial_RT,log_fixation,log_sceneDuration1,log_mask1,log_sceneDuration2,log_mask2,unitSelection,meanDepth_rating,navigability_rating,rated_stimulus,rating_RT,experimentTime,totalTime,age
278929,DepthScenes,duration_discrimination,discrim_jsons/shuffled_g0_rotated.json,http://54.89.209.186/DepthDuration/depth_discrimination_MTurk/DepthDiscrim_HTML.html#3,3,1280,938,1280,1024,7-20-2021,9-10-17,1,depth_discrimination_stimuli/000109_2014-05-14_23-41-52_260595134347_rgbf000035-resize_9/000109_2014-05-14_23-41-52_260595134347_rgbf000035-resize_9-target.png,depth_discrimination_stimuli/001618_2014-06-20_11-37-31_260595134347_rgbf000027-resize_3/001618_2014-06-20_11-37-31_260595134347_rgbf000027-resize_3-target.png,250,1.3545,1.8725,1,2560,507,249,1005,250,495,,,,,,1285182,1454842,68
278929,DepthScenes,duration_discrimination,discrim_jsons/shuffled_g0_rotated.json,http://54.89.209.186/DepthDuration/depth_discrimination_MTurk/DepthDiscrim_HTML.html#3,3,1280,938,1280,1024,7-20-2021,9-10-17,2,depth_discrimination_stimuli/000502_2014-06-08_23-02-32_260595134347_rgbf000063-resize_4/000502_2014-06-08_23-02-32_260595134347_rgbf000063-resize_4-target.png,depth_discrimination_stimuli/001092_2014-06-15_17-34-58_260595134347_rgbf000171-resize_3/001092_2014-06-15_17-34-58_260595134347_rgbf000171-resize_3-target.png,1000,2.431,2.6935,0,2113,502,1003,995,1000,500,,,,,,1285182,1454842,68
278929,DepthScenes,duration_discrimination,discrim_jsons/shuffled_g0_rotated.json,http://54.89.209.186/DepthDuration/depth_discrimination_MTurk/DepthDiscrim_HTML.html#3,3,1280,938,1280,1024,7-20-2021,9-10-17,3,depth_discrimination_stimuli/000953_2014-06-08_11-42-19_260595134347_rgbf000083-resize_0/000953_2014-06-08_11-42-19_260595134347_rgbf000083-resize_0-target.png,depth_discrimination_stimuli/000787_2014-06-08_22-33-53_260595134347_rgbf000175-resize_1/000787_2014-06-08_22-33-53_260595134347_rgbf000175-resize_1-target.png,250,1.369,4.784,1,1269,509,250,994,250,502,,,,,,1285182,1454842,68
278929,DepthScenes,duration_discrimination,discrim_jsons/shuffled_g0_rotated.json,http://54.89.209.186/DepthDuration/depth_discrimination_MTurk/DepthDiscrim_HTML.html#3,3,1280,938,1280,1024,7-20-2021,9-10-17,4,depth_discrimination_stimuli/000742_2014-06-08_18-48-09_260595134347_rgbf000164-resize_4/000742_2014-06-08_18-48-09_260595134347_rgbf000164-resize_4-target.png,depth_discrimination_stimuli/003083_2014-06-15_15-21-03_094959634447_rgbf000063-resize_1/003083_2014-06-15_15-21-03_094959634447_rgbf000063-resize_1-target.png,250,4.632,4.1405,0,2194,514,239,1011,249,489,,,,,,1285182,1454842,68
278929,DepthScenes,duration_discrimination,discrim_jsons/shuffled_g0_rotated.json,http://54.89.209.186/DepthDuration/depth_discrimination_MTurk/DepthDiscrim_HTML.html#3,3,1280,938,1280,1024,7-20-2021,9-10-17,5,depth_discrimination_stimuli/000943_2014-06-09_19-31-07_260595134347_rgbf000128-resize_1/000943_2014-06-09_19-31-07_260595134347_rgbf000128-resize_1-target.png,depth_discrimination_stimuli/001532_2014-06-20_16-50-41_260595134347_rgbf000081-resize_4/001532_2014-06-20_16-50-41_260595134347_rgbf000081-resize_4-target.png,1000,1.9765,1.5758333333333,1,2251,509,1000,1000,995,499,,,,,,1285182,1454842,68
278929,DepthScenes,duration_discrimination,discrim_jsons/shuffled_g0_rotated.json,http://54.89.209.186/DepthDuration/depth_discrimination_MTurk/DepthDiscrim_HTML.html#3,3,1280,938,1280,1024,7-20-2021,9-10-17,6,depth_discrimination_stimuli/001056_2014-06-08_18-46-44_260595134347_rgbf000068-resize_0/001056_2014-06-08_18-46-44_260595134347_rgbf000068-resize_0-target.png,depth_discrimination_stimuli/000749_2014-06-08_21-55-06_260595134347_rgbf000070-resize_2/000749_2014-06-08_21-55-06_260595134347_rgbf000070-resize_2-target.png,1000,2.6625,2.331,1,1880,504,1004,995,997,512,,,,,,1285182,1454842,68
278929,DepthScenes,duration_discrimination,discrim_jsons/shuffled_g0_rotated.json,http://54.89.209.186/DepthDuration/depth_discrimination_MTurk/DepthDiscrim_HTML.html#3,3,1280,938,1280,1024,7-20-2021,9-10-17,7,depth_discrimination_stimuli/000869_2014-06-09_20-50-18_260595134347_rgbf000060-resize_3/000869_2014-06-09_20-50-18_260595134347_rgbf000060-resize_3-target.png,depth_discrimination_stimuli/000800_2014-06-08_22-42-09_260595134347_rgbf000095-resize_3/000800_2014-06-08_22-42-09_260595134347_rgbf000095-resize_3-target.png,1000,2.266,2.8,0,1539,503,1012,1001,987,500,,,,,,1285182,1454842,68
278929,DepthScenes,duration_discrimination,discrim_jsons/shuffled_g0_rotated.json,http://54.89.209.186/DepthDuration/depth_discrimination_MTurk/DepthDiscrim_HTML.html#3,3,1280,938,1280,1024,7-20-2021,9-10-17,8,depth_discrimination_stimuli/002444_2014-06-28_20-32-08_260595134347_rgbf000027-resize_0/002444_2014-06-28_20-32-08_260595134347_rgbf000027-resize_0-target.png,depth_discrimination_stimuli/002103_2014-06-25_20-00-40_260595134347_rgbf000049-resize_0/002103_2014-06-25_20-00-40_260595134347_rgbf000049-resize_0-target.png,250,4.389,4.105,1,2239,505,250,996,266,496,,,,,,1285182,1454842,68
278929,DepthScenes,duration_discrimination,discrim_jsons/shuffled_g0_rotated.json,http://54.89.209.186/DepthDuration/depth_discrimination_MTurk/DepthDiscrim_HTML.html#3,3,1280,938,1280,1024,7-20-2021,9-10-17,9,depth_discrimination_stimuli/001011_2014-06-08_23-18-54_260595134347_rgbf000044-resize_4/001011_2014-06-08_23-18-54_260595134347_rgbf000044-resize_4-target.png,depth_discrimination_stimuli/002043_2014-06-24_20-29-38_260595134347_rgbf000039-resize_4/002043_2014-06-24_20-29-38_260595134347_rgbf000039-resize_4-target.png,250,2.473,2.8435,1,1278,502,250,998,253,504,,,,,,1285182,1454842,68
278929,DepthScenes,duration_discrimination,discrim_jsons/shuffled_g0_rotated.json,http://54.89.209.186/DepthDuration/depth_discrimination_MTurk/DepthDiscrim_HTML.html#3,3,1280,938,1280,1024,7-20-2021,9-10-17,10,depth_discrimination_stimuli/000454_2014-06-08_16-37-28_260595134347_rgbf000048-resize_2/000454_2014-06-08_16-37-28_260595134347_rgbf000048-resize_2-target.png,depth_discrimination_stimuli/000375_2014-06-08_11-17-29_260595134347_rgbf000133-resize_2/000375_2014-06-08_11-17-29_260595134347_rgbf000133-resize_2-target.png,1000,1.213,4.718,2,6701,510,996,996,1013,501,,,,,,1285182,1454842,68
278929,DepthScenes,duration_discrimination,discrim_jsons/shuffled_g0_rotated.json,http://54.89.209.186/DepthDuration/depth_discrimination_MTurk/DepthDiscrim_HTML.html#3,3,1280,938,1280,1024,7-20-2021,9-10-17,11,depth_discrimination_stimuli/002039_2014-06-24_20-22-38_260595134347_rgbf000084-resize_1/002039_2014-06-24_20-22-38_260595134347_rgbf000084-resize_1-target.png,depth_discrimination_stimuli/000691_2014-06-08_13-08-50_260595134347_rgbf000132-resize_3/000691_2014-06-08_13-08-50_260595134347_rgbf000132-resize_3-target.png,1000,4.408,4.153,1,2095,513,1001,997,996,498,,,,,,1285182,1454842,68
278929,DepthScenes,duration_discrimination,discrim_jsons/shuffled_g0_rotated.json,http://54.89.209.186/DepthDuration/depth_discrimination_MTurk/DepthDiscrim_HTML.html#3,3,1280,938,1280,1024,7-20-2021,9-10-17,12,depth_discrimination_stimuli/000709_2014-06-08_13-51-55_260595134347_rgbf000068-resize_3/000709_2014-06-08_13-51-55_260595134347_rgbf000068-resize_3-target.png,depth_discrimination_stimuli/003587_2014-05-23_16-48-02_094959634447_rgbf002384-resize_2/003587_2014-05-23_16-48-02_094959634447_rgbf002384-resize_2-target.png,1000,1.803,1.357,0,2599,504,1011,996,997,497,,,,,,1285182,1454842,68
278929,DepthScenes,duration_discrimination,discrim_jsons/shuffled_g0_rotated.json,http://54.89.209.186/DepthDuration/depth_discrimination_MTurk/DepthDiscrim_HTML.html#3,3,1280,938,1280,1024,7-20-2021,9-10-17,13,depth_discrimination_stimuli/002905_2014-06-03_18-04-43_094959634447_rgbf000151-resize_2/002905_2014-06-03_18-04-43_094959634447_rgbf000151-resize_2-target.png,depth_discrimination_stimuli/002340_2014-06-28_20-05-46_260595134347_rgbf000113-resize_0/002340_2014-06-28_20-05-46_260595134347_rgbf000113-resize_0-target.png,1000,2.0295,2.4735,0,2024,503,1001,1011,994,496,,,,,,1285182,1454842,68
278929,DepthScenes,duration_discrimination,discrim_jsons/shuffled_g0_rotated.json,http://54.89.209.186/DepthDuration/depth_discrimination_MTurk/DepthDiscrim_HTML.html#3,3,1280,938,1280,1024,7-20-2021,9-10-17,14,depth_discrimination_stimuli/000409_2014-06-04_19-23-33_260595134347_rgbf000067-resize_0/000409_2014-06-04_19-23-33_260595134347_rgbf000067-resize_0-target.png,depth_discrimination_stimuli/000493_2014-06-09_21-01-18_260595134347_rgbf000196-resize_3/000493_2014-06-09_21-01-18_260595134347_rgbf000196-resize_3-target.png,250,3.7335,3.44,1,895,508,249,998,246,504,,,,,,1285182,1454842,68
278929,DepthScenes,duration_discrimination,discrim_jsons/shuffled_g0_rotated.json,http://54.89.209.186/DepthDuration/depth_discrimination_MTurk/DepthDiscrim_HTML.html#3,3,1280,938,1280,1024,7-20-2021,9-10-17,15,depth_discrimination_stimuli/002675_2014-06-13_16-08-49_094959634447_rgbf000151-resize_2/002675_2014-06-13_16-08-49_094959634447_rgbf000151-resize_2-target.png,depth_discrimination_stimuli/001222_2014-06-17_16-24-06_260595134347_rgbf000073-resize_0/001222_2014-06-17_16-24-06_260595134347_rgbf000073-resize_0-target.png,1000,4.5065,1.4385,1,4884,505,1009,995,992,512,,,,,,1285182,1454842,68
278929,DepthScenes,duration_discrimination,discrim_jsons/shuffled_g0_rotated.json,http://54.89.209.186/DepthDuration/depth_discrimination_MTurk/DepthDiscrim_HTML.html#3,3,1280,938,1280,1024,7-20-2021,9-10-17,16,depth_discrimination_stimuli/001016_2014-06-09_16-16-10_260595134347_rgbf000112-resize_5/001016_2014-06-09_16-16-10_260595134347_rgbf000112-resize_5-target.png,depth_discrimination_stimuli/002199_2014-06-28_18-33-56_260595134347_rgbf000074-resize_0/002199_2014-06-28_18-33-56_260595134347_rgbf000074-resize_0-target.png,250,1.6565,1.996,0,2221,500,253,998,253,498,,,,,,1285182,1454842,68
278929,DepthScenes,duration_discrimination,discrim_jsons/shuffled_g0_rotated.json,http://54.89.209.186/DepthDuration/depth_discrimination_MTurk/DepthDiscrim_HTML.html#3,3,1280,938,1280,1024,7-20-2021,9-10-17,17,depth_discrimination_stimuli/000470_2014-06-09_19-42-40_260595134347_rgbf000094-resize_1/000470_2014-06-09_19-42-40_260595134347_rgbf000094-resize_1-target.png,depth_discrimination_stimuli/002953_2014-06-08_17-32-18_094959634447_rgbf000059-resize_5/002953_2014-06-08_17-32-18_094959634447_rgbf000059-resize_5-target.png,250,1.831,1.551,1,1380,509,250,995,252,500,,,,,,1285182,1454842,68
278929,DepthScenes,duration_discrimination,discrim_jsons/shuffled_g0_rotated.json,http://54.89.209.186/DepthDuration/depth_discrimination_MTurk/DepthDiscrim_HTML.html#3,3,1280,938,1280,1024,7-20-2021,9-10-17,18,depth_discrimination_stimuli/000569_2014-06-09_22-51-47_260595134347_rgbf000141-resize_3/000569_2014-06-09_22-51-47_260595134347_rgbf000141-resize_3-target.png,depth_discrimination_stimuli/000868_2014-06-09_20-49-52_260595134347_rgbf000064-resize_4/000868_2014-06-09_20-49-52_260595134347_rgbf000064-resize_4-target.png,250,4.512,1.2815,1,1426,508,249,999,251,498,,,,,,1285182,1454842,68
278929,DepthScenes,duration_discrimination,discrim_jsons/shuffled_g0_rotated.json,http://54.89.209.186/DepthDuration/depth_discrimination_MTurk/DepthDiscrim_HTML.html#3,3,1280,938,1280,1024,7-20-2021,9-10-17,19,depth_discrimination_stimuli/001055_2014-06-08_18-45-35_260595134347_rgbf000111-resize_4/001055_2014-06-08_18-45-35_260595134347_rgbf000111-resize_4-target.png,depth_discrimination_stimuli/000929_2014-06-09_16-33-19_260595134347_rgbf000139-resize_0/000929_2014-06-09_16-33-19_260595134347_rgbf000139-resize_0-target.png,1000,2.429,2.868,1,3360,507,1002,1003,1001,488,,,,,,1285182,1454842,68
278929,DepthScenes,duration_discrimination,discrim_jsons/shuffled_g0_rotated.json,http://54.89.209.186/DepthDuration/depth_discrimination_MTurk/DepthDiscrim_HTML.html#3,3,1280,938,1280,1024,7-20-2021,9-10-17,20,depth_discrimination_stimuli/001164_2014-06-17_15-35-46_260595134347_rgbf000085-resize_3/001164_2014-06-17_15-35-46_260595134347_rgbf000085-resize_3-target.png,depth_discrimination_stimuli/002118_2014-06-25_20-32-08_260595134347_rgbf000078-resize_1/002118_2014-06-25_20-32-08_260595134347_rgbf000078-resize_1-target.png,1000,2.354,2.646,0,1918,508,1003,999,997,501,,,,,,1285182,1454842,68
278929,DepthScenes,duration_discrimination,discrim_jsons/shuffled_g0_rotated.json,http://54.89.209.186/DepthDuration/depth_discrimination_MTurk/DepthDiscrim_HTML.html#3,3,1280,938,1280,1024,7-20-2021,9-10-17,21,depth_discrimination_stimuli/000866_2014-06-09_20-45-42_260595134347_rgbf000139-resize_1/000866_2014-06-09_20-45-42_260595134347_rgbf000139-resize_1-target.png,depth_discrimination_stimuli/003490_2014-05-21_15-50-11_094959634447_rgbf000101-resize_3/003490_2014-05-21_15-50-11_094959634447_rgbf000101-resize_3-target.png,1000,3.2155,3.6445,0,1918,515,998,999,996,499,,,,,,1285182,1454842,68
278929,DepthScenes,duration_discrimination,discrim_jsons/shuffled_g0_rotated.json,http://54.89.209.186/DepthDuration/depth_discrimination_MTurk/DepthDiscrim_HTML.html#3,3,1280,938,1280,1024,7-20-2021,9-10-17,22,depth_discrimination_stimuli/001584_2014-06-20_11-07-43_260595134347_rgbf000002-resize_1/001584_2014-06-20_11-07-43_260595134347_rgbf000002-resize_1-target.png,depth_discrimination_stimuli/002805_2014-06-22_19-54-03_094959634447_rgbf000079-resize_1/002805_2014-06-22_19-54-03_094959634447_rgbf000079-resize_1-target.png,250,3.53,3.144,0,1558,507,248,997,251,499,,,,,,1285182,1454842,68
278929,DepthScenes,duration_discrimination,discrim_jsons/shuffled_g0_rotated.json,http://54.89.209.186/DepthDuration/depth_discrimination_MTurk/DepthDiscrim_HTML.html#3,3,1280,938,1280,1024,7-20-2021,9-10-17,23,depth_discrimination_stimuli/002414_2014-06-28_20-24-58_260595134347_rgbf000067-resize_4/002414_2014-06-28_20-24-58_260595134347_rgbf000067-resize_4-target.png,depth_discrimination_stimuli/001450_2014-06-19_17-02-03_260595134347_rgbf000203-resize_4/001450_2014-06-19_17-02-03_260595134347_rgbf000203-resize_4-target.png,250,4.363,4.0106666666667,1,2131,501,252,1012,249,498,,,,,,1285182,1454842,68
278929,DepthScenes,duration_discrimination,discrim_jsons/shuffled_g0_rotated.json,http://54.89.209.186/DepthDuration/depth_discrimination_MTurk/DepthDiscrim_HTML.html#3,3,1280,938,1280,1024,7-20-2021,9-10-17,24,depth_discrimination_stimuli/002072_2014-06-24_21-48-06_260595134347_rgbf000115-resize_0/002072_2014-06-24_21-48-06_260595134347_rgbf000115-resize_0-target.png,depth_discrimination_stimuli/001012_2014-06-08_23-19-38_260595134347_rgbf000057-resize_0/001012_2014-06-08_23-19-38_260595134347_rgbf000057-resize_0-target.png,250,4.702,1.38325,0,1712,502,251,1013,235,511,,,,,,1285182,1454842,68
278929,DepthScenes,duration_discrimination,discrim_jsons/shuffled_g0_rotated.json,http://54.89.209.186/DepthDuration/depth_discrimination_MTurk/DepthDiscrim_HTML.html#3,3,1280,938,1280,1024,7-20-2021,9-10-17,25,depth_discrimination_stimuli/001498_2014-06-19_17-45-14_260595134347_rgbf000129-resize_4/001498_2014-06-19_17-45-14_260595134347_rgbf000129-resize_4-target.png,depth_discrimination_stimuli/003125_2014-05-12_10-39-22_094959634447_rgbf000100-resize_0/003125_2014-05-12_10-39-22_094959634447_rgbf000100-resize_0-target.png,1000,1.4075,4.8655,0,1687,503,1012,988,999,513,,,,,,1285182,1454842,68
278929,DepthScenes,duration_discrimination,discrim_jsons/shuffled_g0_rotated.json,http://54.89.209.186/DepthDuration/depth_discrimination_MTurk/DepthDiscrim_HTML.html#3,3,1280,938,1280,1024,7-20-2021,9-10-17,26,depth_discrimination_stimuli/002949_2014-06-26_15-57-42_094959634447_rgbf000079-resize_1/002949_2014-06-26_15-57-42_094959634447_rgbf000079-resize_1-target.png,depth_discrimination_stimuli/003495_2014-05-21_16-01-51_094959634447_rgbf000100-resize_3/003495_2014-05-21_16-01-51_094959634447_rgbf000100-resize_3-target.png,250,1.8915,1.6255,1,1758,508,250,1005,246,499,,,,,,1285182,1454842,68
278929,DepthScenes,duration_discrimination,discrim_jsons/shuffled_g0_rotated.json,http://54.89.209.186/DepthDuration/depth_discrimination_MTurk/DepthDiscrim_HTML.html#3,3,1280,938,1280,1024,7-20-2021,9-10-17,27,depth_discrimination_stimuli/001136_2014-06-17_15-19-41_260595134347_rgbf000076-resize_3/001136_2014-06-17_15-19-41_260595134347_rgbf000076-resize_3-target.png,depth_discrimination_stimuli/002549_2014-06-24_13-41-39_094959634447_rgbf000022-resize_3/002549_2014-06-24_13-41-39_094959634447_rgbf000022-resize_3-target.png,1000,1.8655,1.476,1,1971,510,998,1007,998,499,,,,,,1285182,1454842,68
278929,DepthScenes,duration_discrimination,discrim_jsons/shuffled_g0_rotated.json,http://54.89.209.186/DepthDuration/depth_discrimination_MTurk/DepthDiscrim_HTML.html#3,3,1280,938,1280,1024,7-20-2021,9-10-17,28,depth_discrimination_stimuli/002509_2014-06-24_13-19-22_094959634447_rgbf000077-resize_0/002509_2014-06-24_13-19-22_094959634447_rgbf000077-resize_0-target.png,depth_discrimination_stimuli/000549_2014-06-08_22-10-24_260595134347_rgbf000247-resize_3/000549_2014-06-08_22-10-24_260595134347_rgbf000247-resize_3-target.png,1000,1.3065,1.841,1,1842,506,1001,996,998,512,,,,,,1285182,1454842,68
278929,DepthScenes,duration_discrimination,discrim_jsons/shuffled_g0_rotated.json,http://54.89.209.186/DepthDuration/depth_discrimination_MTurk/DepthDiscrim_HTML.html#3,3,1280,938,1280,1024,7-20-2021,9-10-17,29,depth_discrimination_stimuli/000542_2014-06-08_18-27-08_260595134347_rgbf000118-resize_1/000542_2014-06-08_18-27-08_260595134347_rgbf000118-resize_1-target.png,depth_discrimination_stimuli/003292_2014-05-14_21-53-49_094959634447_rgbf000100-resize_2/003292_2014-05-14_21-53-49_094959634447_rgbf000100-resize_2-target.png,1000,3,3.4815,0,2723,506,1001,1007,995,495,,,,,,1285182,1454842,68
278929,DepthScenes,duration_discrimination,discrim_jsons/shuffled_g0_rotated.json,http://54.89.209.186/DepthDuration/depth_discrimination_MTurk/DepthDiscrim_HTML.html#3,3,1280,938,1280,1024,7-20-2021,9-10-17,30,depth_discrimination_stimuli/001148_2014-06-17_15-26-42_260595134347_rgbf000129-resize_0/001148_2014-06-17_15-26-42_260595134347_rgbf000129-resize_0-target.png,depth_discrimination_stimuli/000556_2014-06-09_22-42-56_260595134347_rgbf000214-resize_1/000556_2014-06-09_22-42-56_260595134347_rgbf000214-resize_1-target.png,1000,4.368,4.8415,0,2316,511,999,997,995,511,,,,,,1285182,1454842,68
278929,DepthScenes,duration_discrimination,discrim_jsons/shuffled_g0_rotated.json,http://54.89.209.186/DepthDuration/depth_discrimination_MTurk/DepthDiscrim_HTML.html#3,3,1280,938,1280,1024,7-20-2021,9-10-17,31,depth_discrimination_stimuli/001181_2014-06-17_15-50-57_260595134347_rgbf000106-resize_4/001181_2014-06-17_15-50-57_260595134347_rgbf000106-resize_4-target.png,depth_discrimination_stimuli/001158_2014-06-17_15-32-16_260595134347_rgbf000138-resize_2/001158_2014-06-17_15-32-16_260595134347_rgbf000138-resize_2-target.png,250,4.149,4.5315,0,1346,511,249,1003,249,504,,,,,,1285182,1454842,68
278929,DepthScenes,duration_discrimination,discrim_jsons/shuffled_g0_rotated.json,http://54.89.209.186/DepthDuration/depth_discrimination_MTurk/DepthDiscrim_HTML.html#3,3,1280,938,1280,1024,7-20-2021,9-10-17,32,depth_discrimination_stimuli/001235_2014-06-17_16-37-36_260595134347_rgbf000084-resize_4/001235_2014-06-17_16-37-36_260595134347_rgbf000084-resize_4-target.png,depth_discrimination_stimuli/001197_2014-06-17_16-01-50_260595134347_rgbf000103-resize_4/001197_2014-06-17_16-01-50_260595134347_rgbf000103-resize_4-target.png,250,3.6605,3.4025,1,2578,513,248,995,249,503,,,,,,1285182,1454842,68
278929,DepthScenes,duration_discrimination,discrim_jsons/shuffled_g0_rotated.json,http://54.89.209.186/DepthDuration/depth_discrimination_MTurk/DepthDiscrim_HTML.html#3,3,1280,938,1280,1024,7-20-2021,9-10-17,33,depth_discrimination_stimuli/001032_2014-06-08_13-23-17_260595134347_rgbf000021-resize_3/001032_2014-06-08_13-23-17_260595134347_rgbf000021-resize_3-target.png,depth_discrimination_stimuli/002323_2014-06-28_20-01-54_260595134347_rgbf000051-resize_4/002323_2014-06-28_20-01-54_260595134347_rgbf000051-resize_4-target.png,250,3.2725,3.731,0,1696,503,250,1002,248,500,,,,,,1285182,1454842,68
278929,DepthScenes,duration_discrimination,discrim_jsons/shuffled_g0_rotated.json,http://54.89.209.186/DepthDuration/depth_discrimination_MTurk/DepthDiscrim_HTML.html#3,3,1280,938,1280,1024,7-20-2021,9-10-17,34,depth_discrimination_stimuli/003395_2014-05-20_15-39-18_094959634447_rgbf000101-resize_0/003395_2014-05-20_15-39-18_094959634447_rgbf000101-resize_0-target.png,depth_discrimination_stimuli/001540_2014-06-20_17-01-05_260595134347_rgbf000086-resize_2/001540_2014-06-20_17-01-05_260595134347_rgbf000086-resize_2-target.png,1000,4.835,1.459,1,2819,514,993,1004,1002,498,,,,,,1285182,1454842,68
278929,DepthScenes,duration_discrimination,discrim_jsons/shuffled_g0_rotated.json,http://54.89.209.186/DepthDuration/depth_discrimination_MTurk/DepthDiscrim_HTML.html#3,3,1280,938,1280,1024,7-20-2021,9-10-17,35,depth_discrimination_stimuli/001170_2014-06-17_15-43-44_260595134347_rgbf000096-resize_6/001170_2014-06-17_15-43-44_260595134347_rgbf000096-resize_6-target.png,depth_discrimination_stimuli/002364_2014-06-28_20-11-05_260595134347_rgbf000042-resize_0/002364_2014-06-28_20-11-05_260595134347_rgbf000042-resize_0-target.png,250,1.191,4.682,0,2066,515,236,1011,250,500,,,,,,1285182,1454842,68
278929,DepthScenes,duration_discrimination,discrim_jsons/shuffled_g0_rotated.json,http://54.89.209.186/DepthDuration/depth_discrimination_MTurk/DepthDiscrim_HTML.html#3,3,1280,938,1280,1024,7-20-2021,9-10-17,36,depth_discrimination_stimuli/000137_2014-05-20_17-04-49_260595134347_rgbf000120-resize_1/000137_2014-05-20_17-04-49_260595134347_rgbf000120-resize_1-target.png,depth_discrimination_stimuli/003423_2014-05-21_10-23-26_094959634447_rgbf002665-resize_2/003423_2014-05-21_10-23-26_094959634447_rgbf002665-resize_2-target.png,250,3.786,3.2575,0,1328,504,253,1000,249,498,,,,,,1285182,1454842,68
278929,DepthScenes,duration_discrimination,discrim_jsons/shuffled_g0_rotated.json,http://54.89.209.186/DepthDuration/depth_discrimination_MTurk/DepthDiscrim_HTML.html#3,3,1280,938,1280,1024,7-20-2021,9-10-17,37,depth_discrimination_stimuli/002678_2014-06-13_16-15-32_094959634447_rgbf000151-resize_6/002678_2014-06-13_16-15-32_094959634447_rgbf000151-resize_6-target.png,depth_discrimination_stimuli/000927_2014-06-09_16-32-30_260595134347_rgbf000123-resize_3/000927_2014-06-09_16-32-30_260595134347_rgbf000123-resize_3-target.png,250,2.183,2.6785,1,1408,511,250,999,247,497,,,,,,1285182,1454842,68
278929,DepthScenes,duration_discrimination,discrim_jsons/shuffled_g0_rotated.json,http://54.89.209.186/DepthDuration/depth_discrimination_MTurk/DepthDiscrim_HTML.html#3,3,1280,938,1280,1024,7-20-2021,9-10-17,38,depth_discrimination_stimuli/002748_2014-06-22_19-07-22_094959634447_rgbf000078-resize_1/002748_2014-06-22_19-07-22_094959634447_rgbf000078-resize_1-target.png,depth_discrimination_stimuli/001808_2014-06-26_20-50-58_260595134347_rgbf000029-resize_1/001808_2014-06-26_20-50-58_260595134347_rgbf000029-resize_1-target.png,250,4.6705,4.249,1,2092,502,250,1013,248,499,,,,,,1285182,1454842,68
278929,DepthScenes,duration_discrimination,discrim_jsons/shuffled_g0_rotated.json,http://54.89.209.186/DepthDuration/depth_discrimination_MTurk/DepthDiscrim_HTML.html#3,3,1280,938,1280,1024,7-20-2021,9-10-17,39,depth_discrimination_stimuli/001133_2014-06-17_14-49-16_260595134347_rgbf000100-resize_0/001133_2014-06-17_14-49-16_260595134347_rgbf000100-resize_0-target.png,depth_discrimination_stimuli/002467_2014-06-28_20-38-07_260595134347_rgbf000026-resize_2/002467_2014-06-28_20-38-07_260595134347_rgbf000026-resize_2-target.png,250,4.2115,4.742,1,2765,503,250,1012,249,503,,,,,,1285182,1454842,68
278929,DepthScenes,duration_discrimination,discrim_jsons/shuffled_g0_rotated.json,http://54.89.209.186/DepthDuration/depth_discrimination_MTurk/DepthDiscrim_HTML.html#3,3,1280,938,1280,1024,7-20-2021,9-10-17,40,depth_discrimination_stimuli/003081_2014-06-15_15-19-16_094959634447_rgbf000150-resize_1/003081_2014-06-15_15-19-16_094959634447_rgbf000150-resize_1-target.png,depth_discrimination_stimuli/002660_2014-06-13_15-44-18_094959634447_rgbf001878-resize_2/002660_2014-06-13_15-44-18_094959634447_rgbf001878-resize_2-target.png,1000,3.9125,3.576,0,2520,507,998,995,1001,512,,,,,,1285182,1454842,68
278929,DepthScenes,duration_discrimination,discrim_jsons/shuffled_g0_rotated.json,http://54.89.209.186/DepthDuration/depth_discrimination_MTurk/DepthDiscrim_HTML.html#3,3,1280,938,1280,1024,7-20-2021,9-10-17,40,,,,,,,2520,507,998,995,1001,512,,,,,,1285182,1454842,68
278929,DepthScenes,duration_discrimination,discrim_jsons/shuffled_g0_rotated.json,http://54.89.209.186/DepthDuration/depth_discrimination_MTurk/DepthDiscrim_HTML.html#3,3,1263,938,1280,1024,7-20-2021,9-10-17,42,,,,,,,2520,507,998,995,1001,512,,3,3,depth_discrimination_stimuli/000409_2014-06-04_19-23-33_260595134347_rgbf000067-resize_0/000409_2014-06-04_19-23-33_260595134347_rgbf000067-resize-original.jpg,17804,1285182,1454842,68
278929,DepthScenes,duration_discrimination,discrim_jsons/shuffled_g0_rotated.json,http://54.89.209.186/DepthDuration/depth_discrimination_MTurk/DepthDiscrim_HTML.html#3,3,1263,938,1280,1024,7-20-2021,9-10-17,43,,,,,,,2520,507,998,995,1001,512,,2,2,depth_discrimination_stimuli/002340_2014-06-28_20-05-46_260595134347_rgbf000113-resize_0/002340_2014-06-28_20-05-46_260595134347_rgbf000113-resize-original.jpg,11189,1285182,1454842,68
278929,DepthScenes,duration_discrimination,discrim_jsons/shuffled_g0_rotated.json,http://54.89.209.186/DepthDuration/depth_discrimination_MTurk/DepthDiscrim_HTML.html#3,3,1263,938,1280,1024,7-20-2021,9-10-17,44,,,,,,,2520,507,998,995,1001,512,,2,3,depth_discrimination_stimuli/002549_2014-06-24_13-41-39_094959634447_rgbf000022-resize_3/002549_2014-06-24_13-41-39_094959634447_rgbf000022-resize-original.jpg,13452,1285182,1454842,68
278929,DepthScenes,duration_discrimination,discrim_jsons/shuffled_g0_rotated.json,http://54.89.209.186/DepthDuration/depth_discrimination_MTurk/DepthDiscrim_HTML.html#3,3,1263,938,1280,1024,7-20-2021,9-10-17,45,,,,,,,2520,507,998,995,1001,512,,3,4,depth_discrimination_stimuli/001571_2014-06-20_17-21-32_260595134347_rgbf000089-resize_1/001571_2014-06-20_17-21-32_260595134347_rgbf000089-resize-original.jpg,5548,1285182,1454842,68
278929,DepthScenes,duration_discrimination,discrim_jsons/shuffled_g0_rotated.json,http://54.89.209.186/DepthDuration/depth_discrimination_MTurk/DepthDiscrim_HTML.html#3,3,1263,938,1280,1024,7-20-2021,9-10-17,46,,,,,,,2520,507,998,995,1001,512,,3,5,depth_discrimination_stimuli/001449_2014-06-19_17-01-27_260595134347_rgbf000116-resize_2/001449_2014-06-19_17-01-27_260595134347_rgbf000116-resize-original.jpg,6636,1285182,1454842,68
278929,DepthScenes,duration_discrimination,discrim_jsons/shuffled_g0_rotated.json,http://54.89.209.186/DepthDuration/depth_discrimination_MTurk/DepthDiscrim_HTML.html#3,3,1263,938,1280,1024,7-20-2021,9-10-17,47,,,,,,,2520,507,998,995,1001,512,,5,3,depth_discrimination_stimuli/002118_2014-06-25_20-32-08_260595134347_rgbf000078-resize_1/002118_2014-06-25_20-32-08_260595134347_rgbf000078-resize-original.jpg,12377,1285182,1454842,68
278929,DepthScenes,duration_discrimination,discrim_jsons/shuffled_g0_rotated.json,http://54.89.209.186/DepthDuration/depth_discrimination_MTurk/DepthDiscrim_HTML.html#3,3,1263,938,1280,1024,7-20-2021,9-10-17,48,,,,,,,2520,507,998,995,1001,512,,3,1,depth_discrimination_stimuli/000773_2014-06-08_22-24-54_260595134347_rgbf000093-resize_1/000773_2014-06-08_22-24-54_260595134347_rgbf000093-resize-original.jpg,6471,1285182,1454842,68
278929,DepthScenes,duration_discrimination,discrim_jsons/shuffled_g0_rotated.json,http://54.89.209.186/DepthDuration/depth_discrimination_MTurk/DepthDiscrim_HTML.html#3,3,1263,938,1280,1024,7-20-2021,9-10-17,49,,,,,,,2520,507,998,995,1001,512,,2,1,depth_discrimination_stimuli/002579_2014-06-24_14-08-03_094959634447_rgbf000061-resize_2/002579_2014-06-24_14-08-03_094959634447_rgbf000061-resize-original.jpg,3609,1285182,1454842,68
278929,DepthScenes,duration_discrimination,discrim_jsons/shuffled_g0_rotated.json,http://54.89.209.186/DepthDuration/depth_discrimination_MTurk/DepthDiscrim_HTML.html#3,3,1263,938,1280,1024,7-20-2021,9-10-17,50,,,,,,,2520,507,998,995,1001,512,,2,2,depth_discrimination_stimuli/001056_2014-06-08_18-46-44_260595134347_rgbf000068-resize_0/001056_2014-06-08_18-46-44_260595134347_rgbf000068-resize-original.jpg,4590,1285182,1454842,68
278929,DepthScenes,duration_discrimination,discrim_jsons/shuffled_g0_rotated.json,http://54.89.209.186/DepthDuration/depth_discrimination_MTurk/DepthDiscrim_HTML.html#3,3,1263,938,1280,1024,7-20-2021,9-10-17,51,,,,,,,2520,507,998,995,1001,512,,3,3,depth_discrimination_stimuli/003490_2014-05-21_15-50-11_094959634447_rgbf000101-resize_3/003490_2014-05-21_15-50-11_094959634447_rgbf000101-resize-original.jpg,6318,1285182,1454842,68
278929,DepthScenes,duration_discrimination,discrim_jsons/shuffled_g0_rotated.json,http://54.89.209.186/DepthDuration/depth_discrimination_MTurk/DepthDiscrim_HTML.html#3,3,1263,938,1280,1024,7-20-2021,9-10-17,52,,,,,,,2520,507,998,995,1001,512,,3,4,depth_discrimination_stimuli/002725_2014-06-22_11-47-51_094959634447_rgbf000070-resize_1/002725_2014-06-22_11-47-51_094959634447_rgbf000070-resize-original.jpg,5594,1285182,1454842,68
278929,DepthScenes,duration_discrimination,discrim_jsons/shuffled_g0_rotated.json,http://54.89.209.186/DepthDuration/depth_discrimination_MTurk/DepthDiscrim_HTML.html#3,3,1263,938,1280,1024,7-20-2021,9-10-17,53,,,,,,,2520,507,998,995,1001,512,,4,3,depth_discrimination_stimuli/002600_2014-06-24_14-27-04_094959634447_rgbf000074-resize_2/002600_2014-06-24_14-27-04_094959634447_rgbf000074-resize-original.jpg,9701,1285182,1454842,68
278929,DepthScenes,duration_discrimination,discrim_jsons/shuffled_g0_rotated.json,http://54.89.209.186/DepthDuration/depth_discrimination_MTurk/DepthDiscrim_HTML.html#3,3,1263,938,1280,1024,7-20-2021,9-10-17,54,,,,,,,2520,507,998,995,1001,512,,1,2,scene_property_catch_stimuli/000675_2014-06-08_22-59-18_260595134347_rgbf000096-resize.jpg,4714,1285182,1454842,68
278929,DepthScenes,duration_discrimination,discrim_jsons/shuffled_g0_rotated.json,http://54.89.209.186/DepthDuration/depth_discrimination_MTurk/DepthDiscrim_HTML.html#3,3,1263,938,1280,1024,7-20-2021,9-10-17,55,,,,,,,2520,507,998,995,1001,512,,3,4,depth_discrimination_stimuli/002103_2014-06-25_20-00-40_260595134347_rgbf000049-resize_0/002103_2014-06-25_20-00-40_260595134347_rgbf000049-resize-original.jpg,4193,1285182,1454842,68
278929,DepthScenes,duration_discrimination,discrim_jsons/shuffled_g0_rotated.json,http://54.89.209.186/DepthDuration/depth_discrimination_MTurk/DepthDiscrim_HTML.html#3,3,1263,938,1280,1024,7-20-2021,9-10-17,56,,,,,,,2520,507,998,995,1001,512,,4,2,depth_discrimination_stimuli/003423_2014-05-21_10-23-26_094959634447_rgbf002665-resize_2/003423_2014-05-21_10-23-26_094959634447_rgbf002665-resize-original.jpg,4888,1285182,1454842,68
278929,DepthScenes,duration_discrimination,discrim_jsons/shuffled_g0_rotated.json,http://54.89.209.186/DepthDuration/depth_discrimination_MTurk/DepthDiscrim_HTML.html#3,3,1263,938,1280,1024,7-20-2021,9-10-17,57,,,,,,,2520,507,998,995,1001,512,,2,1,depth_discrimination_stimuli/000109_2014-05-14_23-41-52_260595134347_rgbf000035-resize_9/000109_2014-05-14_23-41-52_260595134347_rgbf000035-resize-original.jpg,5445,1285182,1454842,68
278929,DepthScenes,duration_discrimination,discrim_jsons/shuffled_g0_rotated.json,http://54.89.209.186/DepthDuration/depth_discrimination_MTurk/DepthDiscrim_HTML.html#3,3,1263,938,1280,1024,7-20-2021,9-10-17,58,,,,,,,2520,507,998,995,1001,512,,3,2,depth_discrimination_stimuli/000869_2014-06-09_20-50-18_260595134347_rgbf000060-resize_3/000869_2014-06-09_20-50-18_260595134347_rgbf000060-resize-original.jpg,7718,1285182,1454842,68
278929,DepthScenes,duration_discrimination,discrim_jsons/shuffled_g0_rotated.json,http://54.89.209.186/DepthDuration/depth_discrimination_MTurk/DepthDiscrim_HTML.html#3,3,1263,938,1280,1024,7-20-2021,9-10-17,59,,,,,,,2520,507,998,995,1001,512,,2,2,depth_discrimination_stimuli/001244_2014-06-17_16-47-45_260595134347_rgbf000030-resize_4/001244_2014-06-17_16-47-45_260595134347_rgbf000030-resize-original.jpg,5087,1285182,1454842,68
278929,DepthScenes,duration_discrimination,discrim_jsons/shuffled_g0_rotated.json,http://54.89.209.186/DepthDuration/depth_discrimination_MTurk/DepthDiscrim_HTML.html#3,3,1263,938,1280,1024,7-20-2021,9-10-17,60,,,,,,,2520,507,998,995,1001,512,,3,3,depth_discrimination_stimuli/002748_2014-06-22_19-07-22_094959634447_rgbf000078-resize_1/002748_2014-06-22_19-07-22_094959634447_rgbf000078-resize-original.jpg,9733,1285182,1454842,68
278929,DepthScenes,duration_discrimination,discrim_jsons/shuffled_g0_rotated.json,http://54.89.209.186/DepthDuration/depth_discrimination_MTurk/DepthDiscrim_HTML.html#3,3,1263,938,1280,1024,7-20-2021,9-10-17,61,,,,,,,2520,507,998,995,1001,512,,4,3,depth_discrimination_stimuli/001650_2014-06-20_12-09-00_260595134347_rgbf000087-resize_3/001650_2014-06-20_12-09-00_260595134347_rgbf000087-resize-original.jpg,3837,1285182,1454842,68
278929,DepthScenes,duration_discrimination,discrim_jsons/shuffled_g0_rotated.json,http://54.89.209.186/DepthDuration/depth_discrimination_MTurk/DepthDiscrim_HTML.html#3,3,1263,938,1280,1024,7-20-2021,9-10-17,62,,,,,,,2520,507,998,995,1001,512,,2,2,depth_discrimination_stimuli/000810_2014-06-08_17-20-01_260595134347_rgbf000105-resize_0/000810_2014-06-08_17-20-01_260595134347_rgbf000105-resize-original.jpg,4216,1285182,1454842,68
278929,DepthScenes,duration_discrimination,discrim_jsons/shuffled_g0_rotated.json,http://54.89.209.186/DepthDuration/depth_discrimination_MTurk/DepthDiscrim_HTML.html#3,3,1263,938,1280,1024,7-20-2021,9-10-17,63,,,,,,,2520,507,998,995,1001,512,,2,4,depth_discrimination_stimuli/002784_2014-06-22_19-26-30_094959634447_rgbf000083-resize_3/002784_2014-06-22_19-26-30_094959634447_rgbf000083-resize-original.jpg,4248,1285182,1454842,68
278929,DepthScenes,duration_discrimination,discrim_jsons/shuffled_g0_rotated.json,http://54.89.209.186/DepthDuration/depth_discrimination_MTurk/DepthDiscrim_HTML.html#3,3,1263,938,1280,1024,7-20-2021,9-10-17,64,,,,,,,2520,507,998,995,1001,512,,2,1,depth_discrimination_stimuli/002057_2014-06-24_21-00-13_260595134347_rgbf000120-resize_1/002057_2014-06-24_21-00-13_260595134347_rgbf000120-resize-original.jpg,9298,1285182,1454842,68
278929,DepthScenes,duration_discrimination,discrim_jsons/shuffled_g0_rotated.json,http://54.89.209.186/DepthDuration/depth_discrimination_MTurk/DepthDiscrim_HTML.html#3,3,1263,938,1280,1024,7-20-2021,9-10-17,65,,,,,,,2520,507,998,995,1001,512,,3,2,depth_discrimination_stimuli/000483_2014-06-09_20-41-45_260595134347_rgbf000116-resize_4/000483_2014-06-09_20-41-45_260595134347_rgbf000116-resize-original.jpg,8420,1285182,1454842,68
278929,DepthScenes,duration_discrimination,discrim_jsons/shuffled_g0_rotated.json,http://54.89.209.186/DepthDuration/depth_discrimination_MTurk/DepthDiscrim_HTML.html#3,3,1263,938,1280,1024,7-20-2021,9-10-17,66,,,,,,,2520,507,998,995,1001,512,,4,3,depth_discrimination_stimuli/001181_2014-06-17_15-50-57_260595134347_rgbf000106-resize_4/001181_2014-06-17_15-50-57_260595134347_rgbf000106-resize-original.jpg,4078,1285182,1454842,68
278929,DepthScenes,duration_discrimination,discrim_jsons/shuffled_g0_rotated.json,http://54.89.209.186/DepthDuration/depth_discrimination_MTurk/DepthDiscrim_HTML.html#3,3,1263,938,1280,1024,7-20-2021,9-10-17,67,,,,,,,2520,507,998,995,1001,512,,3,3,depth_discrimination_stimuli/000677_2014-06-08_23-10-32_260595134347_rgbf000158-resize_6/000677_2014-06-08_23-10-32_260595134347_rgbf000158-resize-original.jpg,4310,1285182,1454842,68
278929,DepthScenes,duration_discrimination,discrim_jsons/shuffled_g0_rotated.json,http://54.89.209.186/DepthDuration/depth_discrimination_MTurk/DepthDiscrim_HTML.html#3,3,1263,938,1280,1024,7-20-2021,9-10-17,68,,,,,,,2520,507,998,995,1001,512,,3,2,depth_discrimination_stimuli/002663_2014-06-13_15-50-26_094959634447_rgbf000075-resize_1/002663_2014-06-13_15-50-26_094959634447_rgbf000075-resize-original.jpg,5362,1285182,1454842,68
278929,DepthScenes,duration_discrimination,discrim_jsons/shuffled_g0_rotated.json,http://54.89.209.186/DepthDuration/depth_discrimination_MTurk/DepthDiscrim_HTML.html#3,3,1263,938,1280,1024,7-20-2021,9-10-17,69,,,,,,,2520,507,998,995,1001,512,,4,2,depth_discrimination_stimuli/003069_2014-06-15_14-57-50_094959634447_rgbf000150-resize_4/003069_2014-06-15_14-57-50_094959634447_rgbf000150-resize-original.jpg,6743,1285182,1454842,68
278929,DepthScenes,duration_discrimination,discrim_jsons/shuffled_g0_rotated.json,http://54.89.209.186/DepthDuration/depth_discrimination_MTurk/DepthDiscrim_HTML.html#3,3,1263,938,1280,1024,7-20-2021,9-10-17,70,,,,,,,2520,507,998,995,1001,512,,4,2,depth_discrimination_stimuli/002460_2014-06-28_20-35-43_260595134347_rgbf000028-resize_4/002460_2014-06-28_20-35-43_260595134347_rgbf000028-resize-original.jpg,5244,1285182,1454842,68
278929,DepthScenes,duration_discrimination,discrim_jsons/shuffled_g0_rotated.json,http://54.89.209.186/DepthDuration/depth_discrimination_MTurk/DepthDiscrim_HTML.html#3,3,1263,938,1280,1024,7-20-2021,9-10-17,71,,,,,,,2520,507,998,995,1001,512,,2,3,depth_discrimination_stimuli/001059_2014-06-08_21-53-27_260595134347_rgbf000061-resize_4/001059_2014-06-08_21-53-27_260595134347_rgbf000061-resize-original.jpg,5160,1285182,1454842,68
278929,DepthScenes,duration_discrimination,discrim_jsons/shuffled_g0_rotated.json,http://54.89.209.186/DepthDuration/depth_discrimination_MTurk/DepthDiscrim_HTML.html#3,3,1263,938,1280,1024,7-20-2021,9-10-17,72,,,,,,,2520,507,998,995,1001,512,,1,3,depth_discrimination_stimuli/000943_2014-06-09_19-31-07_260595134347_rgbf000128-resize_1/000943_2014-06-09_19-31-07_260595134347_rgbf000128-resize-original.jpg,6014,1285182,1454842,68
278929,DepthScenes,duration_discrimination,discrim_jsons/shuffled_g0_rotated.json,http://54.89.209.186/DepthDuration/depth_discrimination_MTurk/DepthDiscrim_HTML.html#3,3,1263,938,1280,1024,7-20-2021,9-10-17,73,,,,,,,2520,507,998,995,1001,512,,3,2,depth_discrimination_stimuli/002790_2014-06-22_19-36-35_094959634447_rgbf000074-resize_4/002790_2014-06-22_19-36-35_094959634447_rgbf000074-resize-original.jpg,3478,1285182,1454842,68
278929,DepthScenes,duration_discrimination,discrim_jsons/shuffled_g0_rotated.json,http://54.89.209.186/DepthDuration/depth_discrimination_MTurk/DepthDiscrim_HTML.html#3,3,1263,938,1280,1024,7-20-2021,9-10-17,74,,,,,,,2520,507,998,995,1001,512,,3,1,depth_discrimination_stimuli/002953_2014-06-08_17-32-18_094959634447_rgbf000059-resize_5/002953_2014-06-08_17-32-18_094959634447_rgbf000059-resize-original.jpg,4977,1285182,1454842,68
278929,DepthScenes,duration_discrimination,discrim_jsons/shuffled_g0_rotated.json,http://54.89.209.186/DepthDuration/depth_discrimination_MTurk/DepthDiscrim_HTML.html#3,3,1263,938,1280,1024,7-20-2021,9-10-17,75,,,,,,,2520,507,998,995,1001,512,,3,4,depth_discrimination_stimuli/003079_2014-06-15_15-18-20_094959634447_rgbf000152-resize_8/003079_2014-06-15_15-18-20_094959634447_rgbf000152-resize-original.jpg,3945,1285182,1454842,68
278929,DepthScenes,duration_discrimination,discrim_jsons/shuffled_g0_rotated.json,http://54.89.209.186/DepthDuration/depth_discrimination_MTurk/DepthDiscrim_HTML.html#3,3,1263,938,1280,1024,7-20-2021,9-10-17,76,,,,,,,2520,507,998,995,1001,512,,3,2,depth_discrimination_stimuli/002788_2014-06-22_19-36-03_094959634447_rgbf000088-resize_2/002788_2014-06-22_19-36-03_094959634447_rgbf000088-resize-original.jpg,3906,1285182,1454842,68
278929,DepthScenes,duration_discrimination,discrim_jsons/shuffled_g0_rotated.json,http://54.89.209.186/DepthDuration/depth_discrimination_MTurk/DepthDiscrim_HTML.html#3,3,1263,938,1280,1024,7-20-2021,9-10-17,77,,,,,,,2520,507,998,995,1001,512,,3,3,depth_discrimination_stimuli/000753_2014-06-08_21-57-44_260595134347_rgbf000123-resize_3/000753_2014-06-08_21-57-44_260595134347_rgbf000123-resize-original.jpg,3765,1285182,1454842,68
278929,DepthScenes,duration_discrimination,discrim_jsons/shuffled_g0_rotated.json,http://54.89.209.186/DepthDuration/depth_discrimination_MTurk/DepthDiscrim_HTML.html#3,3,1263,938,1280,1024,7-20-2021,9-10-17,78,,,,,,,2520,507,998,995,1001,512,,3,2,depth_discrimination_stimuli/000929_2014-06-09_16-33-19_260595134347_rgbf000139-resize_0/000929_2014-06-09_16-33-19_260595134347_rgbf000139-resize-original.jpg,4054,1285182,1454842,68
278929,DepthScenes,duration_discrimination,discrim_jsons/shuffled_g0_rotated.json,http://54.89.209.186/DepthDuration/depth_discrimination_MTurk/DepthDiscrim_HTML.html#3,3,1263,938,1280,1024,7-20-2021,9-10-17,79,,,,,,,2520,507,998,995,1001,512,,4,3,depth_discrimination_stimuli/002989_2014-06-15_12-25-03_094959634447_rgbf000150-resize_3/002989_2014-06-15_12-25-03_094959634447_rgbf000150-resize-original.jpg,5865,1285182,1454842,68
278929,DepthScenes,duration_discrimination,discrim_jsons/shuffled_g0_rotated.json,http://54.89.209.186/DepthDuration/depth_discrimination_MTurk/DepthDiscrim_HTML.html#3,3,1263,938,1280,1024,7-20-2021,9-10-17,80,,,,,,,2520,507,998,995,1001,512,,3,2,depth_discrimination_stimuli/002758_2014-06-22_19-11-20_094959634447_rgbf000128-resize_1/002758_2014-06-22_19-11-20_094959634447_rgbf000128-resize-original.jpg,3407,1285182,1454842,68
278929,DepthScenes,duration_discrimination,discrim_jsons/shuffled_g0_rotated.json,http://54.89.209.186/DepthDuration/depth_discrimination_MTurk/DepthDiscrim_HTML.html#3,3,1263,938,1280,1024,7-20-2021,9-10-17,81,,,,,,,2520,507,998,995,1001,512,,3,3,depth_discrimination_stimuli/001197_2014-06-17_16-01-50_260595134347_rgbf000103-resize_4/001197_2014-06-17_16-01-50_260595134347_rgbf000103-resize-original.jpg,4722,1285182,1454842,68
278929,DepthScenes,duration_discrimination,discrim_jsons/shuffled_g0_rotated.json,http://54.89.209.186/DepthDuration/depth_discrimination_MTurk/DepthDiscrim_HTML.html#3,3,1263,938,1280,1024,7-20-2021,9-10-17,82,,,,,,,2520,507,998,995,1001,512,,3,3,depth_discrimination_stimuli/002637_2014-06-24_14-51-13_094959634447_rgbf000066-resize_4/002637_2014-06-24_14-51-13_094959634447_rgbf000066-resize-original.jpg,3415,1285182,1454842,68
278929,DepthScenes,duration_discrimination,discrim_jsons/shuffled_g0_rotated.json,http://54.89.209.186/DepthDuration/depth_discrimination_MTurk/DepthDiscrim_HTML.html#3,3,1263,938,1280,1024,7-20-2021,9-10-17,83,,,,,,,2520,507,998,995,1001,512,,5,2,depth_discrimination_stimuli/002468_2014-06-28_20-38-39_260595134347_rgbf000045-resize_1/002468_2014-06-28_20-38-39_260595134347_rgbf000045-resize-original.jpg,7803,1285182,1454842,68
278929,DepthScenes,duration_discrimination,discrim_jsons/shuffled_g0_rotated.json,http://54.89.209.186/DepthDuration/depth_discrimination_MTurk/DepthDiscrim_HTML.html#3,3,1263,938,1280,1024,7-20-2021,9-10-17,84,,,,,,,2520,507,998,995,1001,512,,3,5,depth_discrimination_stimuli/002805_2014-06-22_19-54-03_094959634447_rgbf000079-resize_1/002805_2014-06-22_19-54-03_094959634447_rgbf000079-resize-original.jpg,5780,1285182,1454842,68
278929,DepthScenes,duration_discrimination,discrim_jsons/shuffled_g0_rotated.json,http://54.89.209.186/DepthDuration/depth_discrimination_MTurk/DepthDiscrim_HTML.html#3,3,1263,938,1280,1024,7-20-2021,9-10-17,85,,,,,,,2520,507,998,995,1001,512,,3,4,depth_discrimination_stimuli/001094_2014-06-15_17-36-00_260595134347_rgbf000205-resize_0/001094_2014-06-15_17-36-00_260595134347_rgbf000205-resize-original.jpg,5843,1285182,1454842,68
278929,DepthScenes,duration_discrimination,discrim_jsons/shuffled_g0_rotated.json,http://54.89.209.186/DepthDuration/depth_discrimination_MTurk/DepthDiscrim_HTML.html#3,3,1263,938,1280,1024,7-20-2021,9-10-17,86,,,,,,,2520,507,998,995,1001,512,,3,2,depth_discrimination_stimuli/000436_2014-06-09_22-25-11_260595134347_rgbf000137-resize_1/000436_2014-06-09_22-25-11_260595134347_rgbf000137-resize-original.jpg,4745,1285182,1454842,68
278929,DepthScenes,duration_discrimination,discrim_jsons/shuffled_g0_rotated.json,http://54.89.209.186/DepthDuration/depth_discrimination_MTurk/DepthDiscrim_HTML.html#3,3,1263,938,1280,1024,7-20-2021,9-10-17,87,,,,,,,2520,507,998,995,1001,512,,3,4,depth_discrimination_stimuli/001828_2014-06-26_21-40-03_260595134347_rgbf000024-resize_0/001828_2014-06-26_21-40-03_260595134347_rgbf000024-resize-original.jpg,3330,1285182,1454842,68
278929,DepthScenes,duration_discrimination,discrim_jsons/shuffled_g0_rotated.json,http://54.89.209.186/DepthDuration/depth_discrimination_MTurk/DepthDiscrim_HTML.html#3,3,1263,938,1280,1024,7-20-2021,9-10-17,88,,,,,,,2520,507,998,995,1001,512,,3,4,depth_discrimination_stimuli/000682_2014-06-08_23-14-58_260595134347_rgbf000041-resize_5/000682_2014-06-08_23-14-58_260595134347_rgbf000041-resize-original.jpg,7080,1285182,1454842,68
278929,DepthScenes,duration_discrimination,discrim_jsons/shuffled_g0_rotated.json,http://54.89.209.186/DepthDuration/depth_discrimination_MTurk/DepthDiscrim_HTML.html#3,3,1263,938,1280,1024,7-20-2021,9-10-17,89,,,,,,,2520,507,998,995,1001,512,,4,4,depth_discrimination_stimuli/001110_2014-06-15_17-25-28_260595134347_rgbf000150-resize_1/001110_2014-06-15_17-25-28_260595134347_rgbf000150-resize-original.jpg,4716,1285182,1454842,68
278929,DepthScenes,duration_discrimination,discrim_jsons/shuffled_g0_rotated.json,http://54.89.209.186/DepthDuration/depth_discrimination_MTurk/DepthDiscrim_HTML.html#3,3,1263,938,1280,1024,7-20-2021,9-10-17,90,,,,,,,2520,507,998,995,1001,512,,4,2,depth_discrimination_stimuli/002509_2014-06-24_13-19-22_094959634447_rgbf000077-resize_0/002509_2014-06-24_13-19-22_094959634447_rgbf000077-resize-original.jpg,8301,1285182,1454842,68
278929,DepthScenes,duration_discrimination,discrim_jsons/shuffled_g0_rotated.json,http://54.89.209.186/DepthDuration/depth_discrimination_MTurk/DepthDiscrim_HTML.html#3,3,1263,938,1280,1024,7-20-2021,9-10-17,91,,,,,,,2520,507,998,995,1001,512,,2,3,depth_discrimination_stimuli/002131_2014-06-25_21-12-01_260595134347_rgbf000083-resize_0/002131_2014-06-25_21-12-01_260595134347_rgbf000083-resize-original.jpg,3666,1285182,1454842,68
278929,DepthScenes,duration_discrimination,discrim_jsons/shuffled_g0_rotated.json,http://54.89.209.186/DepthDuration/depth_discrimination_MTurk/DepthDiscrim_HTML.html#3,3,1263,938,1280,1024,7-20-2021,9-10-17,92,,,,,,,2520,507,998,995,1001,512,,2,3,depth_discrimination_stimuli/001016_2014-06-09_16-16-10_260595134347_rgbf000112-resize_5/001016_2014-06-09_16-16-10_260595134347_rgbf000112-resize-original.jpg,3725,1285182,1454842,68
278929,DepthScenes,duration_discrimination,discrim_jsons/shuffled_g0_rotated.json,http://54.89.209.186/DepthDuration/depth_discrimination_MTurk/DepthDiscrim_HTML.html#3,3,1263,938,1280,1024,7-20-2021,9-10-17,93,,,,,,,2520,507,998,995,1001,512,,5,5,scene_property_catch_stimuli/sun_aoquhiddlfqapdlz.jpg,3720,1285182,1454842,68
278929,DepthScenes,duration_discrimination,discrim_jsons/shuffled_g0_rotated.json,http://54.89.209.186/DepthDuration/depth_discrimination_MTurk/DepthDiscrim_HTML.html#3,3,1263,938,1280,1024,7-20-2021,9-10-17,94,,,,,,,2520,507,998,995,1001,512,,3,3,depth_discrimination_stimuli/003292_2014-05-14_21-53-49_094959634447_rgbf000100-resize_2/003292_2014-05-14_21-53-49_094959634447_rgbf000100-resize-original.jpg,5959,1285182,1454842,68
278929,DepthScenes,duration_discrimination,discrim_jsons/shuffled_g0_rotated.json,http://54.89.209.186/DepthDuration/depth_discrimination_MTurk/DepthDiscrim_HTML.html#3,3,1263,938,1280,1024,7-20-2021,9-10-17,95,,,,,,,2520,507,998,995,1001,512,,3,2,depth_discrimination_stimuli/003492_2014-05-21_15-50-55_094959634447_rgbf000828-resize_1/003492_2014-05-21_15-50-55_094959634447_rgbf000828-resize-original.jpg,3650,1285182,1454842,68
278929,DepthScenes,duration_discrimination,discrim_jsons/shuffled_g0_rotated.json,http://54.89.209.186/DepthDuration/depth_discrimination_MTurk/DepthDiscrim_HTML.html#3,3,1263,938,1280,1024,7-20-2021,9-10-17,96,,,,,,,2520,507,998,995,1001,512,,3,1,depth_discrimination_stimuli/002660_2014-06-13_15-44-18_094959634447_rgbf001878-resize_2/002660_2014-06-13_15-44-18_094959634447_rgbf001878-resize-original.jpg,5126,1285182,1454842,68
278929,DepthScenes,duration_discrimination,discrim_jsons/shuffled_g0_rotated.json,http://54.89.209.186/DepthDuration/depth_discrimination_MTurk/DepthDiscrim_HTML.html#3,3,1263,938,1280,1024,7-20-2021,9-10-17,97,,,,,,,2520,507,998,995,1001,512,,5,2,scene_property_catch_stimuli/sun_aatxlublfjchvvzu.jpg,5906,1285182,1454842,68
278929,DepthScenes,duration_discrimination,discrim_jsons/shuffled_g0_rotated.json,http://54.89.209.186/DepthDuration/depth_discrimination_MTurk/DepthDiscrim_HTML.html#3,3,1263,938,1280,1024,7-20-2021,9-10-17,98,,,,,,,2520,507,998,995,1001,512,,4,3,depth_discrimination_stimuli/000749_2014-06-08_21-55-06_260595134347_rgbf000070-resize_2/000749_2014-06-08_21-55-06_260595134347_rgbf000070-resize-original.jpg,5080,1285182,1454842,68
278929,DepthScenes,duration_discrimination,discrim_jsons/shuffled_g0_rotated.json,http://54.89.209.186/DepthDuration/depth_discrimination_MTurk/DepthDiscrim_HTML.html#3,3,1263,938,1280,1024,7-20-2021,9-10-17,99,,,,,,,2520,507,998,995,1001,512,,3,2,depth_discrimination_stimuli/001167_2014-06-17_15-38-07_260595134347_rgbf000108-resize_0/001167_2014-06-17_15-38-07_260595134347_rgbf000108-resize-original.jpg,4756,1285182,1454842,68
278929,DepthScenes,duration_discrimination,discrim_jsons/shuffled_g0_rotated.json,http://54.89.209.186/DepthDuration/depth_discrimination_MTurk/DepthDiscrim_HTML.html#3,3,1263,938,1280,1024,7-20-2021,9-10-17,100,,,,,,,2520,507,998,995,1001,512,,4,2,depth_discrimination_stimuli/000642_2014-06-08_16-59-25_260595134347_rgbf000098-resize_2/000642_2014-06-08_16-59-25_260595134347_rgbf000098-resize-original.jpg,4171,1285182,1454842,68
278929,DepthScenes,duration_discrimination,discrim_jsons/shuffled_g0_rotated.json,http://54.89.209.186/DepthDuration/depth_discrimination_MTurk/DepthDiscrim_HTML.html#3,3,1263,938,1280,1024,7-20-2021,9-10-17,101,,,,,,,2520,507,998,995,1001,512,,2,3,depth_discrimination_stimuli/001164_2014-06-17_15-35-46_260595134347_rgbf000085-resize_3/001164_2014-06-17_15-35-46_260595134347_rgbf000085-resize-original.jpg,3860,1285182,1454842,68
278929,DepthScenes,duration_discrimination,discrim_jsons/shuffled_g0_rotated.json,http://54.89.209.186/DepthDuration/depth_discrimination_MTurk/DepthDiscrim_HTML.html#3,3,1263,938,1280,1024,7-20-2021,9-10-17,102,,,,,,,2520,507,998,995,1001,512,,2,2,depth_discrimination_stimuli/002763_2014-06-22_19-13-10_094959634447_rgbf000075-resize_4/002763_2014-06-22_19-13-10_094959634447_rgbf000075-resize-original.jpg,4791,1285182,1454842,68
278929,DepthScenes,duration_discrimination,discrim_jsons/shuffled_g0_rotated.json,http://54.89.209.186/DepthDuration/depth_discrimination_MTurk/DepthDiscrim_HTML.html#3,3,1263,938,1280,1024,7-20-2021,9-10-17,103,,,,,,,2520,507,998,995,1001,512,,2,4,depth_discrimination_stimuli/002136_2014-06-25_21-18-03_260595134347_rgbf000109-resize_3/002136_2014-06-25_21-18-03_260595134347_rgbf000109-resize-original.jpg,5268,1285182,1454842,68
278929,DepthScenes,duration_discrimination,discrim_jsons/shuffled_g0_rotated.json,http://54.89.209.186/DepthDuration/depth_discrimination_MTurk/DepthDiscrim_HTML.html#3,3,1263,938,1280,1024,7-20-2021,9-10-17,104,,,,,,,2520,507,998,995,1001,512,,4,2,depth_discrimination_stimuli/002199_2014-06-28_18-33-56_260595134347_rgbf000074-resize_0/002199_2014-06-28_18-33-56_260595134347_rgbf000074-resize-original.jpg,4629,1285182,1454842,68
278929,DepthScenes,duration_discrimination,discrim_jsons/shuffled_g0_rotated.json,http://54.89.209.186/DepthDuration/depth_discrimination_MTurk/DepthDiscrim_HTML.html#3,3,1263,938,1280,1024,7-20-2021,9-10-17,105,,,,,,,2520,507,998,995,1001,512,,4,2,depth_discrimination_stimuli/000522_2014-06-08_13-35-06_260595134347_rgbf000244-resize_1/000522_2014-06-08_13-35-06_260595134347_rgbf000244-resize-original.jpg,4669,1285182,1454842,68
278929,DepthScenes,duration_discrimination,discrim_jsons/shuffled_g0_rotated.json,http://54.89.209.186/DepthDuration/depth_discrimination_MTurk/DepthDiscrim_HTML.html#3,3,1263,938,1280,1024,7-20-2021,9-10-17,106,,,,,,,2520,507,998,995,1001,512,,4,3,depth_discrimination_stimuli/000493_2014-06-09_21-01-18_260595134347_rgbf000196-resize_3/000493_2014-06-09_21-01-18_260595134347_rgbf000196-resize-original.jpg,7035,1285182,1454842,68
278929,DepthScenes,duration_discrimination,discrim_jsons/shuffled_g0_rotated.json,http://54.89.209.186/DepthDuration/depth_discrimination_MTurk/DepthDiscrim_HTML.html#3,3,1263,938,1280,1024,7-20-2021,9-10-17,107,,,,,,,2520,507,998,995,1001,512,,5,2,depth_discrimination_stimuli/000736_2014-06-08_18-24-15_260595134347_rgbf000206-resize_3/000736_2014-06-08_18-24-15_260595134347_rgbf000206-resize-original.jpg,7470,1285182,1454842,68
278929,DepthScenes,duration_discrimination,discrim_jsons/shuffled_g0_rotated.json,http://54.89.209.186/DepthDuration/depth_discrimination_MTurk/DepthDiscrim_HTML.html#3,3,1263,938,1280,1024,7-20-2021,9-10-17,108,,,,,,,2520,507,998,995,1001,512,,4,2,depth_discrimination_stimuli/000549_2014-06-08_22-10-24_260595134347_rgbf000247-resize_3/000549_2014-06-08_22-10-24_260595134347_rgbf000247-resize-original.jpg,5725,1285182,1454842,68
278929,DepthScenes,duration_discrimination,discrim_jsons/shuffled_g0_rotated.json,http://54.89.209.186/DepthDuration/depth_discrimination_MTurk/DepthDiscrim_HTML.html#3,3,1263,938,1280,1024,7-20-2021,9-10-17,109,,,,,,,2520,507,998,995,1001,512,,2,5,depth_discrimination_stimuli/002905_2014-06-03_18-04-43_094959634447_rgbf000151-resize_2/002905_2014-06-03_18-04-43_094959634447_rgbf000151-resize-original.jpg,4943,1285182,1454842,68
278929,DepthScenes,duration_discrimination,discrim_jsons/shuffled_g0_rotated.json,http://54.89.209.186/DepthDuration/depth_discrimination_MTurk/DepthDiscrim_HTML.html#3,3,1263,938,1280,1024,7-20-2021,9-10-17,110,,,,,,,2520,507,998,995,1001,512,,4,2,depth_discrimination_stimuli/002272_2014-06-28_18-53-56_260595134347_rgbf000067-resize_2/002272_2014-06-28_18-53-56_260595134347_rgbf000067-resize-original.jpg,5326,1285182,1454842,68
278929,DepthScenes,duration_discrimination,discrim_jsons/shuffled_g0_rotated.json,http://54.89.209.186/DepthDuration/depth_discrimination_MTurk/DepthDiscrim_HTML.html#3,3,1263,938,1280,1024,7-20-2021,9-10-17,111,,,,,,,2520,507,998,995,1001,512,,3,4,depth_discrimination_stimuli/002750_2014-06-22_19-08-03_094959634447_rgbf000094-resize_4/002750_2014-06-22_19-08-03_094959634447_rgbf000094-resize-original.jpg,5798,1285182,1454842,68
278929,DepthScenes,duration_discrimination,discrim_jsons/shuffled_g0_rotated.json,http://54.89.209.186/DepthDuration/depth_discrimination_MTurk/DepthDiscrim_HTML.html#3,3,1263,938,1280,1024,7-20-2021,9-10-17,112,,,,,,,2520,507,998,995,1001,512,,3,2,depth_discrimination_stimuli/003070_2014-06-15_14-58-27_094959634447_rgbf000150-resize_3/003070_2014-06-15_14-58-27_094959634447_rgbf000150-resize-original.jpg,5276,1285182,1454842,68
278929,DepthScenes,duration_discrimination,discrim_jsons/shuffled_g0_rotated.json,http://54.89.209.186/DepthDuration/depth_discrimination_MTurk/DepthDiscrim_HTML.html#3,3,1263,938,1280,1024,7-20-2021,9-10-17,113,,,,,,,2520,507,998,995,1001,512,,3,2,depth_discrimination_stimuli/001150_2014-06-17_15-27-34_260595134347_rgbf000108-resize_2/001150_2014-06-17_15-27-34_260595134347_rgbf000108-resize-original.jpg,5298,1285182,1454842,68
278929,DepthScenes,duration_discrimination,discrim_jsons/shuffled_g0_rotated.json,http://54.89.209.186/DepthDuration/depth_discrimination_MTurk/DepthDiscrim_HTML.html#3,3,1263,938,1280,1024,7-20-2021,9-10-17,114,,,,,,,2520,507,998,995,1001,512,,4,1,depth_discrimination_stimuli/000780_2014-06-08_22-28-29_260595134347_rgbf000126-resize_1/000780_2014-06-08_22-28-29_260595134347_rgbf000126-resize-original.jpg,4186,1285182,1454842,68
278929,DepthScenes,duration_discrimination,discrim_jsons/shuffled_g0_rotated.json,http://54.89.209.186/DepthDuration/depth_discrimination_MTurk/DepthDiscrim_HTML.html#3,3,1263,938,1280,1024,7-20-2021,9-10-17,115,,,,,,,2520,507,998,995,1001,512,,3,4,depth_discrimination_stimuli/001808_2014-06-26_20-50-58_260595134347_rgbf000029-resize_1/001808_2014-06-26_20-50-58_260595134347_rgbf000029-resize-original.jpg,3658,1285182,1454842,68
278929,DepthScenes,duration_discrimination,discrim_jsons/shuffled_g0_rotated.json,http://54.89.209.186/DepthDuration/depth_discrimination_MTurk/DepthDiscrim_HTML.html#3,3,1263,938,1280,1024,7-20-2021,9-10-17,116,,,,,,,2520,507,998,995,1001,512,,3,2,depth_discrimination_stimuli/002279_2014-06-28_18-55-32_260595134347_rgbf000040-resize_5/002279_2014-06-28_18-55-32_260595134347_rgbf000040-resize-original.jpg,4231,1285182,1454842,68
278929,DepthScenes,duration_discrimination,discrim_jsons/shuffled_g0_rotated.json,http://54.89.209.186/DepthDuration/depth_discrimination_MTurk/DepthDiscrim_HTML.html#3,3,1263,938,1280,1024,7-20-2021,9-10-17,117,,,,,,,2520,507,998,995,1001,512,,3,3,depth_discrimination_stimuli/000720_2014-06-08_18-37-27_260595134347_rgbf000203-resize_4/000720_2014-06-08_18-37-27_260595134347_rgbf000203-resize-original.jpg,3518,1285182,1454842,68
278929,DepthScenes,duration_discrimination,discrim_jsons/shuffled_g0_rotated.json,http://54.89.209.186/DepthDuration/depth_discrimination_MTurk/DepthDiscrim_HTML.html#3,3,1263,938,1280,1024,7-20-2021,9-10-17,118,,,,,,,2520,507,998,995,1001,512,,4,2,depth_discrimination_stimuli/001133_2014-06-17_14-49-16_260595134347_rgbf000100-resize_0/001133_2014-06-17_14-49-16_260595134347_rgbf000100-resize-original.jpg,5709,1285182,1454842,68
278929,DepthScenes,duration_discrimination,discrim_jsons/shuffled_g0_rotated.json,http://54.89.209.186/DepthDuration/depth_discrimination_MTurk/DepthDiscrim_HTML.html#3,3,1263,938,1280,1024,7-20-2021,9-10-17,119,,,,,,,2520,507,998,995,1001,512,,1,2,depth_discrimination_stimuli/000854_2014-06-09_19-43-13_260595134347_rgbf000066-resize_0/000854_2014-06-09_19-43-13_260595134347_rgbf000066-resize-original.jpg,4448,1285182,1454842,68
278929,DepthScenes,duration_discrimination,discrim_jsons/shuffled_g0_rotated.json,http://54.89.209.186/DepthDuration/depth_discrimination_MTurk/DepthDiscrim_HTML.html#3,3,1263,938,1280,1024,7-20-2021,9-10-17,120,,,,,,,2520,507,998,995,1001,512,,3,4,depth_discrimination_stimuli/000692_2014-06-08_13-09-42_260595134347_rgbf000199-resize_2/000692_2014-06-08_13-09-42_260595134347_rgbf000199-resize-original.jpg,5288,1285182,1454842,68
278929,DepthScenes,duration_discrimination,discrim_jsons/shuffled_g0_rotated.json,http://54.89.209.186/DepthDuration/depth_discrimination_MTurk/DepthDiscrim_HTML.html#3,3,1263,938,1280,1024,7-20-2021,9-10-17,121,,,,,,,2520,507,998,995,1001,512,,3,4,depth_discrimination_stimuli/002305_2014-06-28_19-56-50_260595134347_rgbf000102-resize_7/002305_2014-06-28_19-56-50_260595134347_rgbf000102-resize-original.jpg,4993,1285182,1454842,68
278929,DepthScenes,duration_discrimination,discrim_jsons/shuffled_g0_rotated.json,http://54.89.209.186/DepthDuration/depth_discrimination_MTurk/DepthDiscrim_HTML.html#3,3,1263,938,1280,1024,7-20-2021,9-10-17,122,,,,,,,2520,507,998,995,1001,512,,4,2,depth_discrimination_stimuli/003228_2014-05-14_13-42-35_094959634447_rgbf000101-resize_1/003228_2014-05-14_13-42-35_094959634447_rgbf000101-resize-original.jpg,4311,1285182,1454842,68
278929,DepthScenes,duration_discrimination,discrim_jsons/shuffled_g0_rotated.json,http://54.89.209.186/DepthDuration/depth_discrimination_MTurk/DepthDiscrim_HTML.html#3,3,1263,938,1280,1024,7-20-2021,9-10-17,123,,,,,,,2520,507,998,995,1001,512,,4,3,depth_discrimination_stimuli/000788_2014-06-08_22-34-36_260595134347_rgbf000131-resize_1/000788_2014-06-08_22-34-36_260595134347_rgbf000131-resize-original.jpg,4527,1285182,1454842,68
278929,DepthScenes,duration_discrimination,discrim_jsons/shuffled_g0_rotated.json,http://54.89.209.186/DepthDuration/depth_discrimination_MTurk/DepthDiscrim_HTML.html#3,3,1263,938,1280,1024,7-20-2021,9-10-17,124,,,,,,,2520,507,998,995,1001,512,,4,3,depth_discrimination_stimuli/000709_2014-06-08_13-51-55_260595134347_rgbf000068-resize_3/000709_2014-06-08_13-51-55_260595134347_rgbf000068-resize-original.jpg,4270,1285182,1454842,68
278929,DepthScenes,duration_discrimination,discrim_jsons/shuffled_g0_rotated.json,http://54.89.209.186/DepthDuration/depth_discrimination_MTurk/DepthDiscrim_HTML.html#3,3,1263,938,1280,1024,7-20-2021,9-10-17,125,,,,,,,2520,507,998,995,1001,512,,5,2,depth_discrimination_stimuli/001264_2014-06-16_16-10-23_260595134347_rgbf000109-resize_1/001264_2014-06-16_16-10-23_260595134347_rgbf000109-resize-original.jpg,6676,1285182,1454842,68
278929,DepthScenes,duration_discrimination,discrim_jsons/shuffled_g0_rotated.json,http://54.89.209.186/DepthDuration/depth_discrimination_MTurk/DepthDiscrim_HTML.html#3,3,1263,938,1280,1024,7-20-2021,9-10-17,126,,,,,,,2520,507,998,995,1001,512,,3,5,depth_discrimination_stimuli/003083_2014-06-15_15-21-03_094959634447_rgbf000063-resize_1/003083_2014-06-15_15-21-03_094959634447_rgbf000063-resize-original.jpg,3866,1285182,1454842,68
278929,DepthScenes,duration_discrimination,discrim_jsons/shuffled_g0_rotated.json,http://54.89.209.186/DepthDuration/depth_discrimination_MTurk/DepthDiscrim_HTML.html#3,3,1263,938,1280,1024,7-20-2021,9-10-17,127,,,,,,,2520,507,998,995,1001,512,,3,3,depth_discrimination_stimuli/002995_2014-06-15_12-31-26_094959634447_rgbf000150-resize_1/002995_2014-06-15_12-31-26_094959634447_rgbf000150-resize-original.jpg,5725,1285182,1454842,68
278929,DepthScenes,duration_discrimination,discrim_jsons/shuffled_g0_rotated.json,http://54.89.209.186/DepthDuration/depth_discrimination_MTurk/DepthDiscrim_HTML.html#3,3,1263,938,1280,1024,7-20-2021,9-10-17,128,,,,,,,2520,507,998,995,1001,512,,3,3,depth_discrimination_stimuli/001055_2014-06-08_18-45-35_260595134347_rgbf000111-resize_4/001055_2014-06-08_18-45-35_260595134347_rgbf000111-resize-original.jpg,4285,1285182,1454842,68
278929,DepthScenes,duration_discrimination,discrim_jsons/shuffled_g0_rotated.json,http://54.89.209.186/DepthDuration/depth_discrimination_MTurk/DepthDiscrim_HTML.html#3,3,1263,938,1280,1024,7-20-2021,9-10-17,129,,,,,,,2520,507,998,995,1001,512,,3,4,depth_discrimination_stimuli/001815_2014-06-26_20-52-55_260595134347_rgbf000020-resize_0/001815_2014-06-26_20-52-55_260595134347_rgbf000020-resize-original.jpg,4453,1285182,1454842,68
278929,DepthScenes,duration_discrimination,discrim_jsons/shuffled_g0_rotated.json,http://54.89.209.186/DepthDuration/depth_discrimination_MTurk/DepthDiscrim_HTML.html#3,3,1263,938,1280,1024,7-20-2021,9-10-17,130,,,,,,,2520,507,998,995,1001,512,,4,4,depth_discrimination_stimuli/002464_2014-06-28_20-36-57_260595134347_rgbf000029-resize_0/002464_2014-06-28_20-36-57_260595134347_rgbf000029-resize-original.jpg,6191,1285182,1454842,68
278929,DepthScenes,duration_discrimination,discrim_jsons/shuffled_g0_rotated.json,http://54.89.209.186/DepthDuration/depth_discrimination_MTurk/DepthDiscrim_HTML.html#3,3,1263,938,1280,1024,7-20-2021,9-10-17,131,,,,,,,2520,507,998,995,1001,512,,2,1,depth_discrimination_stimuli/001158_2014-06-17_15-32-16_260595134347_rgbf000138-resize_2/001158_2014-06-17_15-32-16_260595134347_rgbf000138-resize-original.jpg,4350,1285182,1454842,68
278929,DepthScenes,duration_discrimination,discrim_jsons/shuffled_g0_rotated.json,http://54.89.209.186/DepthDuration/depth_discrimination_MTurk/DepthDiscrim_HTML.html#3,3,1263,938,1280,1024,7-20-2021,9-10-17,132,,,,,,,2520,507,998,995,1001,512,,3,3,depth_discrimination_stimuli/002545_2014-06-24_13-38-53_094959634447_rgbf000080-resize_4/002545_2014-06-24_13-38-53_094959634447_rgbf000080-resize-original.jpg,7399,1285182,1454842,68
278929,DepthScenes,duration_discrimination,discrim_jsons/shuffled_g0_rotated.json,http://54.89.209.186/DepthDuration/depth_discrimination_MTurk/DepthDiscrim_HTML.html#3,3,1263,938,1280,1024,7-20-2021,9-10-17,133,,,,,,,2520,507,998,995,1001,512,,3,2,depth_discrimination_stimuli/000137_2014-05-20_17-04-49_260595134347_rgbf000120-resize_1/000137_2014-05-20_17-04-49_260595134347_rgbf000120-resize-original.jpg,3897,1285182,1454842,68
278929,DepthScenes,duration_discrimination,discrim_jsons/shuffled_g0_rotated.json,http://54.89.209.186/DepthDuration/depth_discrimination_MTurk/DepthDiscrim_HTML.html#3,3,1263,938,1280,1024,7-20-2021,9-10-17,134,,,,,,,2520,507,998,995,1001,512,,3,4,depth_discrimination_stimuli/000927_2014-06-09_16-32-30_260595134347_rgbf000123-resize_3/000927_2014-06-09_16-32-30_260595134347_rgbf000123-resize-original.jpg,4552,1285182,1454842,68
278929,DepthScenes,duration_discrimination,discrim_jsons/shuffled_g0_rotated.json,http://54.89.209.186/DepthDuration/depth_discrimination_MTurk/DepthDiscrim_HTML.html#3,3,1263,938,1280,1024,7-20-2021,9-10-17,135,,,,,,,2520,507,998,995,1001,512,,4,3,depth_discrimination_stimuli/002043_2014-06-24_20-29-38_260595134347_rgbf000039-resize_4/002043_2014-06-24_20-29-38_260595134347_rgbf000039-resize-original.jpg,4137,1285182,1454842,68
278929,DepthScenes,duration_discrimination,discrim_jsons/shuffled_g0_rotated.json,http://54.89.209.186/DepthDuration/depth_discrimination_MTurk/DepthDiscrim_HTML.html#3,3,1263,938,1280,1024,7-20-2021,9-10-17,136,,,,,,,2520,507,998,995,1001,512,,4,3,depth_discrimination_stimuli/001570_2014-06-20_17-21-09_260595134347_rgbf000135-resize_4/001570_2014-06-20_17-21-09_260595134347_rgbf000135-resize-original.jpg,4902,1285182,1454842,68
278929,DepthScenes,duration_discrimination,discrim_jsons/shuffled_g0_rotated.json,http://54.89.209.186/DepthDuration/depth_discrimination_MTurk/DepthDiscrim_HTML.html#3,3,1263,938,1280,1024,7-20-2021,9-10-17,137,,,,,,,2520,507,998,995,1001,512,,3,2,depth_discrimination_stimuli/000470_2014-06-09_19-42-40_260595134347_rgbf000094-resize_1/000470_2014-06-09_19-42-40_260595134347_rgbf000094-resize-original.jpg,4512,1285182,1454842,68
278929,DepthScenes,duration_discrimination,discrim_jsons/shuffled_g0_rotated.json,http://54.89.209.186/DepthDuration/depth_discrimination_MTurk/DepthDiscrim_HTML.html#3,3,1263,938,1280,1024,7-20-2021,9-10-17,138,,,,,,,2520,507,998,995,1001,512,,3,2,depth_discrimination_stimuli/002209_2014-06-28_18-36-10_260595134347_rgbf000051-resize_1/002209_2014-06-28_18-36-10_260595134347_rgbf000051-resize-original.jpg,3354,1285182,1454842,68
278929,DepthScenes,duration_discrimination,discrim_jsons/shuffled_g0_rotated.json,http://54.89.209.186/DepthDuration/depth_discrimination_MTurk/DepthDiscrim_HTML.html#3,3,1263,938,1280,1024,7-20-2021,9-10-17,139,,,,,,,2520,507,998,995,1001,512,,4,2,depth_discrimination_stimuli/001447_2014-06-19_17-00-32_260595134347_rgbf000082-resize_5/001447_2014-06-19_17-00-32_260595134347_rgbf000082-resize-original.jpg,4068,1285182,1454842,68
278929,DepthScenes,duration_discrimination,discrim_jsons/shuffled_g0_rotated.json,http://54.89.209.186/DepthDuration/depth_discrimination_MTurk/DepthDiscrim_HTML.html#3,3,1263,938,1280,1024,7-20-2021,9-10-17,140,,,,,,,2520,507,998,995,1001,512,,5,3,depth_discrimination_stimuli/002375_2014-06-28_20-13-44_260595134347_rgbf000032-resize_1/002375_2014-06-28_20-13-44_260595134347_rgbf000032-resize-original.jpg,4270,1285182,1454842,68
278929,DepthScenes,duration_discrimination,discrim_jsons/shuffled_g0_rotated.json,http://54.89.209.186/DepthDuration/depth_discrimination_MTurk/DepthDiscrim_HTML.html#3,3,1263,938,1280,1024,7-20-2021,9-10-17,141,,,,,,,2520,507,998,995,1001,512,,4,2,depth_discrimination_stimuli/002444_2014-06-28_20-32-08_260595134347_rgbf000027-resize_0/002444_2014-06-28_20-32-08_260595134347_rgbf000027-resize-original.jpg,3930,1285182,1454842,68
278929,DepthScenes,duration_discrimination,discrim_jsons/shuffled_g0_rotated.json,http://54.89.209.186/DepthDuration/depth_discrimination_MTurk/DepthDiscrim_HTML.html#3,3,1263,938,1280,1024,7-20-2021,9-10-17,142,,,,,,,2520,507,998,995,1001,512,,3,2,depth_discrimination_stimuli/000469_2014-06-09_19-42-10_260595134347_rgbf000081-resize_1/000469_2014-06-09_19-42-10_260595134347_rgbf000081-resize-original.jpg,4100,1285182,1454842,68
278929,DepthScenes,duration_discrimination,discrim_jsons/shuffled_g0_rotated.json,http://54.89.209.186/DepthDuration/depth_discrimination_MTurk/DepthDiscrim_HTML.html#3,3,1263,938,1280,1024,7-20-2021,9-10-17,143,,,,,,,2520,507,998,995,1001,512,,3,2,depth_discrimination_stimuli/001214_2014-06-17_16-13-55_260595134347_rgbf000111-resize_0/001214_2014-06-17_16-13-55_260595134347_rgbf000111-resize-original.jpg,6808,1285182,1454842,68
278929,DepthScenes,duration_discrimination,discrim_jsons/shuffled_g0_rotated.json,http://54.89.209.186/DepthDuration/depth_discrimination_MTurk/DepthDiscrim_HTML.html#3,3,1263,938,1280,1024,7-20-2021,9-10-17,144,,,,,,,2520,507,998,995,1001,512,,3,2,depth_discrimination_stimuli/000636_2014-06-08_16-39-02_260595134347_rgbf000108-resize_4/000636_2014-06-08_16-39-02_260595134347_rgbf000108-resize-original.jpg,4848,1285182,1454842,68
278929,DepthScenes,duration_discrimination,discrim_jsons/shuffled_g0_rotated.json,http://54.89.209.186/DepthDuration/depth_discrimination_MTurk/DepthDiscrim_HTML.html#3,3,1263,938,1280,1024,7-20-2021,9-10-17,145,,,,,,,2520,507,998,995,1001,512,,3,1,depth_discrimination_stimuli/000665_2014-06-09_20-42-35_260595134347_rgbf000110-resize_1/000665_2014-06-09_20-42-35_260595134347_rgbf000110-resize-original.jpg,3850,1285182,1454842,68
278929,DepthScenes,duration_discrimination,discrim_jsons/shuffled_g0_rotated.json,http://54.89.209.186/DepthDuration/depth_discrimination_MTurk/DepthDiscrim_HTML.html#3,3,1263,938,1280,1024,7-20-2021,9-10-17,146,,,,,,,2520,507,998,995,1001,512,,4,3,depth_discrimination_stimuli/003129_2014-05-12_10-48-10_094959634447_rgbf000100-resize_0/003129_2014-05-12_10-48-10_094959634447_rgbf000100-resize-original.jpg,4286,1285182,1454842,68
278929,DepthScenes,duration_discrimination,discrim_jsons/shuffled_g0_rotated.json,http://54.89.209.186/DepthDuration/depth_discrimination_MTurk/DepthDiscrim_HTML.html#3,3,1263,938,1280,1024,7-20-2021,9-10-17,147,,,,,,,2520,507,998,995,1001,512,,3,2,depth_discrimination_stimuli/002987_2014-06-08_18-48-20_094959634447_rgbf000022-resize_0/002987_2014-06-08_18-48-20_094959634447_rgbf000022-resize-original.jpg,5464,1285182,1454842,68
278929,DepthScenes,duration_discrimination,discrim_jsons/shuffled_g0_rotated.json,http://54.89.209.186/DepthDuration/depth_discrimination_MTurk/DepthDiscrim_HTML.html#3,3,1263,938,1280,1024,7-20-2021,9-10-17,148,,,,,,,2520,507,998,995,1001,512,,2,3,depth_discrimination_stimuli/003534_2014-05-22_15-06-10_094959634447_rgbf000102-resize_4/003534_2014-05-22_15-06-10_094959634447_rgbf000102-resize-original.jpg,4278,1285182,1454842,68
278929,DepthScenes,duration_discrimination,discrim_jsons/shuffled_g0_rotated.json,http://54.89.209.186/DepthDuration/depth_discrimination_MTurk/DepthDiscrim_HTML.html#3,3,1263,938,1280,1024,7-20-2021,9-10-17,149,,,,,,,2520,507,998,995,1001,512,,3,2,depth_discrimination_stimuli/001450_2014-06-19_17-02-03_260595134347_rgbf000203-resize_4/001450_2014-06-19_17-02-03_260595134347_rgbf000203-resize-original.jpg,3313,1285182,1454842,68
278929,DepthScenes,duration_discrimination,discrim_jsons/shuffled_g0_rotated.json,http://54.89.209.186/DepthDuration/depth_discrimination_MTurk/DepthDiscrim_HTML.html#3,3,1263,938,1280,1024,7-20-2021,9-10-17,150,,,,,,,2520,507,998,995,1001,512,,4,2,depth_discrimination_stimuli/001584_2014-06-20_11-07-43_260595134347_rgbf000002-resize_1/001584_2014-06-20_11-07-43_260595134347_rgbf000002-resize-original.jpg,4754,1285182,1454842,68
278929,DepthScenes,duration_discrimination,discrim_jsons/shuffled_g0_rotated.json,http://54.89.209.186/DepthDuration/depth_discrimination_MTurk/DepthDiscrim_HTML.html#3,3,1263,938,1280,1024,7-20-2021,9-10-17,151,,,,,,,2520,507,998,995,1001,512,,1,3,depth_discrimination_stimuli/000740_2014-06-08_18-46-23_260595134347_rgbf000049-resize_6/000740_2014-06-08_18-46-23_260595134347_rgbf000049-resize-original.jpg,6038,1285182,1454842,68
278929,DepthScenes,duration_discrimination,discrim_jsons/shuffled_g0_rotated.json,http://54.89.209.186/DepthDuration/depth_discrimination_MTurk/DepthDiscrim_HTML.html#3,3,1263,938,1280,1024,7-20-2021,9-10-17,152,,,,,,,2520,507,998,995,1001,512,,3,2,depth_discrimination_stimuli/000457_2014-06-08_16-52-43_260595134347_rgbf000199-resize_1/000457_2014-06-08_16-52-43_260595134347_rgbf000199-resize-original.jpg,15280,1285182,1454842,68
278929,DepthScenes,duration_discrimination,discrim_jsons/shuffled_g0_rotated.json,http://54.89.209.186/DepthDuration/depth_discrimination_MTurk/DepthDiscrim_HTML.html#3,3,1263,938,1280,1024,7-20-2021,9-10-17,153,,,,,,,2520,507,998,995,1001,512,,3,4,depth_discrimination_stimuli/002568_2014-06-24_13-59-21_094959634447_rgbf000062-resize_4/002568_2014-06-24_13-59-21_094959634447_rgbf000062-resize-original.jpg,5203,1285182,1454842,68
278929,DepthScenes,duration_discrimination,discrim_jsons/shuffled_g0_rotated.json,http://54.89.209.186/DepthDuration/depth_discrimination_MTurk/DepthDiscrim_HTML.html#3,3,1263,938,1280,1024,7-20-2021,9-10-17,154,,,,,,,2520,507,998,995,1001,512,,3,2,depth_discrimination_stimuli/003288_2014-05-14_21-50-30_094959634447_rgbf000028-resize_3/003288_2014-05-14_21-50-30_094959634447_rgbf000028-resize-original.jpg,3947,1285182,1454842,68
278929,DepthScenes,duration_discrimination,discrim_jsons/shuffled_g0_rotated.json,http://54.89.209.186/DepthDuration/depth_discrimination_MTurk/DepthDiscrim_HTML.html#3,3,1263,938,1280,1024,7-20-2021,9-10-17,155,,,,,,,2520,507,998,995,1001,512,,4,2,depth_discrimination_stimuli/002678_2014-06-13_16-15-32_094959634447_rgbf000151-resize_6/002678_2014-06-13_16-15-32_094959634447_rgbf000151-resize-original.jpg,4565,1285182,1454842,68
278929,DepthScenes,duration_discrimination,discrim_jsons/shuffled_g0_rotated.json,http://54.89.209.186/DepthDuration/depth_discrimination_MTurk/DepthDiscrim_HTML.html#3,3,1263,938,1280,1024,7-20-2021,9-10-17,156,,,,,,,2520,507,998,995,1001,512,,4,2,depth_discrimination_stimuli/000555_2014-06-09_22-42-23_260595134347_rgbf000037-resize_4/000555_2014-06-09_22-42-23_260595134347_rgbf000037-resize-original.jpg,5904,1285182,1454842,68
278929,DepthScenes,duration_discrimination,discrim_jsons/shuffled_g0_rotated.json,http://54.89.209.186/DepthDuration/depth_discrimination_MTurk/DepthDiscrim_HTML.html#3,3,1263,938,1280,1024,7-20-2021,9-10-17,157,,,,,,,2520,507,998,995,1001,512,,4,3,depth_discrimination_stimuli/003621_2014-05-23_18-06-08_094959634447_rgbf000101-resize_1/003621_2014-05-23_18-06-08_094959634447_rgbf000101-resize-original.jpg,3836,1285182,1454842,68
278929,DepthScenes,duration_discrimination,discrim_jsons/shuffled_g0_rotated.json,http://54.89.209.186/DepthDuration/depth_discrimination_MTurk/DepthDiscrim_HTML.html#3,3,1263,938,1280,1024,7-20-2021,9-10-17,158,,,,,,,2520,507,998,995,1001,512,,4,2,depth_discrimination_stimuli/002630_2014-06-24_14-47-50_094959634447_rgbf000055-resize_1/002630_2014-06-24_14-47-50_094959634447_rgbf000055-resize-original.jpg,4853,1285182,1454842,68
278929,DepthScenes,duration_discrimination,discrim_jsons/shuffled_g0_rotated.json,http://54.89.209.186/DepthDuration/depth_discrimination_MTurk/DepthDiscrim_HTML.html#3,3,1263,938,1280,1024,7-20-2021,9-10-17,159,,,,,,,2520,507,998,995,1001,512,,3,2,scene_property_catch_stimuli/sun_bpzzatthlcapxzol.jpg,4503,1285182,1454842,68
278929,DepthScenes,duration_discrimination,discrim_jsons/shuffled_g0_rotated.json,http://54.89.209.186/DepthDuration/depth_discrimination_MTurk/DepthDiscrim_HTML.html#3,3,1263,938,1280,1024,7-20-2021,9-10-17,160,,,,,,,2520,507,998,995,1001,512,,3,2,depth_discrimination_stimuli/003495_2014-05-21_16-01-51_094959634447_rgbf000100-resize_3/003495_2014-05-21_16-01-51_094959634447_rgbf000100-resize-original.jpg,5835,1285182,1454842,68
278929,DepthScenes,duration_discrimination,discrim_jsons/shuffled_g0_rotated.json,http://54.89.209.186/DepthDuration/depth_discrimination_MTurk/DepthDiscrim_HTML.html#3,3,1263,938,1280,1024,7-20-2021,9-10-17,161,,,,,,,2520,507,998,995,1001,512,,4,2,depth_discrimination_stimuli/002414_2014-06-28_20-24-58_260595134347_rgbf000067-resize_4/002414_2014-06-28_20-24-58_260595134347_rgbf000067-resize-original.jpg,6829,1285182,1454842,68
278929,DepthScenes,duration_discrimination,discrim_jsons/shuffled_g0_rotated.json,http://54.89.209.186/DepthDuration/depth_discrimination_MTurk/DepthDiscrim_HTML.html#3,3,1263,938,1280,1024,7-20-2021,9-10-17,162,,,,,,,2520,507,998,995,1001,512,,4,3,depth_discrimination_stimuli/003546_2014-05-22_15-48-53_094959634447_rgbf004816-resize_3/003546_2014-05-22_15-48-53_094959634447_rgbf004816-resize-original.jpg,4767,1285182,1454842,68
278929,DepthScenes,duration_discrimination,discrim_jsons/shuffled_g0_rotated.json,http://54.89.209.186/DepthDuration/depth_discrimination_MTurk/DepthDiscrim_HTML.html#3,3,1263,938,1280,1024,7-20-2021,9-10-17,163,,,,,,,2520,507,998,995,1001,512,,3,2,depth_discrimination_stimuli/000009_2014-05-26_14-32-05_260595134347_rgbf000034-resize_3/000009_2014-05-26_14-32-05_260595134347_rgbf000034-resize-original.jpg,3891,1285182,1454842,68
278929,DepthScenes,duration_discrimination,discrim_jsons/shuffled_g0_rotated.json,http://54.89.209.186/DepthDuration/depth_discrimination_MTurk/DepthDiscrim_HTML.html#3,3,1263,938,1280,1024,7-20-2021,9-10-17,164,,,,,,,2520,507,998,995,1001,512,,4,2,depth_discrimination_stimuli/000368_2014-06-09_15-53-01_260595134347_rgbf000155-resize_2/000368_2014-06-09_15-53-01_260595134347_rgbf000155-resize-original.jpg,7554,1285182,1454842,68
278929,DepthScenes,duration_discrimination,discrim_jsons/shuffled_g0_rotated.json,http://54.89.209.186/DepthDuration/depth_discrimination_MTurk/DepthDiscrim_HTML.html#3,3,1263,938,1280,1024,7-20-2021,9-10-17,165,,,,,,,2520,507,998,995,1001,512,,3,4,depth_discrimination_stimuli/003010_2014-06-15_12-54-35_094959634447_rgbf000112-resize_0/003010_2014-06-15_12-54-35_094959634447_rgbf000112-resize-original.jpg,4948,1285182,1454842,68
278929,DepthScenes,duration_discrimination,discrim_jsons/shuffled_g0_rotated.json,http://54.89.209.186/DepthDuration/depth_discrimination_MTurk/DepthDiscrim_HTML.html#3,3,1263,938,1280,1024,7-20-2021,9-10-17,166,,,,,,,2520,507,998,995,1001,512,,4,2,depth_discrimination_stimuli/001724_2014-06-26_19-28-50_260595134347_rgbf000037-resize_7/001724_2014-06-26_19-28-50_260595134347_rgbf000037-resize-original.jpg,5429,1285182,1454842,68
278929,DepthScenes,duration_discrimination,discrim_jsons/shuffled_g0_rotated.json,http://54.89.209.186/DepthDuration/depth_discrimination_MTurk/DepthDiscrim_HTML.html#3,3,1263,938,1280,1024,7-20-2021,9-10-17,167,,,,,,,2520,507,998,995,1001,512,,3,1,depth_discrimination_stimuli/000542_2014-06-08_18-27-08_260595134347_rgbf000118-resize_1/000542_2014-06-08_18-27-08_260595134347_rgbf000118-resize-original.jpg,5890,1285182,1454842,68
278929,DepthScenes,duration_discrimination,discrim_jsons/shuffled_g0_rotated.json,http://54.89.209.186/DepthDuration/depth_discrimination_MTurk/DepthDiscrim_HTML.html#3,3,1263,938,1280,1024,7-20-2021,9-10-17,168,,,,,,,2520,507,998,995,1001,512,,3,2,depth_discrimination_stimuli/001011_2014-06-08_23-18-54_260595134347_rgbf000044-resize_4/001011_2014-06-08_23-18-54_260595134347_rgbf000044-resize-original.jpg,6193,1285182,1454842,68
278929,DepthScenes,duration_discrimination,discrim_jsons/shuffled_g0_rotated.json,http://54.89.209.186/DepthDuration/depth_discrimination_MTurk/DepthDiscrim_HTML.html#3,3,1263,938,1280,1024,7-20-2021,9-10-17,169,,,,,,,2520,507,998,995,1001,512,,5,2,depth_discrimination_stimuli/000103_2014-05-14_22-01-17_260595134347_rgbf000152-resize_5/000103_2014-05-14_22-01-17_260595134347_rgbf000152-resize-original.jpg,5188,1285182,1454842,68
278929,DepthScenes,duration_discrimination,discrim_jsons/shuffled_g0_rotated.json,http://54.89.209.186/DepthDuration/depth_discrimination_MTurk/DepthDiscrim_HTML.html#3,3,1263,938,1280,1024,7-20-2021,9-10-17,170,,,,,,,2520,507,998,995,1001,512,,4,1,depth_discrimination_stimuli/002700_2014-06-22_11-27-02_094959634447_rgbf000124-resize_3/002700_2014-06-22_11-27-02_094959634447_rgbf000124-resize-original.jpg,4051,1285182,1454842,68
278929,DepthScenes,duration_discrimination,discrim_jsons/shuffled_g0_rotated.json,http://54.89.209.186/DepthDuration/depth_discrimination_MTurk/DepthDiscrim_HTML.html#3,3,1263,938,1280,1024,7-20-2021,9-10-17,171,,,,,,,2520,507,998,995,1001,512,,3,3,depth_discrimination_stimuli/003048_2014-06-15_13-49-43_094959634447_rgbf000150-resize_1/003048_2014-06-15_13-49-43_094959634447_rgbf000150-resize-original.jpg,4950,1285182,1454842,68
278929,DepthScenes,duration_discrimination,discrim_jsons/shuffled_g0_rotated.json,http://54.89.209.186/DepthDuration/depth_discrimination_MTurk/DepthDiscrim_HTML.html#3,3,1263,938,1280,1024,7-20-2021,9-10-17,172,,,,,,,2520,507,998,995,1001,512,,3,3,depth_discrimination_stimuli/000739_2014-06-08_18-45-58_260595134347_rgbf000068-resize_1/000739_2014-06-08_18-45-58_260595134347_rgbf000068-resize-original.jpg,5250,1285182,1454842,68
278929,DepthScenes,duration_discrimination,discrim_jsons/shuffled_g0_rotated.json,http://54.89.209.186/DepthDuration/depth_discrimination_MTurk/DepthDiscrim_HTML.html#3,3,1263,938,1280,1024,7-20-2021,9-10-17,173,,,,,,,2520,507,998,995,1001,512,,4,2,depth_discrimination_stimuli/001417_2014-06-19_16-25-36_260595134347_rgbf000115-resize_5/001417_2014-06-19_16-25-36_260595134347_rgbf000115-resize-original.jpg,3923,1285182,1454842,68
278929,DepthScenes,duration_discrimination,discrim_jsons/shuffled_g0_rotated.json,http://54.89.209.186/DepthDuration/depth_discrimination_MTurk/DepthDiscrim_HTML.html#3,3,1263,938,1280,1024,7-20-2021,9-10-17,174,,,,,,,2520,507,998,995,1001,512,,5,2,depth_discrimination_stimuli/002323_2014-06-28_20-01-54_260595134347_rgbf000051-resize_4/002323_2014-06-28_20-01-54_260595134347_rgbf000051-resize-original.jpg,3780,1285182,1454842,68
278929,DepthScenes,duration_discrimination,discrim_jsons/shuffled_g0_rotated.json,http://54.89.209.186/DepthDuration/depth_discrimination_MTurk/DepthDiscrim_HTML.html#3,3,1263,938,1280,1024,7-20-2021,9-10-17,175,,,,,,,2520,507,998,995,1001,512,,3,4,depth_discrimination_stimuli/000830_2014-06-04_19-49-31_260595134347_rgbf000096-resize_2/000830_2014-06-04_19-49-31_260595134347_rgbf000096-resize-original.jpg,3664,1285182,1454842,68
278929,DepthScenes,duration_discrimination,discrim_jsons/shuffled_g0_rotated.json,http://54.89.209.186/DepthDuration/depth_discrimination_MTurk/DepthDiscrim_HTML.html#3,3,1263,938,1280,1024,7-20-2021,9-10-17,176,,,,,,,2520,507,998,995,1001,512,,3,3,depth_discrimination_stimuli/000635_2014-06-08_16-38-42_260595134347_rgbf000106-resize_1/000635_2014-06-08_16-38-42_260595134347_rgbf000106-resize-original.jpg,4092,1285182,1454842,68
278929,DepthScenes,duration_discrimination,discrim_jsons/shuffled_g0_rotated.json,http://54.89.209.186/DepthDuration/depth_discrimination_MTurk/DepthDiscrim_HTML.html#3,3,1263,938,1280,1024,7-20-2021,9-10-17,177,,,,,,,2520,507,998,995,1001,512,,3,2,depth_discrimination_stimuli/000800_2014-06-08_22-42-09_260595134347_rgbf000095-resize_3/000800_2014-06-08_22-42-09_260595134347_rgbf000095-resize-original.jpg,4341,1285182,1454842,68
278929,DepthScenes,duration_discrimination,discrim_jsons/shuffled_g0_rotated.json,http://54.89.209.186/DepthDuration/depth_discrimination_MTurk/DepthDiscrim_HTML.html#3,3,1263,938,1280,1024,7-20-2021,9-10-17,178,,,,,,,2520,507,998,995,1001,512,,3,4,depth_discrimination_stimuli/001810_2014-06-26_20-51-35_260595134347_rgbf000040-resize_3/001810_2014-06-26_20-51-35_260595134347_rgbf000040-resize-original.jpg,5718,1285182,1454842,68
278929,DepthScenes,duration_discrimination,discrim_jsons/shuffled_g0_rotated.json,http://54.89.209.186/DepthDuration/depth_discrimination_MTurk/DepthDiscrim_HTML.html#3,3,1263,938,1280,1024,7-20-2021,9-10-17,179,,,,,,,2520,507,998,995,1001,512,,4,4,depth_discrimination_stimuli/002570_2014-06-24_13-59-54_094959634447_rgbf000059-resize_0/002570_2014-06-24_13-59-54_094959634447_rgbf000059-resize-original.jpg,4512,1285182,1454842,68
278929,DepthScenes,duration_discrimination,discrim_jsons/shuffled_g0_rotated.json,http://54.89.209.186/DepthDuration/depth_discrimination_MTurk/DepthDiscrim_HTML.html#3,3,1263,938,1280,1024,7-20-2021,9-10-17,180,,,,,,,2520,507,998,995,1001,512,,3,3,depth_discrimination_stimuli/001618_2014-06-20_11-37-31_260595134347_rgbf000027-resize_3/001618_2014-06-20_11-37-31_260595134347_rgbf000027-resize-original.jpg,6915,1285182,1454842,68
278929,DepthScenes,duration_discrimination,discrim_jsons/shuffled_g0_rotated.json,http://54.89.209.186/DepthDuration/depth_discrimination_MTurk/DepthDiscrim_HTML.html#3,3,1263,938,1280,1024,7-20-2021,9-10-17,181,,,,,,,2520,507,998,995,1001,512,,4,2,depth_discrimination_stimuli/000521_2014-06-08_13-34-35_260595134347_rgbf000191-resize_2/000521_2014-06-08_13-34-35_260595134347_rgbf000191-resize-original.jpg,3913,1285182,1454842,68
278929,DepthScenes,duration_discrimination,discrim_jsons/shuffled_g0_rotated.json,http://54.89.209.186/DepthDuration/depth_discrimination_MTurk/DepthDiscrim_HTML.html#3,3,1263,938,1280,1024,7-20-2021,9-10-17,182,,,,,,,2520,507,998,995,1001,512,,3,4,depth_discrimination_stimuli/000906_2014-06-08_13-35-43_260595134347_rgbf000155-resize_1/000906_2014-06-08_13-35-43_260595134347_rgbf000155-resize-original.jpg,9343,1285182,1454842,68
278929,DepthScenes,duration_discrimination,discrim_jsons/shuffled_g0_rotated.json,http://54.89.209.186/DepthDuration/depth_discrimination_MTurk/DepthDiscrim_HTML.html#3,3,1263,938,1280,1024,7-20-2021,9-10-17,183,,,,,,,2520,507,998,995,1001,512,,4,3,depth_discrimination_stimuli/001235_2014-06-17_16-37-36_260595134347_rgbf000084-resize_4/001235_2014-06-17_16-37-36_260595134347_rgbf000084-resize-original.jpg,4029,1285182,1454842,68
278929,DepthScenes,duration_discrimination,discrim_jsons/shuffled_g0_rotated.json,http://54.89.209.186/DepthDuration/depth_discrimination_MTurk/DepthDiscrim_HTML.html#3,3,1263,938,1280,1024,7-20-2021,9-10-17,184,,,,,,,2520,507,998,995,1001,512,,3,2,depth_discrimination_stimuli/001188_2014-06-17_15-54-10_260595134347_rgbf000090-resize_2/001188_2014-06-17_15-54-10_260595134347_rgbf000090-resize-original.jpg,5365,1285182,1454842,68
278929,DepthScenes,duration_discrimination,discrim_jsons/shuffled_g0_rotated.json,http://54.89.209.186/DepthDuration/depth_discrimination_MTurk/DepthDiscrim_HTML.html#3,3,1263,938,1280,1024,7-20-2021,9-10-17,185,,,,,,,2520,507,998,995,1001,512,,3,3,depth_discrimination_stimuli/000191_2014-05-12_17-07-38_260595134347_rgbf000199-resize_0/000191_2014-05-12_17-07-38_260595134347_rgbf000199-resize-original.jpg,3774,1285182,1454842,68
278929,DepthScenes,duration_discrimination,discrim_jsons/shuffled_g0_rotated.json,http://54.89.209.186/DepthDuration/depth_discrimination_MTurk/DepthDiscrim_HTML.html#3,3,1263,938,1280,1024,7-20-2021,9-10-17,186,,,,,,,2520,507,998,995,1001,512,,2,3,depth_discrimination_stimuli/001516_2014-06-20_16-25-09_260595134347_rgbf000076-resize_2/001516_2014-06-20_16-25-09_260595134347_rgbf000076-resize-original.jpg,4393,1285182,1454842,68
278929,DepthScenes,duration_discrimination,discrim_jsons/shuffled_g0_rotated.json,http://54.89.209.186/DepthDuration/depth_discrimination_MTurk/DepthDiscrim_HTML.html#3,3,1263,938,1280,1024,7-20-2021,9-10-17,187,,,,,,,2520,507,998,995,1001,512,,4,2,depth_discrimination_stimuli/001132_2014-06-17_14-48-54_260595134347_rgbf000100-resize_2/001132_2014-06-17_14-48-54_260595134347_rgbf000100-resize-original.jpg,4350,1285182,1454842,68
278929,DepthScenes,duration_discrimination,discrim_jsons/shuffled_g0_rotated.json,http://54.89.209.186/DepthDuration/depth_discrimination_MTurk/DepthDiscrim_HTML.html#3,3,1263,938,1280,1024,7-20-2021,9-10-17,188,,,,,,,2520,507,998,995,1001,512,,3,2,depth_discrimination_stimuli/003081_2014-06-15_15-19-16_094959634447_rgbf000150-resize_1/003081_2014-06-15_15-19-16_094959634447_rgbf000150-resize-original.jpg,5096,1285182,1454842,68
278929,DepthScenes,duration_discrimination,discrim_jsons/shuffled_g0_rotated.json,http://54.89.209.186/DepthDuration/depth_discrimination_MTurk/DepthDiscrim_HTML.html#3,3,1263,938,1280,1024,7-20-2021,9-10-17,189,,,,,,,2520,507,998,995,1001,512,,3,2,depth_discrimination_stimuli/001092_2014-06-15_17-34-58_260595134347_rgbf000171-resize_3/001092_2014-06-15_17-34-58_260595134347_rgbf000171-resize-original.jpg,5171,1285182,1454842,68
278929,DepthScenes,duration_discrimination,discrim_jsons/shuffled_g0_rotated.json,http://54.89.209.186/DepthDuration/depth_discrimination_MTurk/DepthDiscrim_HTML.html#3,3,1263,938,1280,1024,7-20-2021,9-10-17,190,,,,,,,2520,507,998,995,1001,512,,3,1,depth_discrimination_stimuli/002657_2014-06-13_15-29-54_094959634447_rgbf000150-resize_1/002657_2014-06-13_15-29-54_094959634447_rgbf000150-resize-original.jpg,6264,1285182,1454842,68
278929,DepthScenes,duration_discrimination,discrim_jsons/shuffled_g0_rotated.json,http://54.89.209.186/DepthDuration/depth_discrimination_MTurk/DepthDiscrim_HTML.html#3,3,1263,938,1280,1024,7-20-2021,9-10-17,191,,,,,,,2520,507,998,995,1001,512,,4,2,depth_discrimination_stimuli/002639_2014-06-24_14-51-37_094959634447_rgbf000074-resize_4/002639_2014-06-24_14-51-37_094959634447_rgbf000074-resize-original.jpg,3244,1285182,1454842,68
278929,DepthScenes,duration_discrimination,discrim_jsons/shuffled_g0_rotated.json,http://54.89.209.186/DepthDuration/depth_discrimination_MTurk/DepthDiscrim_HTML.html#3,3,1263,938,1280,1024,7-20-2021,9-10-17,192,,,,,,,2520,507,998,995,1001,512,,4,1,depth_discrimination_stimuli/003338_2014-05-20_11-01-23_094959634447_rgbf000051-resize_6/003338_2014-05-20_11-01-23_094959634447_rgbf000051-resize-original.jpg,4792,1285182,1454842,68
278929,DepthScenes,duration_discrimination,discrim_jsons/shuffled_g0_rotated.json,http://54.89.209.186/DepthDuration/depth_discrimination_MTurk/DepthDiscrim_HTML.html#3,3,1263,938,1280,1024,7-20-2021,9-10-17,193,,,,,,,2520,507,998,995,1001,512,,4,2,depth_discrimination_stimuli/000735_2014-06-08_18-23-50_260595134347_rgbf000163-resize_2/000735_2014-06-08_18-23-50_260595134347_rgbf000163-resize-original.jpg,3758,1285182,1454842,68
278929,DepthScenes,duration_discrimination,discrim_jsons/shuffled_g0_rotated.json,http://54.89.209.186/DepthDuration/depth_discrimination_MTurk/DepthDiscrim_HTML.html#3,3,1263,938,1280,1024,7-20-2021,9-10-17,194,,,,,,,2520,507,998,995,1001,512,,4,3,depth_discrimination_stimuli/001175_2014-06-17_15-45-55_260595134347_rgbf000129-resize_4/001175_2014-06-17_15-45-55_260595134347_rgbf000129-resize-original.jpg,5040,1285182,1454842,68
278929,DepthScenes,duration_discrimination,discrim_jsons/shuffled_g0_rotated.json,http://54.89.209.186/DepthDuration/depth_discrimination_MTurk/DepthDiscrim_HTML.html#3,3,1263,938,1280,1024,7-20-2021,9-10-17,195,,,,,,,2520,507,998,995,1001,512,,3,2,depth_discrimination_stimuli/001100_2014-06-15_17-46-26_260595134347_rgbf000225-resize_2/001100_2014-06-15_17-46-26_260595134347_rgbf000225-resize-original.jpg,3898,1285182,1454842,68
278929,DepthScenes,duration_discrimination,discrim_jsons/shuffled_g0_rotated.json,http://54.89.209.186/DepthDuration/depth_discrimination_MTurk/DepthDiscrim_HTML.html#3,3,1263,938,1280,1024,7-20-2021,9-10-17,196,,,,,,,2520,507,998,995,1001,512,,4,2,depth_discrimination_stimuli/002365_2014-06-28_20-11-21_260595134347_rgbf000102-resize_1/002365_2014-06-28_20-11-21_260595134347_rgbf000102-resize-original.jpg,4918,1285182,1454842,68
278929,DepthScenes,duration_discrimination,discrim_jsons/shuffled_g0_rotated.json,http://54.89.209.186/DepthDuration/depth_discrimination_MTurk/DepthDiscrim_HTML.html#3,3,1263,938,1280,1024,7-20-2021,9-10-17,197,,,,,,,2520,507,998,995,1001,512,,4,1,depth_discrimination_stimuli/001032_2014-06-08_13-23-17_260595134347_rgbf000021-resize_3/001032_2014-06-08_13-23-17_260595134347_rgbf000021-resize-original.jpg,4006,1285182,1454842,68
278929,DepthScenes,duration_discrimination,discrim_jsons/shuffled_g0_rotated.json,http://54.89.209.186/DepthDuration/depth_discrimination_MTurk/DepthDiscrim_HTML.html#3,3,1263,938,1280,1024,7-20-2021,9-10-17,198,,,,,,,2520,507,998,995,1001,512,,3,1,depth_discrimination_stimuli/002988_2014-06-15_12-24-20_094959634447_rgbf000150-resize_1/002988_2014-06-15_12-24-20_094959634447_rgbf000150-resize-original.jpg,4528,1285182,1454842,68
278929,DepthScenes,duration_discrimination,discrim_jsons/shuffled_g0_rotated.json,http://54.89.209.186/DepthDuration/depth_discrimination_MTurk/DepthDiscrim_HTML.html#3,3,1263,938,1280,1024,7-20-2021,9-10-17,199,,,,,,,2520,507,998,995,1001,512,,2,3,depth_discrimination_stimuli/001532_2014-06-20_16-50-41_260595134347_rgbf000081-resize_4/001532_2014-06-20_16-50-41_260595134347_rgbf000081-resize-original.jpg,5430,1285182,1454842,68
278929,DepthScenes,duration_discrimination,discrim_jsons/shuffled_g0_rotated.json,http://54.89.209.186/DepthDuration/depth_discrimination_MTurk/DepthDiscrim_HTML.html#3,3,1263,938,1280,1024,7-20-2021,9-10-17,200,,,,,,,2520,507,998,995,1001,512,,3,4,depth_discrimination_stimuli/000691_2014-06-08_13-08-50_260595134347_rgbf000132-resize_3/000691_2014-06-08_13-08-50_260595134347_rgbf000132-resize-original.jpg,3882,1285182,1454842,68
278929,DepthScenes,duration_discrimination,discrim_jsons/shuffled_g0_rotated.json,http://54.89.209.186/DepthDuration/depth_discrimination_MTurk/DepthDiscrim_HTML.html#3,3,1263,938,1280,1024,7-20-2021,9-10-17,201,,,,,,,2520,507,998,995,1001,512,,3,1,depth_discrimination_stimuli/003092_2014-06-24_21-01-49_094959634447_rgbf000049-resize_2/003092_2014-06-24_21-01-49_094959634447_rgbf000049-resize-original.jpg,13371,1285182,1454842,68
278929,DepthScenes,duration_discrimination,discrim_jsons/shuffled_g0_rotated.json,http://54.89.209.186/DepthDuration/depth_discrimination_MTurk/DepthDiscrim_HTML.html#3,3,1263,938,1280,1024,7-20-2021,9-10-17,202,,,,,,,2520,507,998,995,1001,512,,1,4,depth_discrimination_stimuli/002139_2014-06-25_21-19-37_260595134347_rgbf000124-resize_2/002139_2014-06-25_21-19-37_260595134347_rgbf000124-resize-original.jpg,5032,1285182,1454842,68
278929,DepthScenes,duration_discrimination,discrim_jsons/shuffled_g0_rotated.json,http://54.89.209.186/DepthDuration/depth_discrimination_MTurk/DepthDiscrim_HTML.html#3,3,1263,938,1280,1024,7-20-2021,9-10-17,203,,,,,,,2520,507,998,995,1001,512,,2,2,depth_discrimination_stimuli/001555_2014-06-20_17-12-10_260595134347_rgbf000065-resize_4/001555_2014-06-20_17-12-10_260595134347_rgbf000065-resize-original.jpg,5304,1285182,1454842,68
278929,DepthScenes,duration_discrimination,discrim_jsons/shuffled_g0_rotated.json,http://54.89.209.186/DepthDuration/depth_discrimination_MTurk/DepthDiscrim_HTML.html#3,3,1263,938,1280,1024,7-20-2021,9-10-17,204,,,,,,,2520,507,998,995,1001,512,,5,2,depth_discrimination_stimuli/002445_2014-06-28_20-32-16_260595134347_rgbf000029-resize_4/002445_2014-06-28_20-32-16_260595134347_rgbf000029-resize-original.jpg,3990,1285182,1454842,68
278929,DepthScenes,duration_discrimination,discrim_jsons/shuffled_g0_rotated.json,http://54.89.209.186/DepthDuration/depth_discrimination_MTurk/DepthDiscrim_HTML.html#3,3,1263,938,1280,1024,7-20-2021,9-10-17,205,,,,,,,2520,507,998,995,1001,512,,4,1,depth_discrimination_stimuli/002213_2014-06-28_18-37-58_260595134347_rgbf000055-resize_1/002213_2014-06-28_18-37-58_260595134347_rgbf000055-resize-original.jpg,8867,1285182,1454842,68
278929,DepthScenes,duration_discrimination,discrim_jsons/shuffled_g0_rotated.json,http://54.89.209.186/DepthDuration/depth_discrimination_MTurk/DepthDiscrim_HTML.html#3,3,1263,938,1280,1024,7-20-2021,9-10-17,206,,,,,,,2520,507,998,995,1001,512,,3,2,depth_discrimination_stimuli/001199_2014-06-17_16-03-48_260595134347_rgbf000077-resize_0/001199_2014-06-17_16-03-48_260595134347_rgbf000077-resize-original.jpg,3820,1285182,1454842,68
278929,DepthScenes,duration_discrimination,discrim_jsons/shuffled_g0_rotated.json,http://54.89.209.186/DepthDuration/depth_discrimination_MTurk/DepthDiscrim_HTML.html#3,3,1263,938,1280,1024,7-20-2021,9-10-17,207,,,,,,,2520,507,998,995,1001,512,,3,1,depth_discrimination_stimuli/002425_2014-06-28_20-27-29_260595134347_rgbf000031-resize_8/002425_2014-06-28_20-27-29_260595134347_rgbf000031-resize-original.jpg,4138,1285182,1454842,68
278929,DepthScenes,duration_discrimination,discrim_jsons/shuffled_g0_rotated.json,http://54.89.209.186/DepthDuration/depth_discrimination_MTurk/DepthDiscrim_HTML.html#3,3,1263,938,1280,1024,7-20-2021,9-10-17,208,,,,,,,2520,507,998,995,1001,512,,2,1,depth_discrimination_stimuli/002875_2014-06-01_15-19-00_094959634447_rgbf000151-resize_1/002875_2014-06-01_15-19-00_094959634447_rgbf000151-resize-original.jpg,4994,1285182,1454842,68
278929,DepthScenes,duration_discrimination,discrim_jsons/shuffled_g0_rotated.json,http://54.89.209.186/DepthDuration/depth_discrimination_MTurk/DepthDiscrim_HTML.html#3,3,1263,938,1280,1024,7-20-2021,9-10-17,209,,,,,,,2520,507,998,995,1001,512,,4,2,depth_discrimination_stimuli/000486_2014-06-09_20-47-20_260595134347_rgbf000143-resize_2/000486_2014-06-09_20-47-20_260595134347_rgbf000143-resize-original.jpg,4684,1285182,1454842,68
278929,DepthScenes,duration_discrimination,discrim_jsons/shuffled_g0_rotated.json,http://54.89.209.186/DepthDuration/depth_discrimination_MTurk/DepthDiscrim_HTML.html#3,3,1263,938,1280,1024,7-20-2021,9-10-17,210,,,,,,,2520,507,998,995,1001,512,,3,4,depth_discrimination_stimuli/001136_2014-06-17_15-19-41_260595134347_rgbf000076-resize_3/001136_2014-06-17_15-19-41_260595134347_rgbf000076-resize-original.jpg,3841,1285182,1454842,68
278929,DepthScenes,duration_discrimination,discrim_jsons/shuffled_g0_rotated.json,http://54.89.209.186/DepthDuration/depth_discrimination_MTurk/DepthDiscrim_HTML.html#3,3,1263,938,1280,1024,7-20-2021,9-10-17,211,,,,,,,2520,507,998,995,1001,512,,4,1,depth_discrimination_stimuli/001148_2014-06-17_15-26-42_260595134347_rgbf000129-resize_0/001148_2014-06-17_15-26-42_260595134347_rgbf000129-resize-original.jpg,4208,1285182,1454842,68
278929,DepthScenes,duration_discrimination,discrim_jsons/shuffled_g0_rotated.json,http://54.89.209.186/DepthDuration/depth_discrimination_MTurk/DepthDiscrim_HTML.html#3,3,1263,938,1280,1024,7-20-2021,9-10-17,212,,,,,,,2520,507,998,995,1001,512,,4,3,depth_discrimination_stimuli/001617_2014-06-20_11-35-32_260595134347_rgbf000066-resize_1/001617_2014-06-20_11-35-32_260595134347_rgbf000066-resize-original.jpg,5079,1285182,1454842,68
278929,DepthScenes,duration_discrimination,discrim_jsons/shuffled_g0_rotated.json,http://54.89.209.186/DepthDuration/depth_discrimination_MTurk/DepthDiscrim_HTML.html#3,3,1263,938,1280,1024,7-20-2021,9-10-17,213,,,,,,,2520,507,998,995,1001,512,,4,1,depth_discrimination_stimuli/000447_2014-06-08_16-15-46_260595134347_rgbf000130-resize_1/000447_2014-06-08_16-15-46_260595134347_rgbf000130-resize-original.jpg,4420,1285182,1454842,68
278929,DepthScenes,duration_discrimination,discrim_jsons/shuffled_g0_rotated.json,http://54.89.209.186/DepthDuration/depth_discrimination_MTurk/DepthDiscrim_HTML.html#3,3,1263,938,1280,1024,7-20-2021,9-10-17,214,,,,,,,2520,507,998,995,1001,512,,3,2,depth_discrimination_stimuli/000742_2014-06-08_18-48-09_260595134347_rgbf000164-resize_4/000742_2014-06-08_18-48-09_260595134347_rgbf000164-resize-original.jpg,4005,1285182,1454842,68
278929,DepthScenes,duration_discrimination,discrim_jsons/shuffled_g0_rotated.json,http://54.89.209.186/DepthDuration/depth_discrimination_MTurk/DepthDiscrim_HTML.html#3,3,1263,938,1280,1024,7-20-2021,9-10-17,215,,,,,,,2520,507,998,995,1001,512,,4,3,depth_discrimination_stimuli/002153_2014-06-25_21-27-18_260595134347_rgbf000038-resize_5/002153_2014-06-25_21-27-18_260595134347_rgbf000038-resize-original.jpg,4370,1285182,1454842,68
