,subjID,workerId,experimentName,versionName,sequenceName,url,selected_row,windowWidth,windowHeight,screenWidth,screenHeight,startDate,z_scored_RT,startTime,trial,stimulus_0,stimulus_1,duration,actual_depth_0,depth_difference,kinect_answer,actual_depth_1,discrim_choice,trial_RT,log_fixation,log_sceneDuration1,log_mask1,log_sceneDuration2,log_mask2,experimentTime,totalTime,age,gender
1032,931134.0,A3KPNQGV1DGJD5,DepthScenes,v2_duration_discrimination,discrim_jsons/Discrim1000_randls_56_rotated.json,http://54.235.29.9/FacialAge/BNav_EC2/DepthDuration/v2_depth_discrimination_MTurk/v2_DepthDiscrim_HTML.html#248,248.0,1920.0,936.0,1920.0,1080.0,9-6-2022,-4.072478114374894,9-50-58,1.0,depth_discrimination_stimuli/002805_2014-06-22_19-54-03_094959634447_rgbf000079-resize_1/002805_2014-06-22_19-54-03_094959634447_rgbf000079-resize_1-target.png,depth_discrimination_stimuli/000906_2014-06-08_13-35-43_260595134347_rgbf000155-resize_1/000906_2014-06-08_13-35-43_260595134347_rgbf000155-resize_1-target.png,1000.0,3.1439999999999997,0.29499999999999993,depth_discrimination_stimuli/000906_2014-06-08_13-35-43_260595134347_rgbf000155-resize_1/000906_2014-06-08_13-35-43_260595134347_rgbf000155-resize_1-target.png,2.8489999999999998,1.0,816.0,1001.0,999.0,1001.0,999.0,501.0,,633057.0,42.0,Man
1033,931134.0,A3KPNQGV1DGJD5,DepthScenes,v2_duration_discrimination,discrim_jsons/Discrim1000_randls_56_rotated.json,http://54.235.29.9/FacialAge/BNav_EC2/DepthDuration/v2_depth_discrimination_MTurk/v2_DepthDiscrim_HTML.html#248,248.0,1920.0,936.0,1920.0,1080.0,9-6-2022,-4.678299608301512,9-50-58,2.0,depth_discrimination_stimuli/002637_2014-06-24_14-51-13_094959634447_rgbf000066-resize_4/002637_2014-06-24_14-51-13_094959634447_rgbf000066-resize_4-target.png,depth_discrimination_stimuli/003534_2014-05-22_15-06-10_094959634447_rgbf000102-resize_4/003534_2014-05-22_15-06-10_094959634447_rgbf000102-resize_4-target.png,1000.0,1.9955,0.5695000000000001,depth_discrimination_stimuli/003534_2014-05-22_15-06-10_094959634447_rgbf000102-resize_4/003534_2014-05-22_15-06-10_094959634447_rgbf000102-resize_4-target.png,1.426,1.0,589.0,1001.0,999.0,1000.0,999.0,500.0,,633057.0,42.0,Man
1034,931134.0,A3KPNQGV1DGJD5,DepthScenes,v2_duration_discrimination,discrim_jsons/Discrim1000_randls_56_rotated.json,http://54.235.29.9/FacialAge/BNav_EC2/DepthDuration/v2_depth_discrimination_MTurk/v2_DepthDiscrim_HTML.html#248,248.0,1920.0,936.0,1920.0,1080.0,9-6-2022,-4.750357671455779,9-50-58,3.0,depth_discrimination_stimuli/001214_2014-06-17_16-13-55_260595134347_rgbf000111-resize_0/001214_2014-06-17_16-13-55_260595134347_rgbf000111-resize_0-target.png,depth_discrimination_stimuli/000810_2014-06-08_17-20-01_260595134347_rgbf000105-resize_0/000810_2014-06-08_17-20-01_260595134347_rgbf000105-resize_0-target.png,1000.0,2.6505,1.1640000000000001,depth_discrimination_stimuli/000810_2014-06-08_17-20-01_260595134347_rgbf000105-resize_0/000810_2014-06-08_17-20-01_260595134347_rgbf000105-resize_0-target.png,1.4865,1.0,562.0,1001.0,1000.0,1000.0,999.0,500.0,,633057.0,42.0,Man
1035,931134.0,A3KPNQGV1DGJD5,DepthScenes,v2_duration_discrimination,discrim_jsons/Discrim1000_randls_56_rotated.json,http://54.235.29.9/FacialAge/BNav_EC2/DepthDuration/v2_depth_discrimination_MTurk/v2_DepthDiscrim_HTML.html#248,248.0,1920.0,936.0,1920.0,1080.0,9-6-2022,-1.6812179445147597,9-50-58,4.0,depth_discrimination_stimuli/003081_2014-06-15_15-19-16_094959634447_rgbf000150-resize_1/003081_2014-06-15_15-19-16_094959634447_rgbf000150-resize_1-target.png,depth_discrimination_stimuli/001417_2014-06-19_16-25-36_260595134347_rgbf000115-resize_5/001417_2014-06-19_16-25-36_260595134347_rgbf000115-resize_5-target.png,1000.0,3.9125,0.7129999999999996,depth_discrimination_stimuli/003081_2014-06-15_15-19-16_094959634447_rgbf000150-resize_1/003081_2014-06-15_15-19-16_094959634447_rgbf000150-resize_1-target.png,4.6255,1.0,1712.0,1001.0,999.0,1000.0,999.0,500.0,,633057.0,42.0,Man
1036,931134.0,A3KPNQGV1DGJD5,DepthScenes,v2_duration_discrimination,discrim_jsons/Discrim1000_randls_56_rotated.json,http://54.235.29.9/FacialAge/BNav_EC2/DepthDuration/v2_depth_discrimination_MTurk/v2_DepthDiscrim_HTML.html#248,248.0,1920.0,936.0,1920.0,1080.0,9-6-2022,-2.0014760029781704,9-50-58,5.0,depth_discrimination_stimuli/002678_2014-06-13_16-15-32_094959634447_rgbf000151-resize_6/002678_2014-06-13_16-15-32_094959634447_rgbf000151-resize_6-target.png,depth_discrimination_stimuli/000368_2014-06-09_15-53-01_260595134347_rgbf000155-resize_2/000368_2014-06-09_15-53-01_260595134347_rgbf000155-resize_2-target.png,1000.0,2.1830000000000003,0.3029999999999995,depth_discrimination_stimuli/002678_2014-06-13_16-15-32_094959634447_rgbf000151-resize_6/002678_2014-06-13_16-15-32_094959634447_rgbf000151-resize_6-target.png,2.4859999999999998,1.0,1592.0,1001.0,999.0,1000.0,999.0,500.0,,633057.0,42.0,Man
1037,931134.0,A3KPNQGV1DGJD5,DepthScenes,v2_duration_discrimination,discrim_jsons/Discrim1000_randls_56_rotated.json,http://54.235.29.9/FacialAge/BNav_EC2/DepthDuration/v2_depth_discrimination_MTurk/v2_DepthDiscrim_HTML.html#248,248.0,1920.0,936.0,1920.0,1080.0,9-6-2022,-3.133054476215555,9-50-58,6.0,depth_discrimination_stimuli/001815_2014-06-26_20-52-55_260595134347_rgbf000020-resize_0/001815_2014-06-26_20-52-55_260595134347_rgbf000020-resize_0-target.png,depth_discrimination_stimuli/001808_2014-06-26_20-50-58_260595134347_rgbf000029-resize_1/001808_2014-06-26_20-50-58_260595134347_rgbf000029-resize_1-target.png,1000.0,3.3865,0.8624999999999998,depth_discrimination_stimuli/001815_2014-06-26_20-52-55_260595134347_rgbf000020-resize_0/001815_2014-06-26_20-52-55_260595134347_rgbf000020-resize_0-target.png,4.249,1.0,1168.0,1001.0,999.0,1000.0,1000.0,500.0,,633057.0,42.0,Man
1038,931134.0,A3KPNQGV1DGJD5,DepthScenes,v2_duration_discrimination,discrim_jsons/Discrim1000_randls_56_rotated.json,http://54.235.29.9/FacialAge/BNav_EC2/DepthDuration/v2_depth_discrimination_MTurk/v2_DepthDiscrim_HTML.html#248,248.0,1920.0,936.0,1920.0,1080.0,9-6-2022,-4.1605490804523315,9-50-58,7.0,depth_discrimination_stimuli/003338_2014-05-20_11-01-23_094959634447_rgbf000051-resize_6/003338_2014-05-20_11-01-23_094959634447_rgbf000051-resize_6-target.png,depth_discrimination_stimuli/002509_2014-06-24_13-19-22_094959634447_rgbf000077-resize_0/002509_2014-06-24_13-19-22_094959634447_rgbf000077-resize_0-target.png,1000.0,1.693,0.38650000000000007,depth_discrimination_stimuli/002509_2014-06-24_13-19-22_094959634447_rgbf000077-resize_0/002509_2014-06-24_13-19-22_094959634447_rgbf000077-resize_0-target.png,1.3065,1.0,783.0,1001.0,999.0,1000.0,999.0,500.0,,633057.0,42.0,Man
1039,931134.0,A3KPNQGV1DGJD5,DepthScenes,v2_duration_discrimination,discrim_jsons/Discrim1000_randls_56_rotated.json,http://54.235.29.9/FacialAge/BNav_EC2/DepthDuration/v2_depth_discrimination_MTurk/v2_DepthDiscrim_HTML.html#248,248.0,1920.0,936.0,1920.0,1080.0,9-6-2022,-4.544858750608424,9-50-58,8.0,depth_discrimination_stimuli/002344_2014-06-28_20-06-29_260595134347_rgbf000030-resize_1/002344_2014-06-28_20-06-29_260595134347_rgbf000030-resize_1-target.png,depth_discrimination_stimuli/002725_2014-06-22_11-47-51_094959634447_rgbf000070-resize_1/002725_2014-06-22_11-47-51_094959634447_rgbf000070-resize_1-target.png,1000.0,1.5795,0.6154999999999999,depth_discrimination_stimuli/002344_2014-06-28_20-06-29_260595134347_rgbf000030-resize_1/002344_2014-06-28_20-06-29_260595134347_rgbf000030-resize_1-target.png,2.195,0.0,639.0,1001.0,1000.0,1000.0,1000.0,500.0,,633057.0,42.0,Man
1040,931134.0,A3KPNQGV1DGJD5,DepthScenes,v2_duration_discrimination,discrim_jsons/Discrim1000_randls_56_rotated.json,http://54.235.29.9/FacialAge/BNav_EC2/DepthDuration/v2_depth_discrimination_MTurk/v2_DepthDiscrim_HTML.html#248,248.0,1920.0,936.0,1920.0,1080.0,9-6-2022,-4.9932200324572,9-50-58,9.0,depth_discrimination_stimuli/000742_2014-06-08_18-48-09_260595134347_rgbf000164-resize_4/000742_2014-06-08_18-48-09_260595134347_rgbf000164-resize_4-target.png,depth_discrimination_stimuli/001066_2014-06-08_22-03-20_260595134347_rgbf000066-resize_4/001066_2014-06-08_22-03-20_260595134347_rgbf000066-resize_4-target.png,1000.0,4.632,0.39899999999999913,depth_discrimination_stimuli/001066_2014-06-08_22-03-20_260595134347_rgbf000066-resize_4/001066_2014-06-08_22-03-20_260595134347_rgbf000066-resize_4-target.png,4.2330000000000005,0.0,471.0,1001.0,999.0,1000.0,999.0,500.0,,633057.0,42.0,Man
1042,931134.0,A3KPNQGV1DGJD5,DepthScenes,v2_duration_discrimination,discrim_jsons/Discrim1000_randls_56_rotated.json,http://54.235.29.9/FacialAge/BNav_EC2/DepthDuration/v2_depth_discrimination_MTurk/v2_DepthDiscrim_HTML.html#248,248.0,1920.0,936.0,1920.0,1080.0,9-6-2022,-4.163217897606193,9-50-58,11.0,depth_discrimination_stimuli/001584_2014-06-20_11-07-43_260595134347_rgbf000002-resize_1/001584_2014-06-20_11-07-43_260595134347_rgbf000002-resize_1-target.png,depth_discrimination_stimuli/003621_2014-05-23_18-06-08_094959634447_rgbf000101-resize_1/003621_2014-05-23_18-06-08_094959634447_rgbf000101-resize_1-target.png,1000.0,3.53,0.4535,depth_discrimination_stimuli/001584_2014-06-20_11-07-43_260595134347_rgbf000002-resize_1/001584_2014-06-20_11-07-43_260595134347_rgbf000002-resize_1-target.png,3.9835,0.0,782.0,1001.0,999.0,1000.0,999.0,500.0,,633057.0,42.0,Man
1043,931134.0,A3KPNQGV1DGJD5,DepthScenes,v2_duration_discrimination,discrim_jsons/Discrim1000_randls_56_rotated.json,http://54.235.29.9/FacialAge/BNav_EC2/DepthDuration/v2_depth_discrimination_MTurk/v2_DepthDiscrim_HTML.html#248,248.0,1920.0,936.0,1920.0,1080.0,9-6-2022,-4.539521116300701,9-50-58,12.0,depth_discrimination_stimuli/003048_2014-06-15_13-49-43_094959634447_rgbf000150-resize_1/003048_2014-06-15_13-49-43_094959634447_rgbf000150-resize_1-target.png,depth_discrimination_stimuli/002043_2014-06-24_20-29-38_260595134347_rgbf000039-resize_4/002043_2014-06-24_20-29-38_260595134347_rgbf000039-resize_4-target.png,1000.0,4.0035,1.1599999999999997,depth_discrimination_stimuli/002043_2014-06-24_20-29-38_260595134347_rgbf000039-resize_4/002043_2014-06-24_20-29-38_260595134347_rgbf000039-resize_4-target.png,2.8435,1.0,641.0,1000.0,1000.0,1000.0,1000.0,500.0,,633057.0,42.0,Man
1044,931134.0,A3KPNQGV1DGJD5,DepthScenes,v2_duration_discrimination,discrim_jsons/Discrim1000_randls_56_rotated.json,http://54.235.29.9/FacialAge/BNav_EC2/DepthDuration/v2_depth_discrimination_MTurk/v2_DepthDiscrim_HTML.html#248,248.0,1920.0,936.0,1920.0,1080.0,9-6-2022,-4.125854457452128,9-50-58,13.0,depth_discrimination_stimuli/001392_2014-06-19_16-07-59_260595134347_rgbf000046-resize_1/001392_2014-06-19_16-07-59_260595134347_rgbf000046-resize_1-target.png,depth_discrimination_stimuli/001570_2014-06-20_17-21-09_260595134347_rgbf000135-resize_4/001570_2014-06-20_17-21-09_260595134347_rgbf000135-resize_4-target.png,1000.0,4.135,0.33199999999999985,depth_discrimination_stimuli/001392_2014-06-19_16-07-59_260595134347_rgbf000046-resize_1/001392_2014-06-19_16-07-59_260595134347_rgbf000046-resize_1-target.png,4.467,0.0,796.0,1001.0,999.0,1000.0,999.0,500.0,,633057.0,42.0,Man
1045,931134.0,A3KPNQGV1DGJD5,DepthScenes,v2_duration_discrimination,discrim_jsons/Discrim1000_randls_56_rotated.json,http://54.235.29.9/FacialAge/BNav_EC2/DepthDuration/v2_depth_discrimination_MTurk/v2_DepthDiscrim_HTML.html#248,248.0,1920.0,936.0,1920.0,1080.0,9-6-2022,-4.616916813762692,9-50-58,14.0,depth_discrimination_stimuli/002444_2014-06-28_20-32-08_260595134347_rgbf000027-resize_0/002444_2014-06-28_20-32-08_260595134347_rgbf000027-resize_0-target.png,depth_discrimination_stimuli/000436_2014-06-09_22-25-11_260595134347_rgbf000137-resize_1/000436_2014-06-09_22-25-11_260595134347_rgbf000137-resize_1-target.png,1000.0,4.388999999999999,0.31849999999999934,depth_discrimination_stimuli/000436_2014-06-09_22-25-11_260595134347_rgbf000137-resize_1/000436_2014-06-09_22-25-11_260595134347_rgbf000137-resize_1-target.png,4.0705,0.0,612.0,1001.0,1000.0,1000.0,1000.0,500.0,,633057.0,42.0,Man
1046,931134.0,A3KPNQGV1DGJD5,DepthScenes,v2_duration_discrimination,discrim_jsons/Discrim1000_randls_56_rotated.json,http://54.235.29.9/FacialAge/BNav_EC2/DepthDuration/v2_depth_discrimination_MTurk/v2_DepthDiscrim_HTML.html#248,248.0,1920.0,936.0,1920.0,1080.0,9-6-2022,-4.859779174764111,9-50-58,15.0,depth_discrimination_stimuli/002949_2014-06-26_15-57-42_094959634447_rgbf000079-resize_1/002949_2014-06-26_15-57-42_094959634447_rgbf000079-resize_1-target.png,depth_discrimination_stimuli/000522_2014-06-08_13-35-06_260595134347_rgbf000244-resize_1/000522_2014-06-08_13-35-06_260595134347_rgbf000244-resize_1-target.png,1000.0,1.8915,0.4800000000000002,depth_discrimination_stimuli/002949_2014-06-26_15-57-42_094959634447_rgbf000079-resize_1/002949_2014-06-26_15-57-42_094959634447_rgbf000079-resize_1-target.png,2.3715,1.0,521.0,1001.0,999.0,1000.0,999.0,500.0,,633057.0,42.0,Man
1048,931134.0,A3KPNQGV1DGJD5,DepthScenes,v2_duration_discrimination,discrim_jsons/Discrim1000_randls_56_rotated.json,http://54.235.29.9/FacialAge/BNav_EC2/DepthDuration/v2_depth_discrimination_MTurk/v2_DepthDiscrim_HTML.html#248,248.0,1920.0,936.0,1920.0,1080.0,9-6-2022,-4.582222190762489,9-50-58,17.0,depth_discrimination_stimuli/003079_2014-06-15_15-18-20_094959634447_rgbf000152-resize_8/003079_2014-06-15_15-18-20_094959634447_rgbf000152-resize_8-target.png,depth_discrimination_stimuli/000506_2014-06-08_23-21-00_260595134347_rgbf000070-resize_7/000506_2014-06-08_23-21-00_260595134347_rgbf000070-resize_7-target.png,1000.0,2.8775,1.1810000000000005,depth_discrimination_stimuli/003079_2014-06-15_15-18-20_094959634447_rgbf000152-resize_8/003079_2014-06-15_15-18-20_094959634447_rgbf000152-resize_8-target.png,4.0585,0.0,625.0,1001.0,999.0,1000.0,999.0,500.0,,633057.0,42.0,Man
1049,931134.0,A3KPNQGV1DGJD5,DepthScenes,v2_duration_discrimination,discrim_jsons/Discrim1000_randls_56_rotated.json,http://54.235.29.9/FacialAge/BNav_EC2/DepthDuration/v2_depth_discrimination_MTurk/v2_DepthDiscrim_HTML.html#248,248.0,1920.0,936.0,1920.0,1080.0,9-6-2022,-3.9710630625281467,9-50-58,18.0,depth_discrimination_stimuli/002467_2014-06-28_20-38-07_260595134347_rgbf000026-resize_2/002467_2014-06-28_20-38-07_260595134347_rgbf000026-resize_2-target.png,depth_discrimination_stimuli/002570_2014-06-24_13-59-54_094959634447_rgbf000059-resize_0/002570_2014-06-24_13-59-54_094959634447_rgbf000059-resize_0-target.png,1000.0,4.742,0.7050000000000001,depth_discrimination_stimuli/002570_2014-06-24_13-59-54_094959634447_rgbf000059-resize_0/002570_2014-06-24_13-59-54_094959634447_rgbf000059-resize_0-target.png,4.037,1.0,854.0,1001.0,1000.0,1000.0,1000.0,500.0,,633057.0,42.0,Man
1050,931134.0,A3KPNQGV1DGJD5,DepthScenes,v2_duration_discrimination,discrim_jsons/Discrim1000_randls_56_rotated.json,http://54.235.29.9/FacialAge/BNav_EC2/DepthDuration/v2_depth_discrimination_MTurk/v2_DepthDiscrim_HTML.html#248,248.0,1920.0,936.0,1920.0,1080.0,9-6-2022,-4.8010651973791525,9-50-58,19.0,depth_discrimination_stimuli/001450_2014-06-19_17-02-03_260595134347_rgbf000203-resize_4/001450_2014-06-19_17-02-03_260595134347_rgbf000203-resize_4-target.png,depth_discrimination_stimuli/001449_2014-06-19_17-01-27_260595134347_rgbf000116-resize_2/001449_2014-06-19_17-01-27_260595134347_rgbf000116-resize_2-target.png,1000.0,4.0106666666667,0.5586666666667002,depth_discrimination_stimuli/001449_2014-06-19_17-01-27_260595134347_rgbf000116-resize_2/001449_2014-06-19_17-01-27_260595134347_rgbf000116-resize_2-target.png,3.452,1.0,543.0,1001.0,1000.0,1000.0,1000.0,500.0,,633057.0,42.0,Man
1051,931134.0,A3KPNQGV1DGJD5,DepthScenes,v2_duration_discrimination,discrim_jsons/Discrim1000_randls_56_rotated.json,http://54.235.29.9/FacialAge/BNav_EC2/DepthDuration/v2_depth_discrimination_MTurk/v2_DepthDiscrim_HTML.html#248,248.0,1920.0,936.0,1920.0,1080.0,9-6-2022,-3.514695329217786,9-50-58,20.0,depth_discrimination_stimuli/000409_2014-06-04_19-23-33_260595134347_rgbf000067-resize_0/000409_2014-06-04_19-23-33_260595134347_rgbf000067-resize_0-target.png,depth_discrimination_stimuli/002663_2014-06-13_15-50-26_094959634447_rgbf000075-resize_1/002663_2014-06-13_15-50-26_094959634447_rgbf000075-resize_1-target.png,1000.0,3.7335,1.0160000000000005,depth_discrimination_stimuli/000409_2014-06-04_19-23-33_260595134347_rgbf000067-resize_0/000409_2014-06-04_19-23-33_260595134347_rgbf000067-resize_0-target.png,4.7495,0.0,1025.0,1000.0,999.0,1000.0,999.0,500.0,,633057.0,42.0,Man
1052,931134.0,A3KPNQGV1DGJD5,DepthScenes,v2_duration_discrimination,discrim_jsons/Discrim1000_randls_56_rotated.json,http://54.235.29.9/FacialAge/BNav_EC2/DepthDuration/v2_depth_discrimination_MTurk/v2_DepthDiscrim_HTML.html#248,248.0,1920.0,936.0,1920.0,1080.0,9-6-2022,-5.102641535765532,9-50-58,21.0,depth_discrimination_stimuli/003228_2014-05-14_13-42-35_094959634447_rgbf000101-resize_1/003228_2014-05-14_13-42-35_094959634447_rgbf000101-resize_1-target.png,depth_discrimination_stimuli/002600_2014-06-24_14-27-04_094959634447_rgbf000074-resize_2/002600_2014-06-24_14-27-04_094959634447_rgbf000074-resize_2-target.png,1000.0,1.9680000000000002,0.7894999999999996,depth_discrimination_stimuli/003228_2014-05-14_13-42-35_094959634447_rgbf000101-resize_1/003228_2014-05-14_13-42-35_094959634447_rgbf000101-resize_1-target.png,2.7575,0.0,430.0,1001.0,999.0,1001.0,1000.0,500.0,,633057.0,42.0,Man
1053,931134.0,A3KPNQGV1DGJD5,DepthScenes,v2_duration_discrimination,discrim_jsons/Discrim1000_randls_56_rotated.json,http://54.235.29.9/FacialAge/BNav_EC2/DepthDuration/v2_depth_discrimination_MTurk/v2_DepthDiscrim_HTML.html#248,248.0,1920.0,936.0,1920.0,1080.0,9-6-2022,-5.07061572991919,9-50-58,22.0,depth_discrimination_stimuli/000734_2014-06-08_17-39-11_260595134347_rgbf000128-resize_2/000734_2014-06-08_17-39-11_260595134347_rgbf000128-resize_2-target.png,depth_discrimination_stimuli/000739_2014-06-08_18-45-58_260595134347_rgbf000068-resize_1/000739_2014-06-08_18-45-58_260595134347_rgbf000068-resize_1-target.png,1000.0,4.098,0.5640000000000001,depth_discrimination_stimuli/000739_2014-06-08_18-45-58_260595134347_rgbf000068-resize_1/000739_2014-06-08_18-45-58_260595134347_rgbf000068-resize_1-target.png,3.534,0.0,442.0,1001.0,1000.0,1000.0,999.0,500.0,,633057.0,42.0,Man
1054,931134.0,A3KPNQGV1DGJD5,DepthScenes,v2_duration_discrimination,discrim_jsons/Discrim1000_randls_56_rotated.json,http://54.235.29.9/FacialAge/BNav_EC2/DepthDuration/v2_depth_discrimination_MTurk/v2_DepthDiscrim_HTML.html#248,248.0,1920.0,936.0,1920.0,1080.0,9-6-2022,-4.624923265224277,9-50-58,23.0,depth_discrimination_stimuli/001052_2014-06-08_18-24-54_260595134347_rgbf000130-resize_1/001052_2014-06-08_18-24-54_260595134347_rgbf000130-resize_1-target.png,depth_discrimination_stimuli/002988_2014-06-15_12-24-20_094959634447_rgbf000150-resize_1/002988_2014-06-15_12-24-20_094959634447_rgbf000150-resize_1-target.png,1000.0,4.1045,0.6624999999999996,depth_discrimination_stimuli/001052_2014-06-08_18-24-54_260595134347_rgbf000130-resize_1/001052_2014-06-08_18-24-54_260595134347_rgbf000130-resize_1-target.png,4.7669999999999995,0.0,609.0,1001.0,1000.0,1000.0,1000.0,500.0,,633057.0,42.0,Man
1055,931134.0,A3KPNQGV1DGJD5,DepthScenes,v2_duration_discrimination,discrim_jsons/Discrim1000_randls_56_rotated.json,http://54.235.29.9/FacialAge/BNav_EC2/DepthDuration/v2_depth_discrimination_MTurk/v2_DepthDiscrim_HTML.html#248,248.0,1920.0,936.0,1920.0,1080.0,9-6-2022,-3.7789082274501,9-50-58,24.0,depth_discrimination_stimuli/000749_2014-06-08_21-55-06_260595134347_rgbf000070-resize_2/000749_2014-06-08_21-55-06_260595134347_rgbf000070-resize_2-target.png,depth_discrimination_stimuli/002788_2014-06-22_19-36-03_094959634447_rgbf000088-resize_2/002788_2014-06-22_19-36-03_094959634447_rgbf000088-resize_2-target.png,1000.0,2.331,0.6844999999999999,depth_discrimination_stimuli/002788_2014-06-22_19-36-03_094959634447_rgbf000088-resize_2/002788_2014-06-22_19-36-03_094959634447_rgbf000088-resize_2-target.png,1.6465,1.0,926.0,1001.0,1000.0,1000.0,1000.0,500.0,,633057.0,42.0,Man
1056,931134.0,A3KPNQGV1DGJD5,DepthScenes,v2_duration_discrimination,discrim_jsons/Discrim1000_randls_56_rotated.json,http://54.235.29.9/FacialAge/BNav_EC2/DepthDuration/v2_depth_discrimination_MTurk/v2_DepthDiscrim_HTML.html#248,248.0,1920.0,936.0,1920.0,1080.0,9-6-2022,-4.560871653531595,9-50-58,25.0,depth_discrimination_stimuli/002545_2014-06-24_13-38-53_094959634447_rgbf000080-resize_4/002545_2014-06-24_13-38-53_094959634447_rgbf000080-resize_4-target.png,depth_discrimination_stimuli/001092_2014-06-15_17-34-58_260595134347_rgbf000171-resize_3/001092_2014-06-15_17-34-58_260595134347_rgbf000171-resize_3-target.png,1000.0,1.9205,0.7729999999999997,depth_discrimination_stimuli/002545_2014-06-24_13-38-53_094959634447_rgbf000080-resize_4/002545_2014-06-24_13-38-53_094959634447_rgbf000080-resize_4-target.png,2.6935,1.0,633.0,1000.0,999.0,1000.0,999.0,500.0,,633057.0,42.0,Man
1058,931134.0,A3KPNQGV1DGJD5,DepthScenes,v2_duration_discrimination,discrim_jsons/Discrim1000_randls_56_rotated.json,http://54.235.29.9/FacialAge/BNav_EC2/DepthDuration/v2_depth_discrimination_MTurk/v2_DepthDiscrim_HTML.html#248,248.0,1920.0,936.0,1920.0,1080.0,9-6-2022,-2.8181340520598677,9-50-58,27.0,depth_discrimination_stimuli/000137_2014-05-20_17-04-49_260595134347_rgbf000120-resize_1/000137_2014-05-20_17-04-49_260595134347_rgbf000120-resize_1-target.png,depth_discrimination_stimuli/000736_2014-06-08_18-24-15_260595134347_rgbf000206-resize_3/000736_2014-06-08_18-24-15_260595134347_rgbf000206-resize_3-target.png,1000.0,3.786,0.2709999999999999,depth_discrimination_stimuli/000736_2014-06-08_18-24-15_260595134347_rgbf000206-resize_3/000736_2014-06-08_18-24-15_260595134347_rgbf000206-resize_3-target.png,3.515,1.0,1286.0,1001.0,1000.0,1000.0,1000.0,500.0,,633057.0,42.0,Man
1059,931134.0,A3KPNQGV1DGJD5,DepthScenes,v2_duration_discrimination,discrim_jsons/Discrim1000_randls_56_rotated.json,http://54.235.29.9/FacialAge/BNav_EC2/DepthDuration/v2_depth_discrimination_MTurk/v2_DepthDiscrim_HTML.html#248,248.0,1920.0,936.0,1920.0,1080.0,9-6-2022,-4.256626497991355,9-50-58,28.0,depth_discrimination_stimuli/002414_2014-06-28_20-24-58_260595134347_rgbf000067-resize_4/002414_2014-06-28_20-24-58_260595134347_rgbf000067-resize_4-target.png,depth_discrimination_stimuli/000773_2014-06-08_22-24-54_260595134347_rgbf000093-resize_1/000773_2014-06-08_22-24-54_260595134347_rgbf000093-resize_1-target.png,1000.0,4.363,0.6099999999999994,depth_discrimination_stimuli/002414_2014-06-28_20-24-58_260595134347_rgbf000067-resize_4/002414_2014-06-28_20-24-58_260595134347_rgbf000067-resize_4-target.png,4.973,0.0,747.0,1001.0,1000.0,1000.0,999.0,501.0,,633057.0,42.0,Man
1060,931134.0,A3KPNQGV1DGJD5,DepthScenes,v2_duration_discrimination,discrim_jsons/Discrim1000_randls_56_rotated.json,http://54.235.29.9/FacialAge/BNav_EC2/DepthDuration/v2_depth_discrimination_MTurk/v2_DepthDiscrim_HTML.html#248,248.0,1920.0,936.0,1920.0,1080.0,9-6-2022,-3.3465598485244956,9-50-58,29.0,depth_discrimination_stimuli/003495_2014-05-21_16-01-51_094959634447_rgbf000100-resize_3/003495_2014-05-21_16-01-51_094959634447_rgbf000100-resize_3-target.png,depth_discrimination_stimuli/001244_2014-06-17_16-47-45_260595134347_rgbf000030-resize_4/001244_2014-06-17_16-47-45_260595134347_rgbf000030-resize_4-target.png,1000.0,1.6255,0.41700000000000004,depth_discrimination_stimuli/003495_2014-05-21_16-01-51_094959634447_rgbf000100-resize_3/003495_2014-05-21_16-01-51_094959634447_rgbf000100-resize_3-target.png,2.0425,0.0,1088.0,1000.0,999.0,1000.0,999.0,501.0,,633057.0,42.0,Man
1061,931134.0,A3KPNQGV1DGJD5,DepthScenes,v2_duration_discrimination,discrim_jsons/Discrim1000_randls_56_rotated.json,http://54.235.29.9/FacialAge/BNav_EC2/DepthDuration/v2_depth_discrimination_MTurk/v2_DepthDiscrim_HTML.html#248,248.0,1920.0,936.0,1920.0,1080.0,9-6-2022,-2.3777792216726783,9-50-58,30.0,depth_discrimination_stimuli/003490_2014-05-21_15-50-11_094959634447_rgbf000101-resize_3/003490_2014-05-21_15-50-11_094959634447_rgbf000101-resize_3-target.png,depth_discrimination_stimuli/001175_2014-06-17_15-45-55_260595134347_rgbf000129-resize_4/001175_2014-06-17_15-45-55_260595134347_rgbf000129-resize_4-target.png,1000.0,3.6445,0.6105,depth_discrimination_stimuli/003490_2014-05-21_15-50-11_094959634447_rgbf000101-resize_3/003490_2014-05-21_15-50-11_094959634447_rgbf000101-resize_3-target.png,4.255,0.0,1451.0,1001.0,1000.0,1000.0,1000.0,500.0,,633057.0,42.0,Man
1062,931134.0,A3KPNQGV1DGJD5,DepthScenes,v2_duration_discrimination,discrim_jsons/Discrim1000_randls_56_rotated.json,http://54.235.29.9/FacialAge/BNav_EC2/DepthDuration/v2_depth_discrimination_MTurk/v2_DepthDiscrim_HTML.html#248,248.0,1920.0,936.0,1920.0,1080.0,9-6-2022,-4.79572756307143,9-50-58,31.0,depth_discrimination_stimuli/000665_2014-06-09_20-42-35_260595134347_rgbf000110-resize_1/000665_2014-06-09_20-42-35_260595134347_rgbf000110-resize_1-target.png,depth_discrimination_stimuli/001150_2014-06-17_15-27-34_260595134347_rgbf000108-resize_2/001150_2014-06-17_15-27-34_260595134347_rgbf000108-resize_2-target.png,1000.0,3.057,0.9754999999999998,depth_discrimination_stimuli/000665_2014-06-09_20-42-35_260595134347_rgbf000110-resize_1/000665_2014-06-09_20-42-35_260595134347_rgbf000110-resize_1-target.png,4.0325,0.0,545.0,1001.0,999.0,1000.0,999.0,500.0,,633057.0,42.0,Man
1063,931134.0,A3KPNQGV1DGJD5,DepthScenes,v2_duration_discrimination,discrim_jsons/Discrim1000_randls_56_rotated.json,http://54.235.29.9/FacialAge/BNav_EC2/DepthDuration/v2_depth_discrimination_MTurk/v2_DepthDiscrim_HTML.html#248,248.0,1920.0,936.0,1920.0,1080.0,9-6-2022,-5.0919662671500845,9-50-58,32.0,depth_discrimination_stimuli/001650_2014-06-20_12-09-00_260595134347_rgbf000087-resize_3/001650_2014-06-20_12-09-00_260595134347_rgbf000087-resize_3-target.png,depth_discrimination_stimuli/000682_2014-06-08_23-14-58_260595134347_rgbf000041-resize_5/000682_2014-06-08_23-14-58_260595134347_rgbf000041-resize_5-target.png,1000.0,1.9505,0.7734999999999999,depth_discrimination_stimuli/001650_2014-06-20_12-09-00_260595134347_rgbf000087-resize_3/001650_2014-06-20_12-09-00_260595134347_rgbf000087-resize_3-target.png,2.7239999999999998,0.0,434.0,1001.0,999.0,1000.0,999.0,500.0,,633057.0,42.0,Man
1064,931134.0,A3KPNQGV1DGJD5,DepthScenes,v2_duration_discrimination,discrim_jsons/Discrim1000_randls_56_rotated.json,http://54.235.29.9/FacialAge/BNav_EC2/DepthDuration/v2_depth_discrimination_MTurk/v2_DepthDiscrim_HTML.html#248,248.0,1920.0,936.0,1920.0,1080.0,9-6-2022,-5.292127553689716,9-50-58,33.0,depth_discrimination_stimuli/001136_2014-06-17_15-19-41_260595134347_rgbf000076-resize_3/001136_2014-06-17_15-19-41_260595134347_rgbf000076-resize_3-target.png,depth_discrimination_stimuli/001164_2014-06-17_15-35-46_260595134347_rgbf000085-resize_3/001164_2014-06-17_15-35-46_260595134347_rgbf000085-resize_3-target.png,1000.0,1.8655,0.48850000000000016,depth_discrimination_stimuli/001136_2014-06-17_15-19-41_260595134347_rgbf000076-resize_3/001136_2014-06-17_15-19-41_260595134347_rgbf000076-resize_3-target.png,2.354,0.0,359.0,1001.0,1000.0,1000.0,1000.0,500.0,,633057.0,42.0,Man
1065,931134.0,A3KPNQGV1DGJD5,DepthScenes,v2_duration_discrimination,discrim_jsons/Discrim1000_randls_56_rotated.json,http://54.235.29.9/FacialAge/BNav_EC2/DepthDuration/v2_depth_discrimination_MTurk/v2_DepthDiscrim_HTML.html#248,248.0,1920.0,936.0,1920.0,1080.0,9-6-2022,-4.969200678072443,9-50-58,34.0,depth_discrimination_stimuli/000635_2014-06-08_16-38-42_260595134347_rgbf000106-resize_1/000635_2014-06-08_16-38-42_260595134347_rgbf000106-resize_1-target.png,depth_discrimination_stimuli/002279_2014-06-28_18-55-32_260595134347_rgbf000040-resize_5/002279_2014-06-28_18-55-32_260595134347_rgbf000040-resize_5-target.png,1000.0,2.074,0.5696666666666999,depth_discrimination_stimuli/002279_2014-06-28_18-55-32_260595134347_rgbf000040-resize_5/002279_2014-06-28_18-55-32_260595134347_rgbf000040-resize_5-target.png,1.5043333333333,1.0,480.0,1001.0,999.0,1000.0,999.0,500.0,,633057.0,42.0,Man
1067,931134.0,A3KPNQGV1DGJD5,DepthScenes,v2_duration_discrimination,discrim_jsons/Discrim1000_randls_56_rotated.json,http://54.235.29.9/FacialAge/BNav_EC2/DepthDuration/v2_depth_discrimination_MTurk/v2_DepthDiscrim_HTML.html#248,248.0,1920.0,936.0,1920.0,1080.0,9-6-2022,-4.181899617683225,9-50-58,36.0,depth_discrimination_stimuli/000866_2014-06-09_20-45-42_260595134347_rgbf000139-resize_1/000866_2014-06-09_20-45-42_260595134347_rgbf000139-resize_1-target.png,depth_discrimination_stimuli/002989_2014-06-15_12-25-03_094959634447_rgbf000150-resize_3/002989_2014-06-15_12-25-03_094959634447_rgbf000150-resize_3-target.png,1000.0,3.2155,0.9819999999999998,depth_discrimination_stimuli/000866_2014-06-09_20-45-42_260595134347_rgbf000139-resize_1/000866_2014-06-09_20-45-42_260595134347_rgbf000139-resize_1-target.png,4.1975,0.0,775.0,1001.0,1000.0,1000.0,999.0,500.0,,633057.0,42.0,Man
1068,931134.0,A3KPNQGV1DGJD5,DepthScenes,v2_duration_discrimination,discrim_jsons/Discrim1000_randls_56_rotated.json,http://54.235.29.9/FacialAge/BNav_EC2/DepthDuration/v2_depth_discrimination_MTurk/v2_DepthDiscrim_HTML.html#248,248.0,1920.0,936.0,1920.0,1080.0,9-6-2022,-4.953187775149273,9-50-58,37.0,depth_discrimination_stimuli/000943_2014-06-09_19-31-07_260595134347_rgbf000128-resize_1/000943_2014-06-09_19-31-07_260595134347_rgbf000128-resize_1-target.png,depth_discrimination_stimuli/003070_2014-06-15_14-58-27_094959634447_rgbf000150-resize_3/003070_2014-06-15_14-58-27_094959634447_rgbf000150-resize_3-target.png,1000.0,1.9765,0.9650000000000001,depth_discrimination_stimuli/000943_2014-06-09_19-31-07_260595134347_rgbf000128-resize_1/000943_2014-06-09_19-31-07_260595134347_rgbf000128-resize_1-target.png,2.9415,0.0,486.0,1000.0,999.0,1000.0,999.0,500.0,,633057.0,42.0,Man
1069,931134.0,A3KPNQGV1DGJD5,DepthScenes,v2_duration_discrimination,discrim_jsons/Discrim1000_randls_56_rotated.json,http://54.235.29.9/FacialAge/BNav_EC2/DepthDuration/v2_depth_discrimination_MTurk/v2_DepthDiscrim_HTML.html#248,248.0,1920.0,936.0,1920.0,1080.0,9-6-2022,-4.969200678072443,9-50-58,38.0,depth_discrimination_stimuli/002875_2014-06-01_15-19-00_094959634447_rgbf000151-resize_1/002875_2014-06-01_15-19-00_094959634447_rgbf000151-resize_1-target.png,depth_discrimination_stimuli/001011_2014-06-08_23-18-54_260595134347_rgbf000044-resize_4/001011_2014-06-08_23-18-54_260595134347_rgbf000044-resize_4-target.png,1000.0,1.9675,0.5055000000000003,depth_discrimination_stimuli/002875_2014-06-01_15-19-00_094959634447_rgbf000151-resize_1/002875_2014-06-01_15-19-00_094959634447_rgbf000151-resize_1-target.png,2.4730000000000003,0.0,480.0,1000.0,1000.0,1000.0,1000.0,500.0,,633057.0,42.0,Man
1070,931134.0,A3KPNQGV1DGJD5,DepthScenes,v2_duration_discrimination,discrim_jsons/Discrim1000_randls_56_rotated.json,http://54.235.29.9/FacialAge/BNav_EC2/DepthDuration/v2_depth_discrimination_MTurk/v2_DepthDiscrim_HTML.html#248,248.0,1920.0,936.0,1920.0,1080.0,9-6-2022,-5.366854433997846,9-50-58,-2.1455921292867055,depth_discrimination_stimuli/002995_2014-06-15_12-31-26_094959634447_rgbf000150-resize_1/002995_2014-06-15_12-31-26_094959634447_rgbf000150-resize_1-target.png,depth_discrimination_stimuli/002748_2014-06-22_19-07-22_094959634447_rgbf000078-resize_1/002748_2014-06-22_19-07-22_094959634447_rgbf000078-resize_1-target.png,1000.0,3.8360000000000003,0.8344999999999994,depth_discrimination_stimuli/002995_2014-06-15_12-31-26_094959634447_rgbf000150-resize_1/002995_2014-06-15_12-31-26_094959634447_rgbf000150-resize_1-target.png,4.6705,0.0,331.0,1000.0,999.0,1000.0,1000.0,500.0,,633057.0,42.0,Man
1071,931134.0,A3KPNQGV1DGJD5,DepthScenes,v2_duration_discrimination,discrim_jsons/Discrim1000_randls_56_rotated.json,http://54.235.29.9/FacialAge/BNav_EC2/DepthDuration/v2_depth_discrimination_MTurk/v2_DepthDiscrim_HTML.html#248,248.0,1920.0,936.0,1920.0,1080.0,9-6-2022,-4.785052294455983,9-50-58,40.0,depth_discrimination_stimuli/002750_2014-06-22_19-08-03_094959634447_rgbf000094-resize_4/002750_2014-06-22_19-08-03_094959634447_rgbf000094-resize_4-target.png,depth_discrimination_stimuli/002549_2014-06-24_13-41-39_094959634447_rgbf000022-resize_3/002549_2014-06-24_13-41-39_094959634447_rgbf000022-resize_3-target.png,1000.0,2.354,0.8780000000000001,depth_discrimination_stimuli/002549_2014-06-24_13-41-39_094959634447_rgbf000022-resize_3/002549_2014-06-24_13-41-39_094959634447_rgbf000022-resize_3-target.png,1.476,1.0,549.0,1001.0,999.0,1000.0,999.0,500.0,,633057.0,42.0,Man
1072,931134.0,A3KPNQGV1DGJD5,DepthScenes,v2_duration_discrimination,discrim_jsons/Discrim1000_randls_56_rotated.json,http://54.235.29.9/FacialAge/BNav_EC2/DepthDuration/v2_depth_discrimination_MTurk/v2_DepthDiscrim_HTML.html#248,248.0,1920.0,936.0,1920.0,1080.0,9-6-2022,-4.87312326053342,9-50-58,41.0,depth_discrimination_stimuli/002199_2014-06-28_18-33-56_260595134347_rgbf000074-resize_0/002199_2014-06-28_18-33-56_260595134347_rgbf000074-resize_0-target.png,depth_discrimination_stimuli/001056_2014-06-08_18-46-44_260595134347_rgbf000068-resize_0/001056_2014-06-08_18-46-44_260595134347_rgbf000068-resize_0-target.png,1000.0,1.996,0.6665000000000001,depth_discrimination_stimuli/002199_2014-06-28_18-33-56_260595134347_rgbf000074-resize_0/002199_2014-06-28_18-33-56_260595134347_rgbf000074-resize_0-target.png,2.6625,0.0,516.0,1001.0,1000.0,1000.0,1000.0,500.0,,633057.0,42.0,Man
1073,931134.0,A3KPNQGV1DGJD5,DepthScenes,v2_duration_discrimination,discrim_jsons/Discrim1000_randls_56_rotated.json,http://54.235.29.9/FacialAge/BNav_EC2/DepthDuration/v2_depth_discrimination_MTurk/v2_DepthDiscrim_HTML.html#248,248.0,1920.0,936.0,1920.0,1080.0,9-6-2022,-4.648942619609032,9-50-58,42.0,depth_discrimination_stimuli/001617_2014-06-20_11-35-32_260595134347_rgbf000066-resize_1/001617_2014-06-20_11-35-32_260595134347_rgbf000066-resize_1-target.png,depth_discrimination_stimuli/001806_2014-06-26_20-50-20_260595134347_rgbf000091-resize_1/001806_2014-06-26_20-50-20_260595134347_rgbf000091-resize_1-target.png,1000.0,3.7910000000000004,1.0605000000000002,depth_discrimination_stimuli/001806_2014-06-26_20-50-20_260595134347_rgbf000091-resize_1/001806_2014-06-26_20-50-20_260595134347_rgbf000091-resize_1-target.png,2.7305,1.0,600.0,1001.0,1000.0,1000.0,1000.0,499.0,,633057.0,42.0,Man
1074,931134.0,A3KPNQGV1DGJD5,DepthScenes,v2_duration_discrimination,discrim_jsons/Discrim1000_randls_56_rotated.json,http://54.235.29.9/FacialAge/BNav_EC2/DepthDuration/v2_depth_discrimination_MTurk/v2_DepthDiscrim_HTML.html#248,248.0,1920.0,936.0,1920.0,1080.0,9-6-2022,-4.878460894841144,9-50-58,43.0,depth_discrimination_stimuli/002758_2014-06-22_19-11-20_094959634447_rgbf000128-resize_1/002758_2014-06-22_19-11-20_094959634447_rgbf000128-resize_1-target.png,depth_discrimination_stimuli/002630_2014-06-24_14-47-50_094959634447_rgbf000055-resize_1/002630_2014-06-24_14-47-50_094959634447_rgbf000055-resize_1-target.png,1000.0,2.555,0.4544999999999999,depth_discrimination_stimuli/002758_2014-06-22_19-11-20_094959634447_rgbf000128-resize_1/002758_2014-06-22_19-11-20_094959634447_rgbf000128-resize_1-target.png,3.0095,0.0,514.0,1000.0,999.0,1000.0,999.0,500.0,,633057.0,42.0,Man
1075,931134.0,A3KPNQGV1DGJD5,DepthScenes,v2_duration_discrimination,discrim_jsons/Discrim1000_randls_56_rotated.json,http://54.235.29.9/FacialAge/BNav_EC2/DepthDuration/v2_depth_discrimination_MTurk/v2_DepthDiscrim_HTML.html#248,248.0,1920.0,936.0,1920.0,1080.0,9-6-2022,-3.493344791986892,9-50-58,44.0,depth_discrimination_stimuli/000502_2014-06-08_23-02-32_260595134347_rgbf000063-resize_4/000502_2014-06-08_23-02-32_260595134347_rgbf000063-resize_4-target.png,depth_discrimination_stimuli/001199_2014-06-17_16-03-48_260595134347_rgbf000077-resize_0/001199_2014-06-17_16-03-48_260595134347_rgbf000077-resize_0-target.png,1000.0,2.431,1.0065,depth_discrimination_stimuli/000502_2014-06-08_23-02-32_260595134347_rgbf000063-resize_4/000502_2014-06-08_23-02-32_260595134347_rgbf000063-resize_4-target.png,3.4375,0.0,1033.0,1001.0,1000.0,1000.0,1000.0,500.0,,633057.0,42.0,Man
1076,931134.0,A3KPNQGV1DGJD5,DepthScenes,v2_duration_discrimination,discrim_jsons/Discrim1000_randls_56_rotated.json,http://54.235.29.9/FacialAge/BNav_EC2/DepthDuration/v2_depth_discrimination_MTurk/v2_DepthDiscrim_HTML.html#248,248.0,1920.0,936.0,1920.0,1080.0,9-6-2022,-4.2859834866838336,9-50-58,45.0,depth_discrimination_stimuli/000709_2014-06-08_13-51-55_260595134347_rgbf000068-resize_3/000709_2014-06-08_13-51-55_260595134347_rgbf000068-resize_3-target.png,depth_discrimination_stimuli/002057_2014-06-24_21-00-13_260595134347_rgbf000120-resize_1/002057_2014-06-24_21-00-13_260595134347_rgbf000120-resize_1-target.png,1000.0,1.8030000000000002,1.164,depth_discrimination_stimuli/000709_2014-06-08_13-51-55_260595134347_rgbf000068-resize_3/000709_2014-06-08_13-51-55_260595134347_rgbf000068-resize_3-target.png,2.967,1.0,736.0,1000.0,999.0,1000.0,999.0,500.0,,633057.0,42.0,Man
1077,931134.0,A3KPNQGV1DGJD5,DepthScenes,v2_duration_discrimination,discrim_jsons/Discrim1000_randls_56_rotated.json,http://54.235.29.9/FacialAge/BNav_EC2/DepthDuration/v2_depth_discrimination_MTurk/v2_DepthDiscrim_HTML.html#248,248.0,1920.0,936.0,1920.0,1080.0,9-6-2022,-3.6721555412956297,9-50-58,46.0,depth_discrimination_stimuli/001132_2014-06-17_14-48-54_260595134347_rgbf000100-resize_2/001132_2014-06-17_14-48-54_260595134347_rgbf000100-resize_2-target.png,depth_discrimination_stimuli/001133_2014-06-17_14-49-16_260595134347_rgbf000100-resize_0/001133_2014-06-17_14-49-16_260595134347_rgbf000100-resize_0-target.png,1000.0,3.753,0.4584999999999999,depth_discrimination_stimuli/001132_2014-06-17_14-48-54_260595134347_rgbf000100-resize_2/001132_2014-06-17_14-48-54_260595134347_rgbf000100-resize_2-target.png,4.2115,0.0,966.0,1001.0,999.0,1000.0,1000.0,500.0,,633057.0,42.0,Man
1078,931134.0,A3KPNQGV1DGJD5,DepthScenes,v2_duration_discrimination,discrim_jsons/Discrim1000_randls_56_rotated.json,http://54.235.29.9/FacialAge/BNav_EC2/DepthDuration/v2_depth_discrimination_MTurk/v2_DepthDiscrim_HTML.html#248,248.0,1920.0,936.0,1920.0,1080.0,9-6-2022,-2.4551749191346692,9-50-58,47.0,depth_discrimination_stimuli/001235_2014-06-17_16-37-36_260595134347_rgbf000084-resize_4/001235_2014-06-17_16-37-36_260595134347_rgbf000084-resize_4-target.png,depth_discrimination_stimuli/000788_2014-06-08_22-34-36_260595134347_rgbf000131-resize_1/000788_2014-06-08_22-34-36_260595134347_rgbf000131-resize_1-target.png,1000.0,3.6605,0.3014999999999999,depth_discrimination_stimuli/000788_2014-06-08_22-34-36_260595134347_rgbf000131-resize_1/000788_2014-06-08_22-34-36_260595134347_rgbf000131-resize_1-target.png,3.359,1.0,1422.0,1001.0,1000.0,1000.0,1000.0,500.0,,633057.0,42.0,Man
1079,931134.0,A3KPNQGV1DGJD5,DepthScenes,v2_duration_discrimination,discrim_jsons/Discrim1000_randls_56_rotated.json,http://54.235.29.9/FacialAge/BNav_EC2/DepthDuration/v2_depth_discrimination_MTurk/v2_DepthDiscrim_HTML.html#248,248.0,1920.0,936.0,1920.0,1080.0,9-6-2022,-1.7292566532842715,9-50-58,48.0,depth_discrimination_stimuli/003083_2014-06-15_15-21-03_094959634447_rgbf000063-resize_1/003083_2014-06-15_15-21-03_094959634447_rgbf000063-resize_1-target.png,depth_discrimination_stimuli/000486_2014-06-09_20-47-20_260595134347_rgbf000143-resize_2/000486_2014-06-09_20-47-20_260595134347_rgbf000143-resize_2-target.png,1000.0,4.1405,0.6919999999999993,depth_discrimination_stimuli/003083_2014-06-15_15-21-03_094959634447_rgbf000063-resize_1/003083_2014-06-15_15-21-03_094959634447_rgbf000063-resize_1-target.png,4.8325,0.0,1694.0,1001.0,999.0,1000.0,999.0,500.0,,633057.0,42.0,Man
1080,931134.0,A3KPNQGV1DGJD5,DepthScenes,v2_duration_discrimination,discrim_jsons/Discrim1000_randls_56_rotated.json,http://54.235.29.9/FacialAge/BNav_EC2/DepthDuration/v2_depth_discrimination_MTurk/v2_DepthDiscrim_HTML.html#248,248.0,1920.0,936.0,1920.0,1080.0,9-6-2022,-3.3332157627551866,9-50-58,49.0,depth_discrimination_stimuli/001516_2014-06-20_16-25-09_260595134347_rgbf000076-resize_2/001516_2014-06-20_16-25-09_260595134347_rgbf000076-resize_2-target.png,depth_discrimination_stimuli/002118_2014-06-25_20-32-08_260595134347_rgbf000078-resize_1/002118_2014-06-25_20-32-08_260595134347_rgbf000078-resize_1-target.png,1000.0,1.7445,0.9015000000000004,depth_discrimination_stimuli/001516_2014-06-20_16-25-09_260595134347_rgbf000076-resize_2/001516_2014-06-20_16-25-09_260595134347_rgbf000076-resize_2-target.png,2.6460000000000004,0.0,1093.0,1000.0,999.0,1001.0,999.0,500.0,,633057.0,42.0,Man
1081,931134.0,A3KPNQGV1DGJD5,DepthScenes,v2_duration_discrimination,discrim_jsons/Discrim1000_randls_56_rotated.json,http://54.235.29.9/FacialAge/BNav_EC2/DepthDuration/v2_depth_discrimination_MTurk/v2_DepthDiscrim_HTML.html#248,248.0,1920.0,936.0,1920.0,1080.0,9-6-2022,-1.48372547512899,9-50-58,50.0,depth_discrimination_stimuli/002425_2014-06-28_20-27-29_260595134347_rgbf000031-resize_8/002425_2014-06-28_20-27-29_260595134347_rgbf000031-resize_8-target.png,depth_discrimination_stimuli/000642_2014-06-08_16-59-25_260595134347_rgbf000098-resize_2/000642_2014-06-08_16-59-25_260595134347_rgbf000098-resize_2-target.png,1000.0,3.8960000000000004,1.0145000000000004,depth_discrimination_stimuli/000642_2014-06-08_16-59-25_260595134347_rgbf000098-resize_2/000642_2014-06-08_16-59-25_260595134347_rgbf000098-resize_2-target.png,2.8815,1.0,1786.0,1001.0,999.0,1000.0,999.0,500.0,,633057.0,42.0,Man
1082,931134.0,A3KPNQGV1DGJD5,DepthScenes,v2_duration_discrimination,discrim_jsons/Discrim1000_randls_56_rotated.json,http://54.235.29.9/FacialAge/BNav_EC2/DepthDuration/v2_depth_discrimination_MTurk/v2_DepthDiscrim_HTML.html#248,248.0,1920.0,936.0,1920.0,1080.0,9-6-2022,-4.979875946687891,9-50-58,51.0,depth_discrimination_stimuli/000483_2014-06-09_20-41-45_260595134347_rgbf000116-resize_4/000483_2014-06-09_20-41-45_260595134347_rgbf000116-resize_4-target.png,depth_discrimination_stimuli/000469_2014-06-09_19-42-10_260595134347_rgbf000081-resize_1/000469_2014-06-09_19-42-10_260595134347_rgbf000081-resize_1-target.png,1000.0,1.337,0.31499999999999995,depth_discrimination_stimuli/000483_2014-06-09_20-41-45_260595134347_rgbf000116-resize_4/000483_2014-06-09_20-41-45_260595134347_rgbf000116-resize_4-target.png,1.652,0.0,476.0,1000.0,999.0,1000.0,999.0,500.0,,633057.0,42.0,Man
1084,931134.0,A3KPNQGV1DGJD5,DepthScenes,v2_duration_discrimination,discrim_jsons/Discrim1000_randls_56_rotated.json,http://54.235.29.9/FacialAge/BNav_EC2/DepthDuration/v2_depth_discrimination_MTurk/v2_DepthDiscrim_HTML.html#248,248.0,1920.0,936.0,1920.0,1080.0,9-6-2022,-3.149067379138726,9-50-58,53.0,depth_discrimination_stimuli/000691_2014-06-08_13-08-50_260595134347_rgbf000132-resize_3/000691_2014-06-08_13-08-50_260595134347_rgbf000132-resize_3-target.png,depth_discrimination_stimuli/002213_2014-06-28_18-37-58_260595134347_rgbf000055-resize_1/002213_2014-06-28_18-37-58_260595134347_rgbf000055-resize_1-target.png,1000.0,4.1530000000000005,0.5330000000000004,depth_discrimination_stimuli/002213_2014-06-28_18-37-58_260595134347_rgbf000055-resize_1/002213_2014-06-28_18-37-58_260595134347_rgbf000055-resize_1-target.png,3.62,0.0,1162.0,1001.0,1000.0,1000.0,1000.0,500.0,,633057.0,42.0,Man
1085,931134.0,A3KPNQGV1DGJD5,DepthScenes,v2_duration_discrimination,discrim_jsons/Discrim1000_randls_56_rotated.json,http://54.235.29.9/FacialAge/BNav_EC2/DepthDuration/v2_depth_discrimination_MTurk/v2_DepthDiscrim_HTML.html#248,248.0,1920.0,936.0,1920.0,1080.0,9-6-2022,-4.715663048455577,9-50-58,54.0,depth_discrimination_stimuli/002657_2014-06-13_15-29-54_094959634447_rgbf000150-resize_1/002657_2014-06-13_15-29-54_094959634447_rgbf000150-resize_1-target.png,depth_discrimination_stimuli/002375_2014-06-28_20-13-44_260595134347_rgbf000032-resize_1/002375_2014-06-28_20-13-44_260595134347_rgbf000032-resize_1-target.png,1000.0,4.919,0.9014999999999995,depth_discrimination_stimuli/002375_2014-06-28_20-13-44_260595134347_rgbf000032-resize_1/002375_2014-06-28_20-13-44_260595134347_rgbf000032-resize_1-target.png,4.0175,1.0,575.0,1001.0,1000.0,1000.0,1000.0,500.0,,633057.0,42.0,Man
1086,931134.0,A3KPNQGV1DGJD5,DepthScenes,v2_duration_discrimination,discrim_jsons/Discrim1000_randls_56_rotated.json,http://54.235.29.9/FacialAge/BNav_EC2/DepthDuration/v2_depth_discrimination_MTurk/v2_DepthDiscrim_HTML.html#248,248.0,1920.0,936.0,1920.0,1080.0,9-6-2022,-3.968394245374285,9-50-58,55.0,depth_discrimination_stimuli/000927_2014-06-09_16-32-30_260595134347_rgbf000123-resize_3/000927_2014-06-09_16-32-30_260595134347_rgbf000123-resize_3-target.png,depth_discrimination_stimuli/001110_2014-06-15_17-25-28_260595134347_rgbf000150-resize_1/001110_2014-06-15_17-25-28_260595134347_rgbf000150-resize_1-target.png,1000.0,2.6785,0.9670000000000001,depth_discrimination_stimuli/001110_2014-06-15_17-25-28_260595134347_rgbf000150-resize_1/001110_2014-06-15_17-25-28_260595134347_rgbf000150-resize_1-target.png,1.7115,1.0,855.0,1001.0,999.0,1000.0,999.0,500.0,,633057.0,42.0,Man
1087,931134.0,A3KPNQGV1DGJD5,DepthScenes,v2_duration_discrimination,discrim_jsons/Discrim1000_randls_56_rotated.json,http://54.235.29.9/FacialAge/BNav_EC2/DepthDuration/v2_depth_discrimination_MTurk/v2_DepthDiscrim_HTML.html#248,248.0,1920.0,936.0,1920.0,1080.0,9-6-2022,-4.600903910839521,9-50-58,56.0,depth_discrimination_stimuli/001447_2014-06-19_17-00-32_260595134347_rgbf000082-resize_5/001447_2014-06-19_17-00-32_260595134347_rgbf000082-resize_5-target.png,depth_discrimination_stimuli/000447_2014-06-08_16-15-46_260595134347_rgbf000130-resize_1/000447_2014-06-08_16-15-46_260595134347_rgbf000130-resize_1-target.png,1000.0,4.13775,0.3412500000000005,depth_discrimination_stimuli/001447_2014-06-19_17-00-32_260595134347_rgbf000082-resize_5/001447_2014-06-19_17-00-32_260595134347_rgbf000082-resize_5-target.png,4.479,0.0,618.0,1001.0,999.0,1000.0,999.0,500.0,,633057.0,42.0,Man
1088,931134.0,A3KPNQGV1DGJD5,DepthScenes,v2_duration_discrimination,discrim_jsons/Discrim1000_randls_56_rotated.json,http://54.235.29.9/FacialAge/BNav_EC2/DepthDuration/v2_depth_discrimination_MTurk/v2_DepthDiscrim_HTML.html#248,248.0,1920.0,936.0,1920.0,1080.0,9-6-2022,-4.208587789221843,9-50-58,57.0,depth_discrimination_stimuli/000854_2014-06-09_19-43-13_260595134347_rgbf000066-resize_0/000854_2014-06-09_19-43-13_260595134347_rgbf000066-resize_0-target.png,depth_discrimination_stimuli/000758_2014-06-08_22-05-08_260595134347_rgbf000085-resize_0/000758_2014-06-08_22-05-08_260595134347_rgbf000085-resize_0-target.png,1000.0,3.068,0.31300000000000017,depth_discrimination_stimuli/000854_2014-06-09_19-43-13_260595134347_rgbf000066-resize_0/000854_2014-06-09_19-43-13_260595134347_rgbf000066-resize_0-target.png,3.3810000000000002,1.0,765.0,1001.0,999.0,1000.0,999.0,500.0,,633057.0,42.0,Man
1089,931134.0,A3KPNQGV1DGJD5,DepthScenes,v2_duration_discrimination,discrim_jsons/Discrim1000_randls_56_rotated.json,http://54.235.29.9/FacialAge/BNav_EC2/DepthDuration/v2_depth_discrimination_MTurk/v2_DepthDiscrim_HTML.html#248,248.0,1920.0,936.0,1920.0,1080.0,9-6-2022,-4.915824334995208,9-50-58,58.0,depth_discrimination_stimuli/000780_2014-06-08_22-28-29_260595134347_rgbf000126-resize_1/000780_2014-06-08_22-28-29_260595134347_rgbf000126-resize_1-target.png,depth_discrimination_stimuli/002445_2014-06-28_20-32-16_260595134347_rgbf000029-resize_4/002445_2014-06-28_20-32-16_260595134347_rgbf000029-resize_4-target.png,1000.0,3.3825,0.851,depth_discrimination_stimuli/002445_2014-06-28_20-32-16_260595134347_rgbf000029-resize_4/002445_2014-06-28_20-32-16_260595134347_rgbf000029-resize_4-target.png,2.5315,1.0,500.0,1001.0,1000.0,1000.0,1000.0,500.0,,633057.0,42.0,Man
1090,931134.0,A3KPNQGV1DGJD5,DepthScenes,v2_duration_discrimination,discrim_jsons/Discrim1000_randls_56_rotated.json,http://54.235.29.9/FacialAge/BNav_EC2/DepthDuration/v2_depth_discrimination_MTurk/v2_DepthDiscrim_HTML.html#248,248.0,1920.0,936.0,1920.0,1080.0,9-6-2022,-4.654280253916756,9-50-58,59.0,depth_discrimination_stimuli/001032_2014-06-08_13-23-17_260595134347_rgbf000021-resize_3/001032_2014-06-08_13-23-17_260595134347_rgbf000021-resize_3-target.png,depth_discrimination_stimuli/001059_2014-06-08_21-53-27_260595134347_rgbf000061-resize_4/001059_2014-06-08_21-53-27_260595134347_rgbf000061-resize_4-target.png,1000.0,3.2725,0.8540000000000001,depth_discrimination_stimuli/001059_2014-06-08_21-53-27_260595134347_rgbf000061-resize_4/001059_2014-06-08_21-53-27_260595134347_rgbf000061-resize_4-target.png,2.4185,1.0,598.0,1001.0,999.0,1000.0,999.0,500.0,,633057.0,42.0,Man
1091,931134.0,A3KPNQGV1DGJD5,DepthScenes,v2_duration_discrimination,discrim_jsons/Discrim1000_randls_56_rotated.json,http://54.235.29.9/FacialAge/BNav_EC2/DepthDuration/v2_depth_discrimination_MTurk/v2_DepthDiscrim_HTML.html#248,248.0,1920.0,936.0,1920.0,1080.0,9-6-2022,-3.82427811906575,9-50-58,60.0,depth_discrimination_stimuli/003587_2014-05-23_16-48-02_094959634447_rgbf002384-resize_2/003587_2014-05-23_16-48-02_094959634447_rgbf002384-resize_2-target.png,depth_discrimination_stimuli/001167_2014-06-17_15-38-07_260595134347_rgbf000108-resize_0/001167_2014-06-17_15-38-07_260595134347_rgbf000108-resize_0-target.png,1000.0,1.357,0.49350000000000005,depth_discrimination_stimuli/003587_2014-05-23_16-48-02_094959634447_rgbf002384-resize_2/003587_2014-05-23_16-48-02_094959634447_rgbf002384-resize_2-target.png,1.8505,1.0,909.0,1001.0,999.0,1000.0,999.0,500.0,,633057.0,42.0,Man
1092,931134.0,A3KPNQGV1DGJD5,DepthScenes,v2_duration_discrimination,discrim_jsons/Discrim1000_randls_56_rotated.json,http://54.235.29.9/FacialAge/BNav_EC2/DepthDuration/v2_depth_discrimination_MTurk/v2_DepthDiscrim_HTML.html#248,248.0,1920.0,936.0,1920.0,1080.0,9-6-2022,-3.624116832526118,9-50-58,61.0,depth_discrimination_stimuli/000457_2014-06-08_16-52-43_260595134347_rgbf000199-resize_1/000457_2014-06-08_16-52-43_260595134347_rgbf000199-resize_1-target.png,depth_discrimination_stimuli/000929_2014-06-09_16-33-19_260595134347_rgbf000139-resize_0/000929_2014-06-09_16-33-19_260595134347_rgbf000139-resize_0-target.png,1000.0,3.6489999999999996,0.7809999999999993,depth_discrimination_stimuli/000929_2014-06-09_16-33-19_260595134347_rgbf000139-resize_0/000929_2014-06-09_16-33-19_260595134347_rgbf000139-resize_0-target.png,2.8680000000000003,0.0,984.0,1001.0,999.0,1000.0,999.0,500.0,,633057.0,42.0,Man
1093,931134.0,A3KPNQGV1DGJD5,DepthScenes,v2_duration_discrimination,discrim_jsons/Discrim1000_randls_56_rotated.json,http://54.235.29.9/FacialAge/BNav_EC2/DepthDuration/v2_depth_discrimination_MTurk/v2_DepthDiscrim_HTML.html#248,248.0,1920.0,936.0,1920.0,1080.0,9-6-2022,-1.9507684770547973,9-50-58,62.0,depth_discrimination_stimuli/002660_2014-06-13_15-44-18_094959634447_rgbf001878-resize_2/002660_2014-06-13_15-44-18_094959634447_rgbf001878-resize_2-target.png,depth_discrimination_stimuli/002153_2014-06-25_21-27-18_260595134347_rgbf000038-resize_5/002153_2014-06-25_21-27-18_260595134347_rgbf000038-resize_5-target.png,1000.0,3.576,1.0710000000000002,depth_discrimination_stimuli/002153_2014-06-25_21-27-18_260595134347_rgbf000038-resize_5/002153_2014-06-25_21-27-18_260595134347_rgbf000038-resize_5-target.png,2.505,1.0,1611.0,1001.0,999.0,1000.0,999.0,500.0,,633057.0,42.0,Man
1095,931134.0,A3KPNQGV1DGJD5,DepthScenes,v2_duration_discrimination,discrim_jsons/Discrim1000_randls_56_rotated.json,http://54.235.29.9/FacialAge/BNav_EC2/DepthDuration/v2_depth_discrimination_MTurk/v2_DepthDiscrim_HTML.html#248,248.0,1920.0,936.0,1920.0,1080.0,9-6-2022,-4.187237251990949,9-50-58,64.0,depth_discrimination_stimuli/002953_2014-06-08_17-32-18_094959634447_rgbf000059-resize_5/002953_2014-06-08_17-32-18_094959634447_rgbf000059-resize_5-target.png,depth_discrimination_stimuli/000878_2014-06-08_22-52-45_260595134347_rgbf000045-resize_2/000878_2014-06-08_22-52-45_260595134347_rgbf000045-resize_2-target.png,1000.0,1.551,0.5410000000000001,depth_discrimination_stimuli/002953_2014-06-08_17-32-18_094959634447_rgbf000059-resize_5/002953_2014-06-08_17-32-18_094959634447_rgbf000059-resize_5-target.png,2.092,0.0,773.0,1001.0,1000.0,1000.0,999.0,500.0,,633057.0,42.0,Man
1096,931134.0,A3KPNQGV1DGJD5,DepthScenes,v2_duration_discrimination,discrim_jsons/Discrim1000_randls_56_rotated.json,http://54.235.29.9/FacialAge/BNav_EC2/DepthDuration/v2_depth_discrimination_MTurk/v2_DepthDiscrim_HTML.html#248,248.0,1920.0,936.0,1920.0,1080.0,9-6-2022,-4.237944777914322,9-50-58,65.0,depth_discrimination_stimuli/003423_2014-05-21_10-23-26_094959634447_rgbf002665-resize_2/003423_2014-05-21_10-23-26_094959634447_rgbf002665-resize_2-target.png,depth_discrimination_stimuli/002905_2014-06-03_18-04-43_094959634447_rgbf000151-resize_2/002905_2014-06-03_18-04-43_094959634447_rgbf000151-resize_2-target.png,1000.0,3.2575,1.2279999999999998,depth_discrimination_stimuli/002905_2014-06-03_18-04-43_094959634447_rgbf000151-resize_2/002905_2014-06-03_18-04-43_094959634447_rgbf000151-resize_2-target.png,2.0295,1.0,754.0,1001.0,1000.0,1000.0,1000.0,500.0,,633057.0,42.0,Man
1097,931134.0,A3KPNQGV1DGJD5,DepthScenes,v2_duration_discrimination,discrim_jsons/Discrim1000_randls_56_rotated.json,http://54.235.29.9/FacialAge/BNav_EC2/DepthDuration/v2_depth_discrimination_MTurk/v2_DepthDiscrim_HTML.html#248,248.0,1920.0,936.0,1920.0,1080.0,9-6-2022,-2.7647577089826325,9-50-58,66.0,depth_discrimination_stimuli/000191_2014-05-12_17-07-38_260595134347_rgbf000199-resize_0/000191_2014-05-12_17-07-38_260595134347_rgbf000199-resize_0-target.png,depth_discrimination_stimuli/000493_2014-06-09_21-01-18_260595134347_rgbf000196-resize_3/000493_2014-06-09_21-01-18_260595134347_rgbf000196-resize_3-target.png,1000.0,3.7995,0.35950000000000015,depth_discrimination_stimuli/000493_2014-06-09_21-01-18_260595134347_rgbf000196-resize_3/000493_2014-06-09_21-01-18_260595134347_rgbf000196-resize_3-target.png,3.44,1.0,1306.0,1001.0,999.0,1000.0,999.0,501.0,,633057.0,42.0,Man
1098,931134.0,A3KPNQGV1DGJD5,DepthScenes,v2_duration_discrimination,discrim_jsons/Discrim1000_randls_56_rotated.json,http://54.235.29.9/FacialAge/BNav_EC2/DepthDuration/v2_depth_discrimination_MTurk/v2_DepthDiscrim_HTML.html#248,248.0,1920.0,936.0,1920.0,1080.0,9-6-2022,-4.518170579069807,9-50-58,67.0,depth_discrimination_stimuli/001571_2014-06-20_17-21-32_260595134347_rgbf000089-resize_1/001571_2014-06-20_17-21-32_260595134347_rgbf000089-resize_1-target.png,depth_discrimination_stimuli/002272_2014-06-28_18-53-56_260595134347_rgbf000067-resize_2/002272_2014-06-28_18-53-56_260595134347_rgbf000067-resize_2-target.png,1000.0,1.86,0.7220000000000002,depth_discrimination_stimuli/002272_2014-06-28_18-53-56_260595134347_rgbf000067-resize_2/002272_2014-06-28_18-53-56_260595134347_rgbf000067-resize_2-target.png,1.138,1.0,649.0,1001.0,1000.0,1000.0,1000.0,500.0,,633057.0,42.0,Man
1099,931134.0,A3KPNQGV1DGJD5,DepthScenes,v2_duration_discrimination,discrim_jsons/Discrim1000_randls_56_rotated.json,http://54.235.29.9/FacialAge/BNav_EC2/DepthDuration/v2_depth_discrimination_MTurk/v2_DepthDiscrim_HTML.html#248,248.0,1920.0,936.0,1920.0,1080.0,9-6-2022,-3.62678564967998,9-50-58,68.0,depth_discrimination_stimuli/002568_2014-06-24_13-59-21_094959634447_rgbf000062-resize_4/002568_2014-06-24_13-59-21_094959634447_rgbf000062-resize_4-target.png,depth_discrimination_stimuli/003492_2014-05-21_15-50-55_094959634447_rgbf000828-resize_1/003492_2014-05-21_15-50-55_094959634447_rgbf000828-resize_1-target.png,1000.0,3.015,1.0537499999999995,depth_discrimination_stimuli/002568_2014-06-24_13-59-21_094959634447_rgbf000062-resize_4/002568_2014-06-24_13-59-21_094959634447_rgbf000062-resize_4-target.png,4.06875,0.0,983.0,1000.0,1000.0,1000.0,999.0,500.0,,633057.0,42.0,Man
1100,931134.0,A3KPNQGV1DGJD5,DepthScenes,v2_duration_discrimination,discrim_jsons/Discrim1000_randls_56_rotated.json,http://54.235.29.9/FacialAge/BNav_EC2/DepthDuration/v2_depth_discrimination_MTurk/v2_DepthDiscrim_HTML.html#248,248.0,1920.0,936.0,1920.0,1080.0,9-6-2022,-4.104503920221235,9-50-58,69.0,depth_discrimination_stimuli/000549_2014-06-08_22-10-24_260595134347_rgbf000247-resize_3/000549_2014-06-08_22-10-24_260595134347_rgbf000247-resize_3-target.png,depth_discrimination_stimuli/001055_2014-06-08_18-45-35_260595134347_rgbf000111-resize_4/001055_2014-06-08_18-45-35_260595134347_rgbf000111-resize_4-target.png,1000.0,1.841,0.5880000000000003,depth_discrimination_stimuli/000549_2014-06-08_22-10-24_260595134347_rgbf000247-resize_3/000549_2014-06-08_22-10-24_260595134347_rgbf000247-resize_3-target.png,2.4290000000000003,0.0,804.0,1001.0,1000.0,1000.0,1000.0,500.0,,633057.0,42.0,Man
1101,931134.0,A3KPNQGV1DGJD5,DepthScenes,v2_duration_discrimination,discrim_jsons/Discrim1000_randls_56_rotated.json,http://54.235.29.9/FacialAge/BNav_EC2/DepthDuration/v2_depth_discrimination_MTurk/v2_DepthDiscrim_HTML.html#248,248.0,1920.0,936.0,1920.0,1080.0,9-6-2022,-4.422093161530784,9-50-58,70.0,depth_discrimination_stimuli/002323_2014-06-28_20-01-54_260595134347_rgbf000051-resize_4/002323_2014-06-28_20-01-54_260595134347_rgbf000051-resize_4-target.png,depth_discrimination_stimuli/000917_2014-06-09_22-45-29_260595134347_rgbf000149-resize_3/000917_2014-06-09_22-45-29_260595134347_rgbf000149-resize_3-target.png,1000.0,3.7310000000000003,0.45549999999999935,depth_discrimination_stimuli/002323_2014-06-28_20-01-54_260595134347_rgbf000051-resize_4/002323_2014-06-28_20-01-54_260595134347_rgbf000051-resize_4-target.png,4.1865,1.0,685.0,1001.0,999.0,1000.0,1000.0,500.0,,633057.0,42.0,Man
1103,931134.0,A3KPNQGV1DGJD5,DepthScenes,v2_duration_discrimination,discrim_jsons/Discrim1000_randls_56_rotated.json,http://54.235.29.9/FacialAge/BNav_EC2/DepthDuration/v2_depth_discrimination_MTurk/v2_DepthDiscrim_HTML.html#248,248.0,1920.0,936.0,1920.0,1080.0,9-6-2022,-4.635598533839724,9-50-58,72.0,depth_discrimination_stimuli/001828_2014-06-26_21-40-03_260595134347_rgbf000024-resize_0/001828_2014-06-26_21-40-03_260595134347_rgbf000024-resize_0-target.png,depth_discrimination_stimuli/000009_2014-05-26_14-32-05_260595134347_rgbf000034-resize_3/000009_2014-05-26_14-32-05_260595134347_rgbf000034-resize_3-target.png,1000.0,4.8260000000000005,0.9545000000000003,depth_discrimination_stimuli/000009_2014-05-26_14-32-05_260595134347_rgbf000034-resize_3/000009_2014-05-26_14-32-05_260595134347_rgbf000034-resize_3-target.png,3.8715,0.0,605.0,1001.0,1000.0,1000.0,1000.0,500.0,,633057.0,42.0,Man
1104,931134.0,A3KPNQGV1DGJD5,DepthScenes,v2_duration_discrimination,discrim_jsons/Discrim1000_randls_56_rotated.json,http://54.235.29.9/FacialAge/BNav_EC2/DepthDuration/v2_depth_discrimination_MTurk/v2_DepthDiscrim_HTML.html#248,248.0,1920.0,936.0,1920.0,1080.0,9-6-2022,-2.1455921292867055,9-50-58,73.0,depth_discrimination_stimuli/001100_2014-06-15_17-46-26_260595134347_rgbf000225-resize_2/001100_2014-06-15_17-46-26_260595134347_rgbf000225-resize_2-target.png,depth_discrimination_stimuli/002784_2014-06-22_19-26-30_094959634447_rgbf000083-resize_3/002784_2014-06-22_19-26-30_094959634447_rgbf000083-resize_3-target.png,1000.0,2.24,0.43533333333330027,depth_discrimination_stimuli/002784_2014-06-22_19-26-30_094959634447_rgbf000083-resize_3/002784_2014-06-22_19-26-30_094959634447_rgbf000083-resize_3-target.png,1.8046666666667,0.0,1538.0,1000.0,999.0,1001.0,1000.0,500.0,,633057.0,42.0,Man
1105,931134.0,A3KPNQGV1DGJD5,DepthScenes,v2_duration_discrimination,discrim_jsons/Discrim1000_randls_56_rotated.json,http://54.235.29.9/FacialAge/BNav_EC2/DepthDuration/v2_depth_discrimination_MTurk/v2_DepthDiscrim_HTML.html#248,248.0,1920.0,936.0,1920.0,1080.0,9-6-2022,-3.810934033296441,9-50-58,74.0,depth_discrimination_stimuli/002103_2014-06-25_20-00-40_260595134347_rgbf000049-resize_0/002103_2014-06-25_20-00-40_260595134347_rgbf000049-resize_0-target.png,depth_discrimination_stimuli/002039_2014-06-24_20-22-38_260595134347_rgbf000084-resize_1/002039_2014-06-24_20-22-38_260595134347_rgbf000084-resize_1-target.png,1000.0,4.105,0.30299999999999994,depth_discrimination_stimuli/002103_2014-06-25_20-00-40_260595134347_rgbf000049-resize_0/002103_2014-06-25_20-00-40_260595134347_rgbf000049-resize_0-target.png,4.408,0.0,914.0,1001.0,1000.0,1000.0,999.0,500.0,,633057.0,42.0,Man
1106,931134.0,A3KPNQGV1DGJD5,DepthScenes,v2_duration_discrimination,discrim_jsons/Discrim1000_randls_56_rotated.json,http://54.235.29.9/FacialAge/BNav_EC2/DepthDuration/v2_depth_discrimination_MTurk/v2_DepthDiscrim_HTML.html#248,248.0,1920.0,936.0,1920.0,1080.0,9-6-2022,-1.6758803102070363,9-50-58,75.0,depth_discrimination_stimuli/002639_2014-06-24_14-51-37_094959634447_rgbf000074-resize_4/002639_2014-06-24_14-51-37_094959634447_rgbf000074-resize_4-target.png,depth_discrimination_stimuli/003292_2014-05-14_21-53-49_094959634447_rgbf000100-resize_2/003292_2014-05-14_21-53-49_094959634447_rgbf000100-resize_2-target.png,1000.0,4.0375,0.5559999999999996,depth_discrimination_stimuli/003292_2014-05-14_21-53-49_094959634447_rgbf000100-resize_2/003292_2014-05-14_21-53-49_094959634447_rgbf000100-resize_2-target.png,3.4815,1.0,1714.0,1001.0,999.0,1000.0,999.0,500.0,,633057.0,42.0,Man
1107,931134.0,A3KPNQGV1DGJD5,DepthScenes,v2_duration_discrimination,discrim_jsons/Discrim1000_randls_56_rotated.json,http://54.235.29.9/FacialAge/BNav_EC2/DepthDuration/v2_depth_discrimination_MTurk/v2_DepthDiscrim_HTML.html#248,248.0,1920.0,936.0,1920.0,1080.0,9-6-2022,-3.1170415732923846,9-50-58,76.0,depth_discrimination_stimuli/000109_2014-05-14_23-41-52_260595134347_rgbf000035-resize_9/000109_2014-05-14_23-41-52_260595134347_rgbf000035-resize_9-target.png,depth_discrimination_stimuli/000470_2014-06-09_19-42-40_260595134347_rgbf000094-resize_1/000470_2014-06-09_19-42-40_260595134347_rgbf000094-resize_1-target.png,1000.0,1.3545,0.4764999999999999,depth_discrimination_stimuli/000109_2014-05-14_23-41-52_260595134347_rgbf000035-resize_9/000109_2014-05-14_23-41-52_260595134347_rgbf000035-resize_9-target.png,1.831,0.0,1174.0,1001.0,999.0,1000.0,999.0,500.0,,633057.0,42.0,Man
1108,931134.0,A3KPNQGV1DGJD5,DepthScenes,v2_duration_discrimination,discrim_jsons/Discrim1000_randls_56_rotated.json,http://54.235.29.9/FacialAge/BNav_EC2/DepthDuration/v2_depth_discrimination_MTurk/v2_DepthDiscrim_HTML.html#248,248.0,1920.0,936.0,1920.0,1080.0,9-6-2022,-4.269970583760664,9-50-58,77.0,depth_discrimination_stimuli/001094_2014-06-15_17-36-00_260595134347_rgbf000205-resize_0/001094_2014-06-15_17-36-00_260595134347_rgbf000205-resize_0-target.png,depth_discrimination_stimuli/000692_2014-06-08_13-09-42_260595134347_rgbf000199-resize_2/000692_2014-06-08_13-09-42_260595134347_rgbf000199-resize_2-target.png,1000.0,4.2175,0.5565000000000002,depth_discrimination_stimuli/000692_2014-06-08_13-09-42_260595134347_rgbf000199-resize_2/000692_2014-06-08_13-09-42_260595134347_rgbf000199-resize_2-target.png,3.661,0.0,742.0,1000.0,999.0,1000.0,1000.0,500.0,,633057.0,42.0,Man
1109,931134.0,A3KPNQGV1DGJD5,DepthScenes,v2_duration_discrimination,discrim_jsons/Discrim1000_randls_56_rotated.json,http://54.235.29.9/FacialAge/BNav_EC2/DepthDuration/v2_depth_discrimination_MTurk/v2_DepthDiscrim_HTML.html#248,248.0,1920.0,936.0,1920.0,1080.0,9-6-2022,-4.8571103576102495,9-50-58,78.0,depth_discrimination_stimuli/000556_2014-06-09_22-42-56_260595134347_rgbf000214-resize_1/000556_2014-06-09_22-42-56_260595134347_rgbf000214-resize_1-target.png,depth_discrimination_stimuli/001158_2014-06-17_15-32-16_260595134347_rgbf000138-resize_2/001158_2014-06-17_15-32-16_260595134347_rgbf000138-resize_2-target.png,1000.0,4.8415,0.3099999999999996,depth_discrimination_stimuli/001158_2014-06-17_15-32-16_260595134347_rgbf000138-resize_2/001158_2014-06-17_15-32-16_260595134347_rgbf000138-resize_2-target.png,4.5315,0.0,522.0,1000.0,999.0,1000.0,999.0,500.0,,633057.0,42.0,Man
1110,931134.0,A3KPNQGV1DGJD5,DepthScenes,v2_duration_discrimination,discrim_jsons/Discrim1000_randls_56_rotated.json,http://54.235.29.9/FacialAge/BNav_EC2/DepthDuration/v2_depth_discrimination_MTurk/v2_DepthDiscrim_HTML.html#248,248.0,1920.0,936.0,1920.0,1080.0,9-6-2022,-3.608103929602948,9-50-58,79.0,depth_discrimination_stimuli/003010_2014-06-15_12-54-35_094959634447_rgbf000112-resize_0/003010_2014-06-15_12-54-35_094959634447_rgbf000112-resize_0-target.png,depth_discrimination_stimuli/001810_2014-06-26_20-51-35_260595134347_rgbf000040-resize_3/001810_2014-06-26_20-51-35_260595134347_rgbf000040-resize_3-target.png,1000.0,3.1185,0.8660000000000001,depth_discrimination_stimuli/001810_2014-06-26_20-51-35_260595134347_rgbf000040-resize_3/001810_2014-06-26_20-51-35_260595134347_rgbf000040-resize_3-target.png,2.2525,1.0,990.0,1001.0,999.0,1000.0,999.0,500.0,,633057.0,42.0,Man
1112,931134.0,A3KPNQGV1DGJD5,DepthScenes,v2_duration_discrimination,discrim_jsons/Discrim1000_randls_56_rotated.json,http://54.235.29.9/FacialAge/BNav_EC2/DepthDuration/v2_depth_discrimination_MTurk/v2_DepthDiscrim_HTML.html#248,248.0,1920.0,936.0,1920.0,1080.0,9-6-2022,-4.494151224685051,9-50-58,81.0,depth_discrimination_stimuli/002136_2014-06-25_21-18-03_260595134347_rgbf000109-resize_3/002136_2014-06-25_21-18-03_260595134347_rgbf000109-resize_3-target.png,depth_discrimination_stimuli/002964_2014-06-08_17-46-11_094959634447_rgbf000091-resize_4/002964_2014-06-08_17-46-11_094959634447_rgbf000091-resize_4-target.png,1000.0,1.9569999999999999,0.266,depth_discrimination_stimuli/002964_2014-06-08_17-46-11_094959634447_rgbf000091-resize_4/002964_2014-06-08_17-46-11_094959634447_rgbf000091-resize_4-target.png,1.6909999999999998,1.0,658.0,1001.0,999.0,1000.0,999.0,500.0,,633057.0,42.0,Man
1113,931134.0,A3KPNQGV1DGJD5,DepthScenes,v2_duration_discrimination,discrim_jsons/Discrim1000_randls_56_rotated.json,http://54.235.29.9/FacialAge/BNav_EC2/DepthDuration/v2_depth_discrimination_MTurk/v2_DepthDiscrim_HTML.html#248,248.0,1920.0,936.0,1920.0,1080.0,9-6-2022,-3.9817383311435934,9-50-58,82.0,depth_discrimination_stimuli/002209_2014-06-28_18-36-10_260595134347_rgbf000051-resize_1/002209_2014-06-28_18-36-10_260595134347_rgbf000051-resize_1-target.png,depth_discrimination_stimuli/002763_2014-06-22_19-13-10_094959634447_rgbf000075-resize_4/002763_2014-06-22_19-13-10_094959634447_rgbf000075-resize_4-target.png,1000.0,2.057,0.37324999999999986,depth_discrimination_stimuli/002763_2014-06-22_19-13-10_094959634447_rgbf000075-resize_4/002763_2014-06-22_19-13-10_094959634447_rgbf000075-resize_4-target.png,1.68375,1.0,850.0,1000.0,999.0,1000.0,999.0,500.0,,633057.0,42.0,Man
1114,931134.0,A3KPNQGV1DGJD5,DepthScenes,v2_duration_discrimination,discrim_jsons/Discrim1000_randls_56_rotated.json,http://54.235.29.9/FacialAge/BNav_EC2/DepthDuration/v2_depth_discrimination_MTurk/v2_DepthDiscrim_HTML.html#248,248.0,1920.0,936.0,1920.0,1080.0,9-6-2022,-5.062609278457605,9-50-58,83.0,depth_discrimination_stimuli/000103_2014-05-14_22-01-17_260595134347_rgbf000152-resize_5/000103_2014-05-14_22-01-17_260595134347_rgbf000152-resize_5-target.png,depth_discrimination_stimuli/001555_2014-06-20_17-12-10_260595134347_rgbf000065-resize_4/001555_2014-06-20_17-12-10_260595134347_rgbf000065-resize_4-target.png,1000.0,1.993,0.3600000000000001,depth_discrimination_stimuli/001555_2014-06-20_17-12-10_260595134347_rgbf000065-resize_4/001555_2014-06-20_17-12-10_260595134347_rgbf000065-resize_4-target.png,1.633,1.0,445.0,1000.0,1000.0,1000.0,1000.0,500.0,,633057.0,42.0,Man
1115,931134.0,A3KPNQGV1DGJD5,DepthScenes,v2_duration_discrimination,discrim_jsons/Discrim1000_randls_56_rotated.json,http://54.235.29.9/FacialAge/BNav_EC2/DepthDuration/v2_depth_discrimination_MTurk/v2_DepthDiscrim_HTML.html#248,248.0,1920.0,936.0,1920.0,1080.0,9-6-2022,-3.47466307190986,9-50-58,84.0,depth_discrimination_stimuli/000677_2014-06-08_23-10-32_260595134347_rgbf000158-resize_6/000677_2014-06-08_23-10-32_260595134347_rgbf000158-resize_6-target.png,depth_discrimination_stimuli/001029_2014-06-08_13-17-57_260595134347_rgbf000065-resize_1/001029_2014-06-08_13-17-57_260595134347_rgbf000065-resize_1-target.png,1000.0,3.556,0.47250000000000014,depth_discrimination_stimuli/001029_2014-06-08_13-17-57_260595134347_rgbf000065-resize_1/001029_2014-06-08_13-17-57_260595134347_rgbf000065-resize_1-target.png,3.0835,1.0,1040.0,1001.0,1000.0,1000.0,1000.0,500.0,,633057.0,42.0,Man
1116,931134.0,A3KPNQGV1DGJD5,DepthScenes,v2_duration_discrimination,discrim_jsons/Discrim1000_randls_56_rotated.json,http://54.235.29.9/FacialAge/BNav_EC2/DepthDuration/v2_depth_discrimination_MTurk/v2_DepthDiscrim_HTML.html#248,248.0,1920.0,936.0,1920.0,1080.0,9-6-2022,-1.6705426758993127,9-50-58,85.0,depth_discrimination_stimuli/003129_2014-05-12_10-48-10_094959634447_rgbf000100-resize_0/003129_2014-05-12_10-48-10_094959634447_rgbf000100-resize_0-target.png,depth_discrimination_stimuli/000414_2014-06-04_19-49-13_260595134347_rgbf000044-resize_0/000414_2014-06-04_19-49-13_260595134347_rgbf000044-resize_0-target.png,1000.0,4.9305,0.6015000000000006,depth_discrimination_stimuli/000414_2014-06-04_19-49-13_260595134347_rgbf000044-resize_0/000414_2014-06-04_19-49-13_260595134347_rgbf000044-resize_0-target.png,4.329,1.0,1716.0,1001.0,1000.0,1000.0,999.0,500.0,,633057.0,42.0,Man
1117,931134.0,A3KPNQGV1DGJD5,DepthScenes,v2_duration_discrimination,discrim_jsons/Discrim1000_randls_56_rotated.json,http://54.235.29.9/FacialAge/BNav_EC2/DepthDuration/v2_depth_discrimination_MTurk/v2_DepthDiscrim_HTML.html#248,248.0,1920.0,936.0,1920.0,1080.0,9-6-2022,-4.400742624299889,9-50-58,86.0,depth_discrimination_stimuli/002340_2014-06-28_20-05-46_260595134347_rgbf000113-resize_0/002340_2014-06-28_20-05-46_260595134347_rgbf000113-resize_0-target.png,depth_discrimination_stimuli/001016_2014-06-09_16-16-10_260595134347_rgbf000112-resize_5/001016_2014-06-09_16-16-10_260595134347_rgbf000112-resize_5-target.png,1000.0,2.4735,0.817,depth_discrimination_stimuli/001016_2014-06-09_16-16-10_260595134347_rgbf000112-resize_5/001016_2014-06-09_16-16-10_260595134347_rgbf000112-resize_5-target.png,1.6565,1.0,693.0,1001.0,1000.0,1000.0,1000.0,500.0,,633057.0,42.0,Man
1204,989868.0,ATIVK9XUANIUE,DepthScenes,v2_duration_discrimination,discrim_jsons/Discrim1000_randls_15.json,http://54.235.29.9/FacialAge/BNav_EC2/DepthDuration/v2_depth_discrimination_MTurk/v2_DepthDiscrim_HTML.html#433,433.0,2048.0,1027.0,2048.0,1152.0,9-6-2022,-1.9606200465871377,15-48-36,1.0,depth_discrimination_stimuli/002964_2014-06-08_17-46-11_094959634447_rgbf000091-resize_4/002964_2014-06-08_17-46-11_094959634447_rgbf000091-resize_4-target.png,depth_discrimination_stimuli/002136_2014-06-25_21-18-03_260595134347_rgbf000109-resize_3/002136_2014-06-25_21-18-03_260595134347_rgbf000109-resize_3-target.png,1000.0,1.6909999999999998,0.266,depth_discrimination_stimuli/002964_2014-06-08_17-46-11_094959634447_rgbf000091-resize_4/002964_2014-06-08_17-46-11_094959634447_rgbf000091-resize_4-target.png,1.9569999999999999,1.0,906.0,1012.0,994.0,1005.0,996.0,503.0,,741739.0,37.0,Man
1205,989868.0,ATIVK9XUANIUE,DepthScenes,v2_duration_discrimination,discrim_jsons/Discrim1000_randls_15.json,http://54.235.29.9/FacialAge/BNav_EC2/DepthDuration/v2_depth_discrimination_MTurk/v2_DepthDiscrim_HTML.html#433,433.0,2048.0,1027.0,2048.0,1152.0,9-6-2022,-1.5302659626442152,15-48-36,2.0,depth_discrimination_stimuli/002272_2014-06-28_18-53-56_260595134347_rgbf000067-resize_2/002272_2014-06-28_18-53-56_260595134347_rgbf000067-resize_2-target.png,depth_discrimination_stimuli/001571_2014-06-20_17-21-32_260595134347_rgbf000089-resize_1/001571_2014-06-20_17-21-32_260595134347_rgbf000089-resize_1-target.png,1000.0,1.138,0.7220000000000002,depth_discrimination_stimuli/002272_2014-06-28_18-53-56_260595134347_rgbf000067-resize_2/002272_2014-06-28_18-53-56_260595134347_rgbf000067-resize_2-target.png,1.86,1.0,1233.0,1012.0,996.0,995.0,998.0,500.0,,741739.0,37.0,Man
1206,989868.0,ATIVK9XUANIUE,DepthScenes,v2_duration_discrimination,discrim_jsons/Discrim1000_randls_15.json,http://54.235.29.9/FacialAge/BNav_EC2/DepthDuration/v2_depth_discrimination_MTurk/v2_DepthDiscrim_HTML.html#433,433.0,2048.0,1027.0,2048.0,1152.0,9-6-2022,1.5822337576157595,15-48-36,3.0,depth_discrimination_stimuli/002988_2014-06-15_12-24-20_094959634447_rgbf000150-resize_1/002988_2014-06-15_12-24-20_094959634447_rgbf000150-resize_1-target.png,depth_discrimination_stimuli/001052_2014-06-08_18-24-54_260595134347_rgbf000130-resize_1/001052_2014-06-08_18-24-54_260595134347_rgbf000130-resize_1-target.png,1000.0,4.7669999999999995,0.6624999999999996,depth_discrimination_stimuli/001052_2014-06-08_18-24-54_260595134347_rgbf000130-resize_1/001052_2014-06-08_18-24-54_260595134347_rgbf000130-resize_1-target.png,4.1045,2.0,3598.0,1005.0,1009.0,989.0,1001.0,504.0,,741739.0,37.0,Man
1207,989868.0,ATIVK9XUANIUE,DepthScenes,v2_duration_discrimination,discrim_jsons/Discrim1000_randls_15.json,http://54.235.29.9/FacialAge/BNav_EC2/DepthDuration/v2_depth_discrimination_MTurk/v2_DepthDiscrim_HTML.html#433,433.0,2048.0,1027.0,2048.0,1152.0,9-6-2022,0.588602768695556,15-48-36,4.0,depth_discrimination_stimuli/001110_2014-06-15_17-25-28_260595134347_rgbf000150-resize_1/001110_2014-06-15_17-25-28_260595134347_rgbf000150-resize_1-target.png,depth_discrimination_stimuli/000927_2014-06-09_16-32-30_260595134347_rgbf000123-resize_3/000927_2014-06-09_16-32-30_260595134347_rgbf000123-resize_3-target.png,1000.0,1.7115,0.9670000000000001,depth_discrimination_stimuli/001110_2014-06-15_17-25-28_260595134347_rgbf000150-resize_1/001110_2014-06-15_17-25-28_260595134347_rgbf000150-resize_1-target.png,2.6785,1.0,2843.0,1006.0,1000.0,1007.0,996.0,500.0,,741739.0,37.0,Man
1208,989868.0,ATIVK9XUANIUE,DepthScenes,v2_duration_discrimination,discrim_jsons/Discrim1000_randls_15.json,http://54.235.29.9/FacialAge/BNav_EC2/DepthDuration/v2_depth_discrimination_MTurk/v2_DepthDiscrim_HTML.html#433,433.0,2048.0,1027.0,2048.0,1152.0,9-6-2022,-2.0777500572015724,15-48-36,5.0,depth_discrimination_stimuli/002748_2014-06-22_19-07-22_094959634447_rgbf000078-resize_1/002748_2014-06-22_19-07-22_094959634447_rgbf000078-resize_1-target.png,depth_discrimination_stimuli/002995_2014-06-15_12-31-26_094959634447_rgbf000150-resize_1/002995_2014-06-15_12-31-26_094959634447_rgbf000150-resize_1-target.png,1000.0,4.6705,0.8344999999999994,depth_discrimination_stimuli/002995_2014-06-15_12-31-26_094959634447_rgbf000150-resize_1/002995_2014-06-15_12-31-26_094959634447_rgbf000150-resize_1-target.png,3.8360000000000003,0.0,817.0,1010.0,993.0,1011.0,993.0,494.0,,741739.0,37.0,Man
1209,989868.0,ATIVK9XUANIUE,DepthScenes,v2_duration_discrimination,discrim_jsons/Discrim1000_randls_15.json,http://54.235.29.9/FacialAge/BNav_EC2/DepthDuration/v2_depth_discrimination_MTurk/v2_DepthDiscrim_HTML.html#433,433.0,2048.0,1027.0,2048.0,1152.0,9-6-2022,3.3549767272522018,15-48-36,6.0,depth_discrimination_stimuli/000773_2014-06-08_22-24-54_260595134347_rgbf000093-resize_1/000773_2014-06-08_22-24-54_260595134347_rgbf000093-resize_1-target.png,depth_discrimination_stimuli/002414_2014-06-28_20-24-58_260595134347_rgbf000067-resize_4/002414_2014-06-28_20-24-58_260595134347_rgbf000067-resize_4-target.png,1000.0,4.973,0.6099999999999994,depth_discrimination_stimuli/002414_2014-06-28_20-24-58_260595134347_rgbf000067-resize_4/002414_2014-06-28_20-24-58_260595134347_rgbf000067-resize_4-target.png,4.363,2.0,4945.0,1014.0,996.0,993.0,1010.0,491.0,,741739.0,37.0,Man
1211,989868.0,ATIVK9XUANIUE,DepthScenes,v2_duration_discrimination,discrim_jsons/Discrim1000_randls_15.json,http://54.235.29.9/FacialAge/BNav_EC2/DepthDuration/v2_depth_discrimination_MTurk/v2_DepthDiscrim_HTML.html#433,433.0,2048.0,1027.0,2048.0,1152.0,9-6-2022,-2.4265079539748884,15-48-36,8.0,depth_discrimination_stimuli/002279_2014-06-28_18-55-32_260595134347_rgbf000040-resize_5/002279_2014-06-28_18-55-32_260595134347_rgbf000040-resize_5-target.png,depth_discrimination_stimuli/000635_2014-06-08_16-38-42_260595134347_rgbf000106-resize_1/000635_2014-06-08_16-38-42_260595134347_rgbf000106-resize_1-target.png,1000.0,1.5043333333333,0.5696666666666999,depth_discrimination_stimuli/002279_2014-06-28_18-55-32_260595134347_rgbf000040-resize_5/002279_2014-06-28_18-55-32_260595134347_rgbf000040-resize_5-target.png,2.074,2.0,552.0,1005.0,995.0,1010.0,995.0,503.0,,741739.0,37.0,Man
1212,989868.0,ATIVK9XUANIUE,DepthScenes,v2_duration_discrimination,discrim_jsons/Discrim1000_randls_15.json,http://54.235.29.9/FacialAge/BNav_EC2/DepthDuration/v2_depth_discrimination_MTurk/v2_DepthDiscrim_HTML.html#433,433.0,2048.0,1027.0,2048.0,1152.0,9-6-2022,-2.156714109301191,15-48-36,9.0,depth_discrimination_stimuli/001417_2014-06-19_16-25-36_260595134347_rgbf000115-resize_5/001417_2014-06-19_16-25-36_260595134347_rgbf000115-resize_5-target.png,depth_discrimination_stimuli/003081_2014-06-15_15-19-16_094959634447_rgbf000150-resize_1/003081_2014-06-15_15-19-16_094959634447_rgbf000150-resize_1-target.png,1000.0,4.6255,0.7129999999999996,depth_discrimination_stimuli/003081_2014-06-15_15-19-16_094959634447_rgbf000150-resize_1/003081_2014-06-15_15-19-16_094959634447_rgbf000150-resize_1-target.png,3.9125,2.0,757.0,1005.0,997.0,1000.0,1013.0,487.0,,741739.0,37.0,Man
1213,989868.0,ATIVK9XUANIUE,DepthScenes,v2_duration_discrimination,discrim_jsons/Discrim1000_randls_15.json,http://54.235.29.9/FacialAge/BNav_EC2/DepthDuration/v2_depth_discrimination_MTurk/v2_DepthDiscrim_HTML.html#433,433.0,2048.0,1027.0,2048.0,1152.0,9-6-2022,-2.287004795265562,15-48-36,10.0,depth_discrimination_stimuli/003492_2014-05-21_15-50-55_094959634447_rgbf000828-resize_1/003492_2014-05-21_15-50-55_094959634447_rgbf000828-resize_1-target.png,depth_discrimination_stimuli/002568_2014-06-24_13-59-21_094959634447_rgbf000062-resize_4/002568_2014-06-24_13-59-21_094959634447_rgbf000062-resize_4-target.png,1000.0,4.06875,1.0537499999999995,depth_discrimination_stimuli/002568_2014-06-24_13-59-21_094959634447_rgbf000062-resize_4/002568_2014-06-24_13-59-21_094959634447_rgbf000062-resize_4-target.png,3.015,2.0,658.0,1009.0,999.0,991.0,1011.0,489.0,,741739.0,37.0,Man
1214,989868.0,ATIVK9XUANIUE,DepthScenes,v2_duration_discrimination,discrim_jsons/Discrim1000_randls_15.json,http://54.235.29.9/FacialAge/BNav_EC2/DepthDuration/v2_depth_discrimination_MTurk/v2_DepthDiscrim_HTML.html#433,433.0,2048.0,1027.0,2048.0,1152.0,9-6-2022,-2.1632944469761592,15-48-36,11.0,depth_discrimination_stimuli/002989_2014-06-15_12-25-03_094959634447_rgbf000150-resize_3/002989_2014-06-15_12-25-03_094959634447_rgbf000150-resize_3-target.png,depth_discrimination_stimuli/000866_2014-06-09_20-45-42_260595134347_rgbf000139-resize_1/000866_2014-06-09_20-45-42_260595134347_rgbf000139-resize_1-target.png,1000.0,4.1975,0.9819999999999998,depth_discrimination_stimuli/000866_2014-06-09_20-45-42_260595134347_rgbf000139-resize_1/000866_2014-06-09_20-45-42_260595134347_rgbf000139-resize_1-target.png,3.2155,2.0,752.0,1015.0,991.0,1007.0,1003.0,490.0,,741739.0,37.0,Man
1215,989868.0,ATIVK9XUANIUE,DepthScenes,v2_duration_discrimination,discrim_jsons/Discrim1000_randls_15.json,http://54.235.29.9/FacialAge/BNav_EC2/DepthDuration/v2_depth_discrimination_MTurk/v2_DepthDiscrim_HTML.html#433,433.0,2048.0,1027.0,2048.0,1152.0,9-6-2022,-2.413347278624952,15-48-36,12.0,depth_discrimination_stimuli/001810_2014-06-26_20-51-35_260595134347_rgbf000040-resize_3/001810_2014-06-26_20-51-35_260595134347_rgbf000040-resize_3-target.png,depth_discrimination_stimuli/003010_2014-06-15_12-54-35_094959634447_rgbf000112-resize_0/003010_2014-06-15_12-54-35_094959634447_rgbf000112-resize_0-target.png,1000.0,2.2525,0.8660000000000001,depth_discrimination_stimuli/001810_2014-06-26_20-51-35_260595134347_rgbf000040-resize_3/001810_2014-06-26_20-51-35_260595134347_rgbf000040-resize_3-target.png,3.1185,0.0,562.0,1008.0,1007.0,992.0,1004.0,503.0,,741739.0,37.0,Man
1216,989868.0,ATIVK9XUANIUE,DepthScenes,v2_duration_discrimination,discrim_jsons/Discrim1000_randls_15.json,http://54.235.29.9/FacialAge/BNav_EC2/DepthDuration/v2_depth_discrimination_MTurk/v2_DepthDiscrim_HTML.html#433,433.0,2048.0,1027.0,2048.0,1152.0,9-6-2022,-0.3286963031950158,15-48-36,13.0,depth_discrimination_stimuli/000486_2014-06-09_20-47-20_260595134347_rgbf000143-resize_2/000486_2014-06-09_20-47-20_260595134347_rgbf000143-resize_2-target.png,depth_discrimination_stimuli/003083_2014-06-15_15-21-03_094959634447_rgbf000063-resize_1/003083_2014-06-15_15-21-03_094959634447_rgbf000063-resize_1-target.png,1000.0,4.8325,0.6919999999999993,depth_discrimination_stimuli/003083_2014-06-15_15-21-03_094959634447_rgbf000063-resize_1/003083_2014-06-15_15-21-03_094959634447_rgbf000063-resize_1-target.png,4.1405,0.0,2146.0,1003.0,1010.0,994.0,995.0,505.0,,741739.0,37.0,Man
1217,989868.0,ATIVK9XUANIUE,DepthScenes,v2_duration_discrimination,discrim_jsons/Discrim1000_randls_15.json,http://54.235.29.9/FacialAge/BNav_EC2/DepthDuration/v2_depth_discrimination_MTurk/v2_DepthDiscrim_HTML.html#433,433.0,2048.0,1027.0,2048.0,1152.0,9-6-2022,-2.4304561565798695,15-48-36,14.0,depth_discrimination_stimuli/002375_2014-06-28_20-13-44_260595134347_rgbf000032-resize_1/002375_2014-06-28_20-13-44_260595134347_rgbf000032-resize_1-target.png,depth_discrimination_stimuli/002657_2014-06-13_15-29-54_094959634447_rgbf000150-resize_1/002657_2014-06-13_15-29-54_094959634447_rgbf000150-resize_1-target.png,1000.0,4.0175,0.9014999999999995,depth_discrimination_stimuli/002375_2014-06-28_20-13-44_260595134347_rgbf000032-resize_1/002375_2014-06-28_20-13-44_260595134347_rgbf000032-resize_1-target.png,4.919,0.0,549.0,1004.0,997.0,1012.0,987.0,508.0,,741739.0,37.0,Man
1218,989868.0,ATIVK9XUANIUE,DepthScenes,v2_duration_discrimination,discrim_jsons/Discrim1000_randls_15.json,http://54.235.29.9/FacialAge/BNav_EC2/DepthDuration/v2_depth_discrimination_MTurk/v2_DepthDiscrim_HTML.html#433,433.0,2048.0,1027.0,2048.0,1152.0,9-6-2022,-2.4304561565798695,15-48-36,15.0,depth_discrimination_stimuli/001199_2014-06-17_16-03-48_260595134347_rgbf000077-resize_0/001199_2014-06-17_16-03-48_260595134347_rgbf000077-resize_0-target.png,depth_discrimination_stimuli/000502_2014-06-08_23-02-32_260595134347_rgbf000063-resize_4/000502_2014-06-08_23-02-32_260595134347_rgbf000063-resize_4-target.png,1000.0,3.4375,1.0065,depth_discrimination_stimuli/000502_2014-06-08_23-02-32_260595134347_rgbf000063-resize_4/000502_2014-06-08_23-02-32_260595134347_rgbf000063-resize_4-target.png,2.431,1.0,549.0,1009.0,993.0,1011.0,997.0,505.0,,741739.0,37.0,Man
1220,989868.0,ATIVK9XUANIUE,DepthScenes,v2_duration_discrimination,discrim_jsons/Discrim1000_randls_15.json,http://54.235.29.9/FacialAge/BNav_EC2/DepthDuration/v2_depth_discrimination_MTurk/v2_DepthDiscrim_HTML.html#433,433.0,2048.0,1027.0,2048.0,1152.0,9-6-2022,-1.8987648724424362,15-48-36,17.0,depth_discrimination_stimuli/001066_2014-06-08_22-03-20_260595134347_rgbf000066-resize_4/001066_2014-06-08_22-03-20_260595134347_rgbf000066-resize_4-target.png,depth_discrimination_stimuli/000742_2014-06-08_18-48-09_260595134347_rgbf000164-resize_4/000742_2014-06-08_18-48-09_260595134347_rgbf000164-resize_4-target.png,1000.0,4.2330000000000005,0.39899999999999913,depth_discrimination_stimuli/001066_2014-06-08_22-03-20_260595134347_rgbf000066-resize_4/001066_2014-06-08_22-03-20_260595134347_rgbf000066-resize_4-target.png,4.632,0.0,953.0,999.0,1009.0,1006.0,988.0,512.0,,741739.0,37.0,Man
1221,989868.0,ATIVK9XUANIUE,DepthScenes,v2_duration_discrimination,discrim_jsons/Discrim1000_randls_15.json,http://54.235.29.9/FacialAge/BNav_EC2/DepthDuration/v2_depth_discrimination_MTurk/v2_DepthDiscrim_HTML.html#433,433.0,2048.0,1027.0,2048.0,1152.0,9-6-2022,-2.4304561565798695,15-48-36,18.0,depth_discrimination_stimuli/001806_2014-06-26_20-50-20_260595134347_rgbf000091-resize_1/001806_2014-06-26_20-50-20_260595134347_rgbf000091-resize_1-target.png,depth_discrimination_stimuli/001617_2014-06-20_11-35-32_260595134347_rgbf000066-resize_1/001617_2014-06-20_11-35-32_260595134347_rgbf000066-resize_1-target.png,1000.0,2.7305,1.0605000000000002,depth_discrimination_stimuli/001806_2014-06-26_20-50-20_260595134347_rgbf000091-resize_1/001806_2014-06-26_20-50-20_260595134347_rgbf000091-resize_1-target.png,3.7910000000000004,0.0,549.0,1003.0,1009.0,1000.0,991.0,503.0,,741739.0,37.0,Man
1222,989868.0,ATIVK9XUANIUE,DepthScenes,v2_duration_discrimination,discrim_jsons/Discrim1000_randls_15.json,http://54.235.29.9/FacialAge/BNav_EC2/DepthDuration/v2_depth_discrimination_MTurk/v2_DepthDiscrim_HTML.html#433,433.0,2048.0,1027.0,2048.0,1152.0,9-6-2022,-2.3291189563853587,15-48-36,19.0,depth_discrimination_stimuli/002763_2014-06-22_19-13-10_094959634447_rgbf000075-resize_4/002763_2014-06-22_19-13-10_094959634447_rgbf000075-resize_4-target.png,depth_discrimination_stimuli/002209_2014-06-28_18-36-10_260595134347_rgbf000051-resize_1/002209_2014-06-28_18-36-10_260595134347_rgbf000051-resize_1-target.png,1000.0,1.68375,0.37324999999999986,depth_discrimination_stimuli/002763_2014-06-22_19-13-10_094959634447_rgbf000075-resize_4/002763_2014-06-22_19-13-10_094959634447_rgbf000075-resize_4-target.png,2.057,1.0,626.0,1003.0,1005.0,995.0,999.0,507.0,,741739.0,37.0,Man
1223,989868.0,ATIVK9XUANIUE,DepthScenes,v2_duration_discrimination,discrim_jsons/Discrim1000_randls_15.json,http://54.235.29.9/FacialAge/BNav_EC2/DepthDuration/v2_depth_discrimination_MTurk/v2_DepthDiscrim_HTML.html#433,433.0,2048.0,1027.0,2048.0,1152.0,9-6-2022,-2.3251707537803776,15-48-36,20.0,depth_discrimination_stimuli/002905_2014-06-03_18-04-43_094959634447_rgbf000151-resize_2/002905_2014-06-03_18-04-43_094959634447_rgbf000151-resize_2-target.png,depth_discrimination_stimuli/003423_2014-05-21_10-23-26_094959634447_rgbf002665-resize_2/003423_2014-05-21_10-23-26_094959634447_rgbf002665-resize_2-target.png,1000.0,2.0295,1.2279999999999998,depth_discrimination_stimuli/002905_2014-06-03_18-04-43_094959634447_rgbf000151-resize_2/002905_2014-06-03_18-04-43_094959634447_rgbf000151-resize_2-target.png,3.2575,0.0,629.0,1008.0,997.0,996.0,1007.0,505.0,,741739.0,37.0,Man
1224,989868.0,ATIVK9XUANIUE,DepthScenes,v2_duration_discrimination,discrim_jsons/Discrim1000_randls_15.json,http://54.235.29.9/FacialAge/BNav_EC2/DepthDuration/v2_depth_discrimination_MTurk/v2_DepthDiscrim_HTML.html#433,433.0,2048.0,1027.0,2048.0,1152.0,9-6-2022,-2.254103106890721,15-48-36,21.0,depth_discrimination_stimuli/001011_2014-06-08_23-18-54_260595134347_rgbf000044-resize_4/001011_2014-06-08_23-18-54_260595134347_rgbf000044-resize_4-target.png,depth_discrimination_stimuli/002875_2014-06-01_15-19-00_094959634447_rgbf000151-resize_1/002875_2014-06-01_15-19-00_094959634447_rgbf000151-resize_1-target.png,1000.0,2.4730000000000003,0.5055000000000003,depth_discrimination_stimuli/002875_2014-06-01_15-19-00_094959634447_rgbf000151-resize_1/002875_2014-06-01_15-19-00_094959634447_rgbf000151-resize_1-target.png,1.9675,1.0,683.0,1003.0,1004.0,1006.0,987.0,513.0,,741739.0,37.0,Man
1225,989868.0,ATIVK9XUANIUE,DepthScenes,v2_duration_discrimination,discrim_jsons/Discrim1000_randls_15.json,http://54.235.29.9/FacialAge/BNav_EC2/DepthDuration/v2_depth_discrimination_MTurk/v2_DepthDiscrim_HTML.html#433,433.0,2048.0,1027.0,2048.0,1152.0,9-6-2022,-0.5497956490739485,15-48-36,22.0,depth_discrimination_stimuli/000414_2014-06-04_19-49-13_260595134347_rgbf000044-resize_0/000414_2014-06-04_19-49-13_260595134347_rgbf000044-resize_0-target.png,depth_discrimination_stimuli/003129_2014-05-12_10-48-10_094959634447_rgbf000100-resize_0/003129_2014-05-12_10-48-10_094959634447_rgbf000100-resize_0-target.png,1000.0,4.329,0.6015000000000006,depth_discrimination_stimuli/000414_2014-06-04_19-49-13_260595134347_rgbf000044-resize_0/000414_2014-06-04_19-49-13_260595134347_rgbf000044-resize_0-target.png,4.9305,0.0,1978.0,1000.0,1004.0,998.0,1008.0,498.0,,741739.0,37.0,Man
1226,989868.0,ATIVK9XUANIUE,DepthScenes,v2_duration_discrimination,discrim_jsons/Discrim1000_randls_15.json,http://54.235.29.9/FacialAge/BNav_EC2/DepthDuration/v2_depth_discrimination_MTurk/v2_DepthDiscrim_HTML.html#433,433.0,2048.0,1027.0,2048.0,1152.0,9-6-2022,-2.339647496665308,15-48-36,23.0,depth_discrimination_stimuli/000506_2014-06-08_23-21-00_260595134347_rgbf000070-resize_7/000506_2014-06-08_23-21-00_260595134347_rgbf000070-resize_7-target.png,depth_discrimination_stimuli/003079_2014-06-15_15-18-20_094959634447_rgbf000152-resize_8/003079_2014-06-15_15-18-20_094959634447_rgbf000152-resize_8-target.png,1000.0,4.0585,1.1810000000000005,depth_discrimination_stimuli/003079_2014-06-15_15-18-20_094959634447_rgbf000152-resize_8/003079_2014-06-15_15-18-20_094959634447_rgbf000152-resize_8-target.png,2.8775,3.0,618.0,1014.0,989.0,1008.0,990.0,502.0,,741739.0,37.0,Man
1228,989868.0,ATIVK9XUANIUE,DepthScenes,v2_duration_discrimination,discrim_jsons/Discrim1000_randls_15.json,http://54.235.29.9/FacialAge/BNav_EC2/DepthDuration/v2_depth_discrimination_MTurk/v2_DepthDiscrim_HTML.html#433,433.0,2048.0,1027.0,2048.0,1152.0,9-6-2022,-2.4120312110899587,15-48-36,25.0,depth_discrimination_stimuli/001016_2014-06-09_16-16-10_260595134347_rgbf000112-resize_5/001016_2014-06-09_16-16-10_260595134347_rgbf000112-resize_5-target.png,depth_discrimination_stimuli/002340_2014-06-28_20-05-46_260595134347_rgbf000113-resize_0/002340_2014-06-28_20-05-46_260595134347_rgbf000113-resize_0-target.png,1000.0,1.6565,0.817,depth_discrimination_stimuli/001016_2014-06-09_16-16-10_260595134347_rgbf000112-resize_5/001016_2014-06-09_16-16-10_260595134347_rgbf000112-resize_5-target.png,2.4735,0.0,563.0,1009.0,997.0,995.0,1012.0,492.0,,741739.0,37.0,Man
1229,989868.0,ATIVK9XUANIUE,DepthScenes,v2_duration_discrimination,discrim_jsons/Discrim1000_randls_15.json,http://54.235.29.9/FacialAge/BNav_EC2/DepthDuration/v2_depth_discrimination_MTurk/v2_DepthDiscrim_HTML.html#433,433.0,2048.0,1027.0,2048.0,1152.0,9-6-2022,-2.4225597513699078,15-48-36,26.0,depth_discrimination_stimuli/000368_2014-06-09_15-53-01_260595134347_rgbf000155-resize_2/000368_2014-06-09_15-53-01_260595134347_rgbf000155-resize_2-target.png,depth_discrimination_stimuli/002678_2014-06-13_16-15-32_094959634447_rgbf000151-resize_6/002678_2014-06-13_16-15-32_094959634447_rgbf000151-resize_6-target.png,1000.0,2.4859999999999998,0.3029999999999995,depth_discrimination_stimuli/002678_2014-06-13_16-15-32_094959634447_rgbf000151-resize_6/002678_2014-06-13_16-15-32_094959634447_rgbf000151-resize_6-target.png,2.1830000000000003,0.0,555.0,1013.0,987.0,1007.0,1005.0,488.0,,741739.0,37.0,Man
1230,989868.0,ATIVK9XUANIUE,DepthScenes,v2_duration_discrimination,discrim_jsons/Discrim1000_randls_15.json,http://54.235.29.9/FacialAge/BNav_EC2/DepthDuration/v2_depth_discrimination_MTurk/v2_DepthDiscrim_HTML.html#433,433.0,2048.0,1027.0,2048.0,1152.0,9-6-2022,-2.51731661388945,15-48-36,27.0,depth_discrimination_stimuli/000917_2014-06-09_22-45-29_260595134347_rgbf000149-resize_3/000917_2014-06-09_22-45-29_260595134347_rgbf000149-resize_3-target.png,depth_discrimination_stimuli/002323_2014-06-28_20-01-54_260595134347_rgbf000051-resize_4/002323_2014-06-28_20-01-54_260595134347_rgbf000051-resize_4-target.png,1000.0,4.1865,0.45549999999999935,depth_discrimination_stimuli/002323_2014-06-28_20-01-54_260595134347_rgbf000051-resize_4/002323_2014-06-28_20-01-54_260595134347_rgbf000051-resize_4-target.png,3.7310000000000003,0.0,483.0,1011.0,1000.0,1001.0,999.0,503.0,,741739.0,37.0,Man
1231,989868.0,ATIVK9XUANIUE,DepthScenes,v2_duration_discrimination,discrim_jsons/Discrim1000_randls_15.json,http://54.235.29.9/FacialAge/BNav_EC2/DepthDuration/v2_depth_discrimination_MTurk/v2_DepthDiscrim_HTML.html#433,433.0,2048.0,1027.0,2048.0,1152.0,9-6-2022,-2.5054720060745073,15-48-36,28.0,depth_discrimination_stimuli/001150_2014-06-17_15-27-34_260595134347_rgbf000108-resize_2/001150_2014-06-17_15-27-34_260595134347_rgbf000108-resize_2-target.png,depth_discrimination_stimuli/000665_2014-06-09_20-42-35_260595134347_rgbf000110-resize_1/000665_2014-06-09_20-42-35_260595134347_rgbf000110-resize_1-target.png,1000.0,4.0325,0.9754999999999998,depth_discrimination_stimuli/000665_2014-06-09_20-42-35_260595134347_rgbf000110-resize_1/000665_2014-06-09_20-42-35_260595134347_rgbf000110-resize_1-target.png,3.057,1.0,492.0,1002.0,1006.0,994.0,1014.0,485.0,,741739.0,37.0,Man
1232,989868.0,ATIVK9XUANIUE,DepthScenes,v2_duration_discrimination,discrim_jsons/Discrim1000_randls_15.json,http://54.235.29.9/FacialAge/BNav_EC2/DepthDuration/v2_depth_discrimination_MTurk/v2_DepthDiscrim_HTML.html#433,433.0,2048.0,1027.0,2048.0,1152.0,9-6-2022,-2.6094413413390054,15-48-36,29.0,depth_discrimination_stimuli/001244_2014-06-17_16-47-45_260595134347_rgbf000030-resize_4/001244_2014-06-17_16-47-45_260595134347_rgbf000030-resize_4-target.png,depth_discrimination_stimuli/003495_2014-05-21_16-01-51_094959634447_rgbf000100-resize_3/003495_2014-05-21_16-01-51_094959634447_rgbf000100-resize_3-target.png,1000.0,2.0425,0.41700000000000004,depth_discrimination_stimuli/003495_2014-05-21_16-01-51_094959634447_rgbf000100-resize_3/003495_2014-05-21_16-01-51_094959634447_rgbf000100-resize_3-target.png,1.6255,1.0,413.0,1003.0,1001.0,1010.0,987.0,504.0,,741739.0,37.0,Man
1233,989868.0,ATIVK9XUANIUE,DepthScenes,v2_duration_discrimination,discrim_jsons/Discrim1000_randls_15.json,http://54.235.29.9/FacialAge/BNav_EC2/DepthDuration/v2_depth_discrimination_MTurk/v2_DepthDiscrim_HTML.html#433,433.0,2048.0,1027.0,2048.0,1152.0,9-6-2022,-2.33306715899034,15-48-36,30.0,depth_discrimination_stimuli/003534_2014-05-22_15-06-10_094959634447_rgbf000102-resize_4/003534_2014-05-22_15-06-10_094959634447_rgbf000102-resize_4-target.png,depth_discrimination_stimuli/002637_2014-06-24_14-51-13_094959634447_rgbf000066-resize_4/002637_2014-06-24_14-51-13_094959634447_rgbf000066-resize_4-target.png,1000.0,1.426,0.5695000000000001,depth_discrimination_stimuli/003534_2014-05-22_15-06-10_094959634447_rgbf000102-resize_4/003534_2014-05-22_15-06-10_094959634447_rgbf000102-resize_4-target.png,1.9955,0.0,623.0,1007.0,1006.0,991.0,996.0,503.0,,741739.0,37.0,Man
1234,989868.0,ATIVK9XUANIUE,DepthScenes,v2_duration_discrimination,discrim_jsons/Discrim1000_randls_15.json,http://54.235.29.9/FacialAge/BNav_EC2/DepthDuration/v2_depth_discrimination_MTurk/v2_DepthDiscrim_HTML.html#433,433.0,2048.0,1027.0,2048.0,1152.0,9-6-2022,-2.064589381851636,15-48-36,31.0,depth_discrimination_stimuli/003621_2014-05-23_18-06-08_094959634447_rgbf000101-resize_1/003621_2014-05-23_18-06-08_094959634447_rgbf000101-resize_1-target.png,depth_discrimination_stimuli/001584_2014-06-20_11-07-43_260595134347_rgbf000002-resize_1/001584_2014-06-20_11-07-43_260595134347_rgbf000002-resize_1-target.png,1000.0,3.9835,0.4535,depth_discrimination_stimuli/001584_2014-06-20_11-07-43_260595134347_rgbf000002-resize_1/001584_2014-06-20_11-07-43_260595134347_rgbf000002-resize_1-target.png,3.53,1.0,827.0,1002.0,1005.0,998.0,996.0,507.0,,741739.0,37.0,Man
1235,989868.0,ATIVK9XUANIUE,DepthScenes,v2_duration_discrimination,discrim_jsons/Discrim1000_randls_15.json,http://54.235.29.9/FacialAge/BNav_EC2/DepthDuration/v2_depth_discrimination_MTurk/v2_DepthDiscrim_HTML.html#433,433.0,2048.0,1027.0,2048.0,1152.0,9-6-2022,-2.327802888850365,15-48-36,32.0,depth_discrimination_stimuli/000522_2014-06-08_13-35-06_260595134347_rgbf000244-resize_1/000522_2014-06-08_13-35-06_260595134347_rgbf000244-resize_1-target.png,depth_discrimination_stimuli/002949_2014-06-26_15-57-42_094959634447_rgbf000079-resize_1/002949_2014-06-26_15-57-42_094959634447_rgbf000079-resize_1-target.png,1000.0,2.3715,0.4800000000000002,depth_discrimination_stimuli/002949_2014-06-26_15-57-42_094959634447_rgbf000079-resize_1/002949_2014-06-26_15-57-42_094959634447_rgbf000079-resize_1-target.png,1.8915,0.0,627.0,1002.0,1004.0,996.0,1005.0,492.0,,741739.0,37.0,Man
1236,989868.0,ATIVK9XUANIUE,DepthScenes,v2_duration_discrimination,discrim_jsons/Discrim1000_randls_15.json,http://54.235.29.9/FacialAge/BNav_EC2/DepthDuration/v2_depth_discrimination_MTurk/v2_DepthDiscrim_HTML.html#433,433.0,2048.0,1027.0,2048.0,1152.0,9-6-2022,-2.342279631735295,15-48-36,33.0,depth_discrimination_stimuli/001055_2014-06-08_18-45-35_260595134347_rgbf000111-resize_4/001055_2014-06-08_18-45-35_260595134347_rgbf000111-resize_4-target.png,depth_discrimination_stimuli/000549_2014-06-08_22-10-24_260595134347_rgbf000247-resize_3/000549_2014-06-08_22-10-24_260595134347_rgbf000247-resize_3-target.png,1000.0,2.4290000000000003,0.5880000000000003,depth_discrimination_stimuli/000549_2014-06-08_22-10-24_260595134347_rgbf000247-resize_3/000549_2014-06-08_22-10-24_260595134347_rgbf000247-resize_3-target.png,1.841,1.0,616.0,1015.0,992.0,1007.0,992.0,503.0,,741739.0,37.0,Man
1237,989868.0,ATIVK9XUANIUE,DepthScenes,v2_duration_discrimination,discrim_jsons/Discrim1000_randls_15.json,http://54.235.29.9/FacialAge/BNav_EC2/DepthDuration/v2_depth_discrimination_MTurk/v2_DepthDiscrim_HTML.html#433,433.0,2048.0,1027.0,2048.0,1152.0,9-6-2022,-2.2356781614008097,15-48-36,34.0,depth_discrimination_stimuli/001808_2014-06-26_20-50-58_260595134347_rgbf000029-resize_1/001808_2014-06-26_20-50-58_260595134347_rgbf000029-resize_1-target.png,depth_discrimination_stimuli/001815_2014-06-26_20-52-55_260595134347_rgbf000020-resize_0/001815_2014-06-26_20-52-55_260595134347_rgbf000020-resize_0-target.png,1000.0,4.249,0.8624999999999998,depth_discrimination_stimuli/001815_2014-06-26_20-52-55_260595134347_rgbf000020-resize_0/001815_2014-06-26_20-52-55_260595134347_rgbf000020-resize_0-target.png,3.3865,3.0,697.0,1001.0,1012.0,992.0,1010.0,488.0,,741739.0,37.0,Man
1239,989868.0,ATIVK9XUANIUE,DepthScenes,v2_duration_discrimination,discrim_jsons/Discrim1000_randls_15.json,http://54.235.29.9/FacialAge/BNav_EC2/DepthDuration/v2_depth_discrimination_MTurk/v2_DepthDiscrim_HTML.html#433,433.0,2048.0,1027.0,2048.0,1152.0,9-6-2022,-2.343595699270289,15-48-36,36.0,depth_discrimination_stimuli/002153_2014-06-25_21-27-18_260595134347_rgbf000038-resize_5/002153_2014-06-25_21-27-18_260595134347_rgbf000038-resize_5-target.png,depth_discrimination_stimuli/002660_2014-06-13_15-44-18_094959634447_rgbf001878-resize_2/002660_2014-06-13_15-44-18_094959634447_rgbf001878-resize_2-target.png,1000.0,2.505,1.0710000000000002,depth_discrimination_stimuli/002153_2014-06-25_21-27-18_260595134347_rgbf000038-resize_5/002153_2014-06-25_21-27-18_260595134347_rgbf000038-resize_5-target.png,3.576,0.0,615.0,1005.0,1005.0,1003.0,995.0,504.0,,741739.0,37.0,Man
1240,989868.0,ATIVK9XUANIUE,DepthScenes,v2_duration_discrimination,discrim_jsons/Discrim1000_randls_15.json,http://54.235.29.9/FacialAge/BNav_EC2/DepthDuration/v2_depth_discrimination_MTurk/v2_DepthDiscrim_HTML.html#433,433.0,2048.0,1027.0,2048.0,1152.0,9-6-2022,-1.7105672149383448,15-48-36,37.0,depth_discrimination_stimuli/002509_2014-06-24_13-19-22_094959634447_rgbf000077-resize_0/002509_2014-06-24_13-19-22_094959634447_rgbf000077-resize_0-target.png,depth_discrimination_stimuli/003338_2014-05-20_11-01-23_094959634447_rgbf000051-resize_6/003338_2014-05-20_11-01-23_094959634447_rgbf000051-resize_6-target.png,1000.0,1.3065,0.38650000000000007,depth_discrimination_stimuli/002509_2014-06-24_13-19-22_094959634447_rgbf000077-resize_0/002509_2014-06-24_13-19-22_094959634447_rgbf000077-resize_0-target.png,1.693,1.0,1096.0,1011.0,993.0,1005.0,994.0,503.0,,741739.0,37.0,Man
1241,989868.0,ATIVK9XUANIUE,DepthScenes,v2_duration_discrimination,discrim_jsons/Discrim1000_randls_15.json,http://54.235.29.9/FacialAge/BNav_EC2/DepthDuration/v2_depth_discrimination_MTurk/v2_DepthDiscrim_HTML.html#433,433.0,2048.0,1027.0,2048.0,1152.0,9-6-2022,-1.7961116047129317,15-48-36,38.0,depth_discrimination_stimuli/003070_2014-06-15_14-58-27_094959634447_rgbf000150-resize_3/003070_2014-06-15_14-58-27_094959634447_rgbf000150-resize_3-target.png,depth_discrimination_stimuli/000943_2014-06-09_19-31-07_260595134347_rgbf000128-resize_1/000943_2014-06-09_19-31-07_260595134347_rgbf000128-resize_1-target.png,1000.0,2.9415,0.9650000000000001,depth_discrimination_stimuli/000943_2014-06-09_19-31-07_260595134347_rgbf000128-resize_1/000943_2014-06-09_19-31-07_260595134347_rgbf000128-resize_1-target.png,1.9765,1.0,1031.0,1011.0,998.0,994.0,998.0,504.0,,741739.0,37.0,Man
