,subjID,workerId,experimentName,versionName,sequenceName,url,selected_row,windowWidth,windowHeight,screenWidth,screenHeight,startDate,z_scored_RT,startTime,trial,stimulus_0,stimulus_1,duration,actual_depth_0,depth_difference,kinect_answer,actual_depth_1,discrim_choice,trial_RT,log_fixation,log_sceneDuration1,log_mask1,log_sceneDuration2,log_mask2,experimentTime,totalTime,age,gender
688,365292.0,A2VN1358M5F1P7,DepthScenes,v2_duration_discrimination,discrim_jsons/Discrim125_randls_53_rotated.json,http://54.235.29.9/FacialAge/BNav_EC2/DepthDuration/v2_depth_discrimination_MTurk/v2_DepthDiscrim_HTML.html#295,295.0,1366.0,625.0,1366.0,768.0,9-6-2022,2.175147257818775,8-44-17,1.0,depth_discrimination_stimuli/000635_2014-06-08_16-38-42_260595134347_rgbf000106-resize_1/000635_2014-06-08_16-38-42_260595134347_rgbf000106-resize_1-target.png,depth_discrimination_stimuli/002279_2014-06-28_18-55-32_260595134347_rgbf000040-resize_5/002279_2014-06-28_18-55-32_260595134347_rgbf000040-resize_5-target.png,125.0,2.074,0.5696666666666999,depth_discrimination_stimuli/002279_2014-06-28_18-55-32_260595134347_rgbf000040-resize_5/002279_2014-06-28_18-55-32_260595134347_rgbf000040-resize_5-target.png,1.5043333333333,0.0,2816.0,1013.0,123.0,1000.0,139.0,484.0,,729251.0,58.0,Woman
689,365292.0,A2VN1358M5F1P7,DepthScenes,v2_duration_discrimination,discrim_jsons/Discrim125_randls_53_rotated.json,http://54.235.29.9/FacialAge/BNav_EC2/DepthDuration/v2_depth_discrimination_MTurk/v2_DepthDiscrim_HTML.html#295,295.0,1366.0,625.0,1366.0,768.0,9-6-2022,-1.3687659365771363,8-44-17,2.0,depth_discrimination_stimuli/000677_2014-06-08_23-10-32_260595134347_rgbf000158-resize_6/000677_2014-06-08_23-10-32_260595134347_rgbf000158-resize_6-target.png,depth_discrimination_stimuli/001029_2014-06-08_13-17-57_260595134347_rgbf000065-resize_1/001029_2014-06-08_13-17-57_260595134347_rgbf000065-resize_1-target.png,125.0,3.556,0.47250000000000014,depth_discrimination_stimuli/001029_2014-06-08_13-17-57_260595134347_rgbf000065-resize_1/001029_2014-06-08_13-17-57_260595134347_rgbf000065-resize_1-target.png,3.0835,0.0,1063.0,1012.0,172.0,954.0,124.0,500.0,,729251.0,58.0,Woman
690,365292.0,A2VN1358M5F1P7,DepthScenes,v2_duration_discrimination,discrim_jsons/Discrim125_randls_53_rotated.json,http://54.235.29.9/FacialAge/BNav_EC2/DepthDuration/v2_depth_discrimination_MTurk/v2_DepthDiscrim_HTML.html#295,295.0,1366.0,625.0,1366.0,768.0,9-6-2022,-1.144365272242883,8-44-17,3.0,depth_discrimination_stimuli/003081_2014-06-15_15-19-16_094959634447_rgbf000150-resize_1/003081_2014-06-15_15-19-16_094959634447_rgbf000150-resize_1-target.png,depth_discrimination_stimuli/001417_2014-06-19_16-25-36_260595134347_rgbf000115-resize_5/001417_2014-06-19_16-25-36_260595134347_rgbf000115-resize_5-target.png,125.0,3.9125,0.7129999999999996,depth_discrimination_stimuli/003081_2014-06-15_15-19-16_094959634447_rgbf000150-resize_1/003081_2014-06-15_15-19-16_094959634447_rgbf000150-resize_1-target.png,4.6255,1.0,1174.0,-0.2300134339400665,124.0,999.0,-2.132285947350648,501.0,,729251.0,58.0,Woman
691,365292.0,A2VN1358M5F1P7,DepthScenes,v2_duration_discrimination,discrim_jsons/Discrim125_randls_53_rotated.json,http://54.235.29.9/FacialAge/BNav_EC2/DepthDuration/v2_depth_discrimination_MTurk/v2_DepthDiscrim_HTML.html#295,295.0,1366.0,625.0,1366.0,768.0,9-6-2022,-1.0089162225996848,8-44-17,4.0,depth_discrimination_stimuli/000549_2014-06-08_22-10-24_260595134347_rgbf000247-resize_3/000549_2014-06-08_22-10-24_260595134347_rgbf000247-resize_3-target.png,depth_discrimination_stimuli/001055_2014-06-08_18-45-35_260595134347_rgbf000111-resize_4/001055_2014-06-08_18-45-35_260595134347_rgbf000111-resize_4-target.png,125.0,1.841,0.5880000000000003,depth_discrimination_stimuli/000549_2014-06-08_22-10-24_260595134347_rgbf000247-resize_3/000549_2014-06-08_22-10-24_260595134347_rgbf000247-resize_3-target.png,2.4290000000000003,1.0,1241.0,1018.0,78.0,1052.0,108.0,462.0,,729251.0,58.0,Woman
692,365292.0,A2VN1358M5F1P7,DepthScenes,v2_duration_discrimination,discrim_jsons/Discrim125_randls_53_rotated.json,http://54.235.29.9/FacialAge/BNav_EC2/DepthDuration/v2_depth_discrimination_MTurk/v2_DepthDiscrim_HTML.html#295,295.0,1366.0,625.0,1366.0,768.0,9-6-2022,-2.585785755759303,8-44-17,5.0,depth_discrimination_stimuli/001650_2014-06-20_12-09-00_260595134347_rgbf000087-resize_3/001650_2014-06-20_12-09-00_260595134347_rgbf000087-resize_3-target.png,depth_discrimination_stimuli/000682_2014-06-08_23-14-58_260595134347_rgbf000041-resize_5/000682_2014-06-08_23-14-58_260595134347_rgbf000041-resize_5-target.png,125.0,1.9505,0.7734999999999999,depth_discrimination_stimuli/001650_2014-06-20_12-09-00_260595134347_rgbf000087-resize_3/001650_2014-06-20_12-09-00_260595134347_rgbf000087-resize_3-target.png,2.7239999999999998,0.0,461.0,1000.0,125.0,-0.2599704813953512,123.0,843.0,,729251.0,58.0,Woman
693,365292.0,A2VN1358M5F1P7,DepthScenes,v2_duration_discrimination,discrim_jsons/Discrim125_randls_53_rotated.json,http://54.235.29.9/FacialAge/BNav_EC2/DepthDuration/v2_depth_discrimination_MTurk/v2_DepthDiscrim_HTML.html#295,295.0,1366.0,625.0,1366.0,768.0,9-6-2022,-0.8289913656109592,8-44-17,6.0,depth_discrimination_stimuli/003490_2014-05-21_15-50-11_094959634447_rgbf000101-resize_3/003490_2014-05-21_15-50-11_094959634447_rgbf000101-resize_3-target.png,depth_discrimination_stimuli/001175_2014-06-17_15-45-55_260595134347_rgbf000129-resize_4/001175_2014-06-17_15-45-55_260595134347_rgbf000129-resize_4-target.png,125.0,3.6445,0.6105,depth_discrimination_stimuli/003490_2014-05-21_15-50-11_094959634447_rgbf000101-resize_3/003490_2014-05-21_15-50-11_094959634447_rgbf000101-resize_3-target.png,4.255,0.0,1330.0,1012.0,112.0,1000.0,125.0,501.0,,729251.0,58.0,Woman
694,365292.0,A2VN1358M5F1P7,DepthScenes,v2_duration_discrimination,discrim_jsons/Discrim125_randls_53_rotated.json,http://54.235.29.9/FacialAge/BNav_EC2/DepthDuration/v2_depth_discrimination_MTurk/v2_DepthDiscrim_HTML.html#295,295.0,1366.0,625.0,1366.0,768.0,9-6-2022,-1.2697061838530064,8-44-17,7.0,depth_discrimination_stimuli/001828_2014-06-26_21-40-03_260595134347_rgbf000024-resize_0/001828_2014-06-26_21-40-03_260595134347_rgbf000024-resize_0-target.png,depth_discrimination_stimuli/000009_2014-05-26_14-32-05_260595134347_rgbf000034-resize_3/000009_2014-05-26_14-32-05_260595134347_rgbf000034-resize_3-target.png,125.0,4.8260000000000005,0.9545000000000003,depth_discrimination_stimuli/000009_2014-05-26_14-32-05_260595134347_rgbf000034-resize_3/000009_2014-05-26_14-32-05_260595134347_rgbf000034-resize_3-target.png,3.8715,3.0,1112.0,1003.0,124.0,997.0,128.0,500.0,,729251.0,58.0,Woman
695,365292.0,A2VN1358M5F1P7,DepthScenes,v2_duration_discrimination,discrim_jsons/Discrim125_randls_53_rotated.json,http://54.235.29.9/FacialAge/BNav_EC2/DepthDuration/v2_depth_discrimination_MTurk/v2_DepthDiscrim_HTML.html#295,295.0,1366.0,625.0,1366.0,768.0,9-6-2022,-3.517334283288116,8-44-17,8.0,depth_discrimination_stimuli/002949_2014-06-26_15-57-42_094959634447_rgbf000079-resize_1/002949_2014-06-26_15-57-42_094959634447_rgbf000079-resize_1-target.png,depth_discrimination_stimuli/000522_2014-06-08_13-35-06_260595134347_rgbf000244-resize_1/000522_2014-06-08_13-35-06_260595134347_rgbf000244-resize_1-target.png,125.0,1.8915,0.4800000000000002,depth_discrimination_stimuli/002949_2014-06-26_15-57-42_094959634447_rgbf000079-resize_1/002949_2014-06-26_15-57-42_094959634447_rgbf000079-resize_1-target.png,2.3715,0.0,0.20864333236946023,1016.0,140.0,984.0,139.0,485.0,,729251.0,58.0,Woman
696,365292.0,A2VN1358M5F1P7,DepthScenes,v2_duration_discrimination,discrim_jsons/Discrim125_randls_53_rotated.json,http://54.235.29.9/FacialAge/BNav_EC2/DepthDuration/v2_depth_discrimination_MTurk/v2_DepthDiscrim_HTML.html#295,295.0,1366.0,625.0,1366.0,768.0,9-6-2022,-1.9691893357417602,8-44-17,9.0,depth_discrimination_stimuli/003129_2014-05-12_10-48-10_094959634447_rgbf000100-resize_0/003129_2014-05-12_10-48-10_094959634447_rgbf000100-resize_0-target.png,depth_discrimination_stimuli/000414_2014-06-04_19-49-13_260595134347_rgbf000044-resize_0/000414_2014-06-04_19-49-13_260595134347_rgbf000044-resize_0-target.png,125.0,4.9305,0.6015000000000006,depth_discrimination_stimuli/000414_2014-06-04_19-49-13_260595134347_rgbf000044-resize_0/000414_2014-06-04_19-49-13_260595134347_rgbf000044-resize_0-target.png,4.329,0.0,766.0,-0.2300134339400665,125.0,1047.0,64.0,514.0,,729251.0,58.0,Woman
698,365292.0,A2VN1358M5F1P7,DepthScenes,v2_duration_discrimination,discrim_jsons/Discrim125_randls_53_rotated.json,http://54.235.29.9/FacialAge/BNav_EC2/DepthDuration/v2_depth_discrimination_MTurk/v2_DepthDiscrim_HTML.html#295,295.0,1366.0,625.0,1366.0,768.0,9-6-2022,-0.3579521332696886,8-44-17,11.0,depth_discrimination_stimuli/002199_2014-06-28_18-33-56_260595134347_rgbf000074-resize_0/002199_2014-06-28_18-33-56_260595134347_rgbf000074-resize_0-target.png,depth_discrimination_stimuli/001056_2014-06-08_18-46-44_260595134347_rgbf000068-resize_0/001056_2014-06-08_18-46-44_260595134347_rgbf000068-resize_0-target.png,125.0,1.996,0.6665000000000001,depth_discrimination_stimuli/002199_2014-06-28_18-33-56_260595134347_rgbf000074-resize_0/002199_2014-06-28_18-33-56_260595134347_rgbf000074-resize_0-target.png,2.6625,1.0,1563.0,-0.2300134339400665,110.0,1045.0,128.0,466.0,,729251.0,58.0,Woman
699,365292.0,A2VN1358M5F1P7,DepthScenes,v2_duration_discrimination,discrim_jsons/Discrim125_randls_53_rotated.json,http://54.235.29.9/FacialAge/BNav_EC2/DepthDuration/v2_depth_discrimination_MTurk/v2_DepthDiscrim_HTML.html#295,295.0,1366.0,625.0,1366.0,768.0,9-6-2022,-0.3599737608763035,8-44-17,12.0,depth_discrimination_stimuli/000191_2014-05-12_17-07-38_260595134347_rgbf000199-resize_0/000191_2014-05-12_17-07-38_260595134347_rgbf000199-resize_0-target.png,depth_discrimination_stimuli/000493_2014-06-09_21-01-18_260595134347_rgbf000196-resize_3/000493_2014-06-09_21-01-18_260595134347_rgbf000196-resize_3-target.png,125.0,3.7995,0.35950000000000015,depth_discrimination_stimuli/000493_2014-06-09_21-01-18_260595134347_rgbf000196-resize_3/000493_2014-06-09_21-01-18_260595134347_rgbf000196-resize_3-target.png,3.44,1.0,1562.0,1109.0,-2.32486696670605,996.0,110.0,500.0,,729251.0,58.0,Woman
700,365292.0,A2VN1358M5F1P7,DepthScenes,v2_duration_discrimination,discrim_jsons/Discrim125_randls_53_rotated.json,http://54.235.29.9/FacialAge/BNav_EC2/DepthDuration/v2_depth_discrimination_MTurk/v2_DepthDiscrim_HTML.html#295,295.0,1366.0,625.0,1366.0,768.0,9-6-2022,-1.77915634071996,8-44-17,13.0,depth_discrimination_stimuli/002323_2014-06-28_20-01-54_260595134347_rgbf000051-resize_4/002323_2014-06-28_20-01-54_260595134347_rgbf000051-resize_4-target.png,depth_discrimination_stimuli/000917_2014-06-09_22-45-29_260595134347_rgbf000149-resize_3/000917_2014-06-09_22-45-29_260595134347_rgbf000149-resize_3-target.png,125.0,3.7310000000000003,0.45549999999999935,depth_discrimination_stimuli/002323_2014-06-28_20-01-54_260595134347_rgbf000051-resize_4/002323_2014-06-28_20-01-54_260595134347_rgbf000051-resize_4-target.png,4.1865,1.0,860.0,1024.0,115.0,1219.0,0.0,374.0,,729251.0,58.0,Woman
701,365292.0,A2VN1358M5F1P7,DepthScenes,v2_duration_discrimination,discrim_jsons/Discrim125_randls_53_rotated.json,http://54.235.29.9/FacialAge/BNav_EC2/DepthDuration/v2_depth_discrimination_MTurk/v2_DepthDiscrim_HTML.html#295,295.0,1366.0,625.0,1366.0,768.0,9-6-2022,-2.694953646516508,8-44-17,14.0,depth_discrimination_stimuli/002425_2014-06-28_20-27-29_260595134347_rgbf000031-resize_8/002425_2014-06-28_20-27-29_260595134347_rgbf000031-resize_8-target.png,depth_discrimination_stimuli/000642_2014-06-08_16-59-25_260595134347_rgbf000098-resize_2/000642_2014-06-08_16-59-25_260595134347_rgbf000098-resize_2-target.png,125.0,3.8960000000000004,1.0145000000000004,depth_discrimination_stimuli/000642_2014-06-08_16-59-25_260595134347_rgbf000098-resize_2/000642_2014-06-08_16-59-25_260595134347_rgbf000098-resize_2-target.png,2.8815,3.0,407.0,-0.2599704813953512,139.0,1000.0,124.0,516.0,,729251.0,58.0,Woman
702,365292.0,A2VN1358M5F1P7,DepthScenes,v2_duration_discrimination,discrim_jsons/Discrim125_randls_53_rotated.json,http://54.235.29.9/FacialAge/BNav_EC2/DepthDuration/v2_depth_discrimination_MTurk/v2_DepthDiscrim_HTML.html#295,295.0,1366.0,625.0,1366.0,768.0,9-6-2022,-1.9065188799366986,8-44-17,15.0,depth_discrimination_stimuli/003587_2014-05-23_16-48-02_094959634447_rgbf002384-resize_2/003587_2014-05-23_16-48-02_094959634447_rgbf002384-resize_2-target.png,depth_discrimination_stimuli/001167_2014-06-17_15-38-07_260595134347_rgbf000108-resize_0/001167_2014-06-17_15-38-07_260595134347_rgbf000108-resize_0-target.png,125.0,1.357,0.49350000000000005,depth_discrimination_stimuli/003587_2014-05-23_16-48-02_094959634447_rgbf002384-resize_2/003587_2014-05-23_16-48-02_094959634447_rgbf002384-resize_2-target.png,1.8505,0.0,797.0,1013.0,145.0,982.0,125.0,500.0,,729251.0,58.0,Woman
704,365292.0,A2VN1358M5F1P7,DepthScenes,v2_duration_discrimination,discrim_jsons/Discrim125_randls_53_rotated.json,http://54.235.29.9/FacialAge/BNav_EC2/DepthDuration/v2_depth_discrimination_MTurk/v2_DepthDiscrim_HTML.html#295,295.0,1366.0,625.0,1366.0,768.0,9-6-2022,0.34355264622568005,8-44-17,-2.3655229596810794,depth_discrimination_stimuli/002545_2014-06-24_13-38-53_094959634447_rgbf000080-resize_4/002545_2014-06-24_13-38-53_094959634447_rgbf000080-resize_4-target.png,depth_discrimination_stimuli/001092_2014-06-15_17-34-58_260595134347_rgbf000171-resize_3/001092_2014-06-15_17-34-58_260595134347_rgbf000171-resize_3-target.png,125.0,1.9205,0.7729999999999997,depth_discrimination_stimuli/002545_2014-06-24_13-38-53_094959634447_rgbf000080-resize_4/002545_2014-06-24_13-38-53_094959634447_rgbf000080-resize_4-target.png,2.6935,0.0,1910.0,1016.0,124.0,1000.0,125.0,500.0,,729251.0,58.0,Woman
705,365292.0,A2VN1358M5F1P7,DepthScenes,v2_duration_discrimination,discrim_jsons/Discrim125_randls_53_rotated.json,http://54.235.29.9/FacialAge/BNav_EC2/DepthDuration/v2_depth_discrimination_MTurk/v2_DepthDiscrim_HTML.html#295,295.0,1366.0,625.0,1366.0,768.0,9-6-2022,-0.6753476675082272,8-44-17,18.0,depth_discrimination_stimuli/001214_2014-06-17_16-13-55_260595134347_rgbf000111-resize_0/001214_2014-06-17_16-13-55_260595134347_rgbf000111-resize_0-target.png,depth_discrimination_stimuli/000810_2014-06-08_17-20-01_260595134347_rgbf000105-resize_0/000810_2014-06-08_17-20-01_260595134347_rgbf000105-resize_0-target.png,125.0,2.6505,1.1640000000000001,depth_discrimination_stimuli/000810_2014-06-08_17-20-01_260595134347_rgbf000105-resize_0/000810_2014-06-08_17-20-01_260595134347_rgbf000105-resize_0-target.png,1.4865,1.0,1406.0,1012.0,141.0,-0.289927528850636,141.0,484.0,,729251.0,58.0,Woman
706,365292.0,A2VN1358M5F1P7,DepthScenes,v2_duration_discrimination,discrim_jsons/Discrim125_randls_53_rotated.json,http://54.235.29.9/FacialAge/BNav_EC2/DepthDuration/v2_depth_discrimination_MTurk/v2_DepthDiscrim_HTML.html#295,295.0,1366.0,625.0,1366.0,768.0,9-6-2022,-0.7703641650191273,8-44-17,19.0,depth_discrimination_stimuli/001052_2014-06-08_18-24-54_260595134347_rgbf000130-resize_1/001052_2014-06-08_18-24-54_260595134347_rgbf000130-resize_1-target.png,depth_discrimination_stimuli/002988_2014-06-15_12-24-20_094959634447_rgbf000150-resize_1/002988_2014-06-15_12-24-20_094959634447_rgbf000150-resize_1-target.png,125.0,4.1045,0.6624999999999996,depth_discrimination_stimuli/001052_2014-06-08_18-24-54_260595134347_rgbf000130-resize_1/001052_2014-06-08_18-24-54_260595134347_rgbf000130-resize_1-target.png,4.7669999999999995,0.0,1359.0,1032.0,104.0,1005.0,124.0,500.0,,729251.0,58.0,Woman
707,365292.0,A2VN1358M5F1P7,DepthScenes,v2_duration_discrimination,discrim_jsons/Discrim125_randls_53_rotated.json,http://54.235.29.9/FacialAge/BNav_EC2/DepthDuration/v2_depth_discrimination_MTurk/v2_DepthDiscrim_HTML.html#295,295.0,1366.0,625.0,1366.0,768.0,9-6-2022,-0.4428604927475142,8-44-17,20.0,depth_discrimination_stimuli/002637_2014-06-24_14-51-13_094959634447_rgbf000066-resize_4/002637_2014-06-24_14-51-13_094959634447_rgbf000066-resize_4-target.png,depth_discrimination_stimuli/003534_2014-05-22_15-06-10_094959634447_rgbf000102-resize_4/003534_2014-05-22_15-06-10_094959634447_rgbf000102-resize_4-target.png,125.0,1.9955,0.5695000000000001,depth_discrimination_stimuli/003534_2014-05-22_15-06-10_094959634447_rgbf000102-resize_4/003534_2014-05-22_15-06-10_094959634447_rgbf000102-resize_4-target.png,1.426,1.0,1521.0,1110.0,16.0,1207.0,2.0,422.0,,729251.0,58.0,Woman
708,365292.0,A2VN1358M5F1P7,DepthScenes,v2_duration_discrimination,discrim_jsons/Discrim125_randls_53_rotated.json,http://54.235.29.9/FacialAge/BNav_EC2/DepthDuration/v2_depth_discrimination_MTurk/v2_DepthDiscrim_HTML.html#295,295.0,1366.0,625.0,1366.0,768.0,9-6-2022,-0.43073072710782484,8-44-17,21.0,depth_discrimination_stimuli/000665_2014-06-09_20-42-35_260595134347_rgbf000110-resize_1/000665_2014-06-09_20-42-35_260595134347_rgbf000110-resize_1-target.png,depth_discrimination_stimuli/001150_2014-06-17_15-27-34_260595134347_rgbf000108-resize_2/001150_2014-06-17_15-27-34_260595134347_rgbf000108-resize_2-target.png,125.0,3.057,0.9754999999999998,depth_discrimination_stimuli/000665_2014-06-09_20-42-35_260595134347_rgbf000110-resize_1/000665_2014-06-09_20-42-35_260595134347_rgbf000110-resize_1-target.png,4.0325,1.0,1527.0,1003.0,124.0,1021.0,106.0,495.0,,729251.0,58.0,Woman
709,365292.0,A2VN1358M5F1P7,DepthScenes,v2_duration_discrimination,discrim_jsons/Discrim125_randls_53_rotated.json,http://54.235.29.9/FacialAge/BNav_EC2/DepthDuration/v2_depth_discrimination_MTurk/v2_DepthDiscrim_HTML.html#295,295.0,1366.0,625.0,1366.0,768.0,9-6-2022,0.460807047409344,8-44-17,22.0,depth_discrimination_stimuli/001617_2014-06-20_11-35-32_260595134347_rgbf000066-resize_1/001617_2014-06-20_11-35-32_260595134347_rgbf000066-resize_1-target.png,depth_discrimination_stimuli/001806_2014-06-26_20-50-20_260595134347_rgbf000091-resize_1/001806_2014-06-26_20-50-20_260595134347_rgbf000091-resize_1-target.png,125.0,3.7910000000000004,1.0605000000000002,depth_discrimination_stimuli/001806_2014-06-26_20-50-20_260595134347_rgbf000091-resize_1/001806_2014-06-26_20-50-20_260595134347_rgbf000091-resize_1-target.png,2.7305,3.0,1968.0,1012.0,113.0,1126.0,11.0,489.0,,729251.0,58.0,Woman
710,365292.0,A2VN1358M5F1P7,DepthScenes,v2_duration_discrimination,discrim_jsons/Discrim125_randls_53_rotated.json,http://54.235.29.9/FacialAge/BNav_EC2/DepthDuration/v2_depth_discrimination_MTurk/v2_DepthDiscrim_HTML.html#295,295.0,1366.0,625.0,1366.0,768.0,9-6-2022,-1.1302138789965785,8-44-17,23.0,depth_discrimination_stimuli/003083_2014-06-15_15-21-03_094959634447_rgbf000063-resize_1/003083_2014-06-15_15-21-03_094959634447_rgbf000063-resize_1-target.png,depth_discrimination_stimuli/000486_2014-06-09_20-47-20_260595134347_rgbf000143-resize_2/000486_2014-06-09_20-47-20_260595134347_rgbf000143-resize_2-target.png,125.0,4.1405,0.6919999999999993,depth_discrimination_stimuli/003083_2014-06-15_15-21-03_094959634447_rgbf000063-resize_1/003083_2014-06-15_15-21-03_094959634447_rgbf000063-resize_1-target.png,4.8325,1.0,1181.0,1016.0,124.0,991.0,133.0,609.0,,729251.0,58.0,Woman
711,365292.0,A2VN1358M5F1P7,DepthScenes,v2_duration_discrimination,discrim_jsons/Discrim125_randls_53_rotated.json,http://54.235.29.9/FacialAge/BNav_EC2/DepthDuration/v2_depth_discrimination_MTurk/v2_DepthDiscrim_HTML.html#295,295.0,1366.0,625.0,1366.0,768.0,9-6-2022,-0.12748658611559058,8-44-17,24.0,depth_discrimination_stimuli/001815_2014-06-26_20-52-55_260595134347_rgbf000020-resize_0/001815_2014-06-26_20-52-55_260595134347_rgbf000020-resize_0-target.png,depth_discrimination_stimuli/001808_2014-06-26_20-50-58_260595134347_rgbf000029-resize_1/001808_2014-06-26_20-50-58_260595134347_rgbf000029-resize_1-target.png,125.0,3.3865,0.8624999999999998,depth_discrimination_stimuli/001815_2014-06-26_20-52-55_260595134347_rgbf000020-resize_0/001815_2014-06-26_20-52-55_260595134347_rgbf000020-resize_0-target.png,4.249,0.0,1677.0,1000.0,141.0,1000.0,124.0,500.0,,729251.0,58.0,Woman
712,365292.0,A2VN1358M5F1P7,DepthScenes,v2_duration_discrimination,discrim_jsons/Discrim125_randls_53_rotated.json,http://54.235.29.9/FacialAge/BNav_EC2/DepthDuration/v2_depth_discrimination_MTurk/v2_DepthDiscrim_HTML.html#295,295.0,1366.0,625.0,1366.0,768.0,9-6-2022,-0.9078348422689402,8-44-17,25.0,depth_discrimination_stimuli/002758_2014-06-22_19-11-20_094959634447_rgbf000128-resize_1/002758_2014-06-22_19-11-20_094959634447_rgbf000128-resize_1-target.png,depth_discrimination_stimuli/002630_2014-06-24_14-47-50_094959634447_rgbf000055-resize_1/002630_2014-06-24_14-47-50_094959634447_rgbf000055-resize_1-target.png,125.0,2.555,0.4544999999999999,depth_discrimination_stimuli/002758_2014-06-22_19-11-20_094959634447_rgbf000128-resize_1/002758_2014-06-22_19-11-20_094959634447_rgbf000128-resize_1-target.png,3.0095,3.0,1291.0,1002.0,122.0,1353.0,2.0,274.0,,729251.0,58.0,Woman
714,365292.0,A2VN1358M5F1P7,DepthScenes,v2_duration_discrimination,discrim_jsons/Discrim125_randls_53_rotated.json,http://54.235.29.9/FacialAge/BNav_EC2/DepthDuration/v2_depth_discrimination_MTurk/v2_DepthDiscrim_HTML.html#295,295.0,1366.0,625.0,1366.0,768.0,9-6-2022,-2.4483150785094905,8-44-17,27.0,depth_discrimination_stimuli/002444_2014-06-28_20-32-08_260595134347_rgbf000027-resize_0/002444_2014-06-28_20-32-08_260595134347_rgbf000027-resize_0-target.png,depth_discrimination_stimuli/000436_2014-06-09_22-25-11_260595134347_rgbf000137-resize_1/000436_2014-06-09_22-25-11_260595134347_rgbf000137-resize_1-target.png,125.0,4.388999999999999,0.31849999999999934,depth_discrimination_stimuli/000436_2014-06-09_22-25-11_260595134347_rgbf000137-resize_1/000436_2014-06-09_22-25-11_260595134347_rgbf000137-resize_1-target.png,4.0705,1.0,529.0,1006.0,136.0,1000.0,121.0,516.0,,729251.0,58.0,Woman
715,365292.0,A2VN1358M5F1P7,DepthScenes,v2_duration_discrimination,discrim_jsons/Discrim125_randls_53_rotated.json,http://54.235.29.9/FacialAge/BNav_EC2/DepthDuration/v2_depth_discrimination_MTurk/v2_DepthDiscrim_HTML.html#295,295.0,1366.0,625.0,1366.0,768.0,9-6-2022,-1.5587989315989363,8-44-17,-2.3419852795376412,depth_discrimination_stimuli/002209_2014-06-28_18-36-10_260595134347_rgbf000051-resize_1/002209_2014-06-28_18-36-10_260595134347_rgbf000051-resize_1-target.png,depth_discrimination_stimuli/002763_2014-06-22_19-13-10_094959634447_rgbf000075-resize_4/002763_2014-06-22_19-13-10_094959634447_rgbf000075-resize_4-target.png,125.0,2.057,0.37324999999999986,depth_discrimination_stimuli/002763_2014-06-22_19-13-10_094959634447_rgbf000075-resize_4/002763_2014-06-22_19-13-10_094959634447_rgbf000075-resize_4-target.png,1.68375,0.0,969.0,1000.0,141.0,1000.0,124.0,640.0,,729251.0,58.0,Woman
716,365292.0,A2VN1358M5F1P7,DepthScenes,v2_duration_discrimination,discrim_jsons/Discrim125_randls_53_rotated.json,http://54.235.29.9/FacialAge/BNav_EC2/DepthDuration/v2_depth_discrimination_MTurk/v2_DepthDiscrim_HTML.html#295,295.0,1366.0,625.0,1366.0,768.0,9-6-2022,-1.4799554549409555,8-44-17,29.0,depth_discrimination_stimuli/000103_2014-05-14_22-01-17_260595134347_rgbf000152-resize_5/000103_2014-05-14_22-01-17_260595134347_rgbf000152-resize_5-target.png,depth_discrimination_stimuli/001555_2014-06-20_17-12-10_260595134347_rgbf000065-resize_4/001555_2014-06-20_17-12-10_260595134347_rgbf000065-resize_4-target.png,125.0,1.993,0.3600000000000001,depth_discrimination_stimuli/001555_2014-06-20_17-12-10_260595134347_rgbf000065-resize_4/001555_2014-06-20_17-12-10_260595134347_rgbf000065-resize_4-target.png,1.633,1.0,1008.0,-0.2300134339400665,124.0,1000.0,148.0,476.0,,729251.0,58.0,Woman
717,365292.0,A2VN1358M5F1P7,DepthScenes,v2_duration_discrimination,discrim_jsons/Discrim125_randls_53_rotated.json,http://54.235.29.9/FacialAge/BNav_EC2/DepthDuration/v2_depth_discrimination_MTurk/v2_DepthDiscrim_HTML.html#295,295.0,1366.0,625.0,1366.0,768.0,9-6-2022,-1.3586577985440618,8-44-17,30.0,depth_discrimination_stimuli/002678_2014-06-13_16-15-32_094959634447_rgbf000151-resize_6/002678_2014-06-13_16-15-32_094959634447_rgbf000151-resize_6-target.png,depth_discrimination_stimuli/000368_2014-06-09_15-53-01_260595134347_rgbf000155-resize_2/000368_2014-06-09_15-53-01_260595134347_rgbf000155-resize_2-target.png,125.0,2.1830000000000003,0.3029999999999995,depth_discrimination_stimuli/002678_2014-06-13_16-15-32_094959634447_rgbf000151-resize_6/002678_2014-06-13_16-15-32_094959634447_rgbf000151-resize_6-target.png,2.4859999999999998,1.0,1068.0,1028.0,96.0,-0.2599704813953512,122.0,501.0,,729251.0,58.0,Woman
718,365292.0,A2VN1358M5F1P7,DepthScenes,v2_duration_discrimination,discrim_jsons/Discrim125_randls_53_rotated.json,http://54.235.29.9/FacialAge/BNav_EC2/DepthDuration/v2_depth_discrimination_MTurk/v2_DepthDiscrim_HTML.html#295,295.0,1366.0,625.0,1366.0,768.0,9-6-2022,-1.0210459882393743,8-44-17,31.0,depth_discrimination_stimuli/001447_2014-06-19_17-00-32_260595134347_rgbf000082-resize_5/001447_2014-06-19_17-00-32_260595134347_rgbf000082-resize_5-target.png,depth_discrimination_stimuli/000447_2014-06-08_16-15-46_260595134347_rgbf000130-resize_1/000447_2014-06-08_16-15-46_260595134347_rgbf000130-resize_1-target.png,125.0,4.13775,0.3412500000000005,depth_discrimination_stimuli/001447_2014-06-19_17-00-32_260595134347_rgbf000082-resize_5/001447_2014-06-19_17-00-32_260595134347_rgbf000082-resize_5-target.png,4.479,0.0,1235.0,1016.0,141.0,984.0,124.0,500.0,,729251.0,58.0,Woman
719,365292.0,A2VN1358M5F1P7,DepthScenes,v2_duration_discrimination,discrim_jsons/Discrim125_randls_53_rotated.json,http://54.235.29.9/FacialAge/BNav_EC2/DepthDuration/v2_depth_discrimination_MTurk/v2_DepthDiscrim_HTML.html#295,295.0,1366.0,625.0,1366.0,768.0,9-6-2022,-0.8027102067249656,8-44-17,32.0,depth_discrimination_stimuli/003079_2014-06-15_15-18-20_094959634447_rgbf000152-resize_8/003079_2014-06-15_15-18-20_094959634447_rgbf000152-resize_8-target.png,depth_discrimination_stimuli/000506_2014-06-08_23-21-00_260595134347_rgbf000070-resize_7/000506_2014-06-08_23-21-00_260595134347_rgbf000070-resize_7-target.png,125.0,2.8775,1.1810000000000005,depth_discrimination_stimuli/003079_2014-06-15_15-18-20_094959634447_rgbf000152-resize_8/003079_2014-06-15_15-18-20_094959634447_rgbf000152-resize_8-target.png,4.0585,1.0,1343.0,-0.2300134339400665,140.0,984.0,124.0,496.0,,729251.0,58.0,Woman
720,365292.0,A2VN1358M5F1P7,DepthScenes,v2_duration_discrimination,discrim_jsons/Discrim125_randls_53_rotated.json,http://54.235.29.9/FacialAge/BNav_EC2/DepthDuration/v2_depth_discrimination_MTurk/v2_DepthDiscrim_HTML.html#295,295.0,1366.0,625.0,1366.0,768.0,9-6-2022,-1.8135240100324133,8-44-17,-2.331286334017897,depth_discrimination_stimuli/002340_2014-06-28_20-05-46_260595134347_rgbf000113-resize_0/002340_2014-06-28_20-05-46_260595134347_rgbf000113-resize_0-target.png,depth_discrimination_stimuli/001016_2014-06-09_16-16-10_260595134347_rgbf000112-resize_5/001016_2014-06-09_16-16-10_260595134347_rgbf000112-resize_5-target.png,125.0,2.4735,0.817,depth_discrimination_stimuli/001016_2014-06-09_16-16-10_260595134347_rgbf000112-resize_5/001016_2014-06-09_16-16-10_260595134347_rgbf000112-resize_5-target.png,1.6565,0.0,843.0,-0.19149723006898609,97.0,999.0,138.0,500.0,,729251.0,58.0,Woman
721,365292.0,A2VN1358M5F1P7,DepthScenes,v2_duration_discrimination,discrim_jsons/Discrim125_randls_53_rotated.json,http://54.235.29.9/FacialAge/BNav_EC2/DepthDuration/v2_depth_discrimination_MTurk/v2_DepthDiscrim_HTML.html#295,295.0,1366.0,625.0,1366.0,768.0,9-6-2022,-0.17398402106773317,8-44-17,34.0,depth_discrimination_stimuli/000734_2014-06-08_17-39-11_260595134347_rgbf000128-resize_2/000734_2014-06-08_17-39-11_260595134347_rgbf000128-resize_2-target.png,depth_discrimination_stimuli/000739_2014-06-08_18-45-58_260595134347_rgbf000068-resize_1/000739_2014-06-08_18-45-58_260595134347_rgbf000068-resize_1-target.png,125.0,4.098,0.5640000000000001,depth_discrimination_stimuli/000739_2014-06-08_18-45-58_260595134347_rgbf000068-resize_1/000739_2014-06-08_18-45-58_260595134347_rgbf000068-resize_1-target.png,3.534,1.0,1654.0,1010.0,128.0,1002.0,123.0,500.0,,729251.0,58.0,Woman
723,365292.0,A2VN1358M5F1P7,DepthScenes,v2_duration_discrimination,discrim_jsons/Discrim125_randls_53_rotated.json,http://54.235.29.9/FacialAge/BNav_EC2/DepthDuration/v2_depth_discrimination_MTurk/v2_DepthDiscrim_HTML.html#295,295.0,1366.0,625.0,1366.0,768.0,9-6-2022,-1.4011119782829746,8-44-17,-2.32486696670605,depth_discrimination_stimuli/000502_2014-06-08_23-02-32_260595134347_rgbf000063-resize_4/000502_2014-06-08_23-02-32_260595134347_rgbf000063-resize_4-target.png,depth_discrimination_stimuli/001199_2014-06-17_16-03-48_260595134347_rgbf000077-resize_0/001199_2014-06-17_16-03-48_260595134347_rgbf000077-resize_0-target.png,125.0,2.431,1.0065,depth_discrimination_stimuli/000502_2014-06-08_23-02-32_260595134347_rgbf000063-resize_4/000502_2014-06-08_23-02-32_260595134347_rgbf000063-resize_4-target.png,3.4375,1.0,1047.0,1013.0,124.0,999.0,-2.132285947350648,499.0,,729251.0,58.0,Woman
724,365292.0,A2VN1358M5F1P7,DepthScenes,v2_duration_discrimination,discrim_jsons/Discrim125_randls_53_rotated.json,http://54.235.29.9/FacialAge/BNav_EC2/DepthDuration/v2_depth_discrimination_MTurk/v2_DepthDiscrim_HTML.html#295,295.0,1366.0,625.0,1366.0,768.0,9-6-2022,-1.7710698302935004,8-44-17,37.0,depth_discrimination_stimuli/000749_2014-06-08_21-55-06_260595134347_rgbf000070-resize_2/000749_2014-06-08_21-55-06_260595134347_rgbf000070-resize_2-target.png,depth_discrimination_stimuli/002788_2014-06-22_19-36-03_094959634447_rgbf000088-resize_2/002788_2014-06-22_19-36-03_094959634447_rgbf000088-resize_2-target.png,125.0,2.331,0.6844999999999999,depth_discrimination_stimuli/002788_2014-06-22_19-36-03_094959634447_rgbf000088-resize_2/002788_2014-06-22_19-36-03_094959634447_rgbf000088-resize_2-target.png,1.6465,0.0,864.0,1016.0,120.0,990.0,134.0,500.0,,729251.0,58.0,Woman
725,365292.0,A2VN1358M5F1P7,DepthScenes,v2_duration_discrimination,discrim_jsons/Discrim125_randls_53_rotated.json,http://54.235.29.9/FacialAge/BNav_EC2/DepthDuration/v2_depth_discrimination_MTurk/v2_DepthDiscrim_HTML.html#295,295.0,1366.0,625.0,1366.0,768.0,9-6-2022,-0.13759472414866505,8-44-17,38.0,depth_discrimination_stimuli/002995_2014-06-15_12-31-26_094959634447_rgbf000150-resize_1/002995_2014-06-15_12-31-26_094959634447_rgbf000150-resize_1-target.png,depth_discrimination_stimuli/002748_2014-06-22_19-07-22_094959634447_rgbf000078-resize_1/002748_2014-06-22_19-07-22_094959634447_rgbf000078-resize_1-target.png,125.0,3.8360000000000003,0.8344999999999994,depth_discrimination_stimuli/002995_2014-06-15_12-31-26_094959634447_rgbf000150-resize_1/002995_2014-06-15_12-31-26_094959634447_rgbf000150-resize_1-target.png,4.6705,0.0,1672.0,1005.0,118.0,1005.0,139.0,484.0,,729251.0,58.0,Woman
726,365292.0,A2VN1358M5F1P7,DepthScenes,v2_duration_discrimination,discrim_jsons/Discrim125_randls_53_rotated.json,http://54.235.29.9/FacialAge/BNav_EC2/DepthDuration/v2_depth_discrimination_MTurk/v2_DepthDiscrim_HTML.html#295,295.0,1366.0,625.0,1366.0,768.0,9-6-2022,-0.3579521332696886,8-44-17,39.0,depth_discrimination_stimuli/000709_2014-06-08_13-51-55_260595134347_rgbf000068-resize_3/000709_2014-06-08_13-51-55_260595134347_rgbf000068-resize_3-target.png,depth_discrimination_stimuli/002057_2014-06-24_21-00-13_260595134347_rgbf000120-resize_1/002057_2014-06-24_21-00-13_260595134347_rgbf000120-resize_1-target.png,125.0,1.8030000000000002,1.164,depth_discrimination_stimuli/000709_2014-06-08_13-51-55_260595134347_rgbf000068-resize_3/000709_2014-06-08_13-51-55_260595134347_rgbf000068-resize_3-target.png,2.967,1.0,1563.0,1016.0,141.0,999.0,109.0,501.0,,729251.0,58.0,Woman
727,365292.0,A2VN1358M5F1P7,DepthScenes,v2_duration_discrimination,discrim_jsons/Discrim125_randls_53_rotated.json,http://54.235.29.9/FacialAge/BNav_EC2/DepthDuration/v2_depth_discrimination_MTurk/v2_DepthDiscrim_HTML.html#295,295.0,1366.0,625.0,1366.0,768.0,9-6-2022,-1.4556959236615767,8-44-17,40.0,depth_discrimination_stimuli/000742_2014-06-08_18-48-09_260595134347_rgbf000164-resize_4/000742_2014-06-08_18-48-09_260595134347_rgbf000164-resize_4-target.png,depth_discrimination_stimuli/001066_2014-06-08_22-03-20_260595134347_rgbf000066-resize_4/001066_2014-06-08_22-03-20_260595134347_rgbf000066-resize_4-target.png,125.0,4.632,0.39899999999999913,depth_discrimination_stimuli/001066_2014-06-08_22-03-20_260595134347_rgbf000066-resize_4/001066_2014-06-08_22-03-20_260595134347_rgbf000066-resize_4-target.png,4.2330000000000005,0.0,1020.0,-0.2300134339400665,118.0,-0.2599704813953512,129.0,500.0,,729251.0,58.0,Woman
728,365292.0,A2VN1358M5F1P7,DepthScenes,v2_duration_discrimination,discrim_jsons/Discrim125_randls_53_rotated.json,http://54.235.29.9/FacialAge/BNav_EC2/DepthDuration/v2_depth_discrimination_MTurk/v2_DepthDiscrim_HTML.html#295,295.0,1366.0,625.0,1366.0,768.0,9-6-2022,0.2404496382883204,8-44-17,41.0,depth_discrimination_stimuli/001516_2014-06-20_16-25-09_260595134347_rgbf000076-resize_2/001516_2014-06-20_16-25-09_260595134347_rgbf000076-resize_2-target.png,depth_discrimination_stimuli/002118_2014-06-25_20-32-08_260595134347_rgbf000078-resize_1/002118_2014-06-25_20-32-08_260595134347_rgbf000078-resize_1-target.png,125.0,1.7445,0.9015000000000004,depth_discrimination_stimuli/001516_2014-06-20_16-25-09_260595134347_rgbf000076-resize_2/001516_2014-06-20_16-25-09_260595134347_rgbf000076-resize_2-target.png,2.6460000000000004,0.0,1859.0,1032.0,99.0,1010.0,125.0,500.0,,729251.0,58.0,Woman
729,365292.0,A2VN1358M5F1P7,DepthScenes,v2_duration_discrimination,discrim_jsons/Discrim125_randls_53_rotated.json,http://54.235.29.9/FacialAge/BNav_EC2/DepthDuration/v2_depth_discrimination_MTurk/v2_DepthDiscrim_HTML.html#295,295.0,1366.0,625.0,1366.0,768.0,9-6-2022,-2.569612734906384,8-44-17,42.0,depth_discrimination_stimuli/002657_2014-06-13_15-29-54_094959634447_rgbf000150-resize_1/002657_2014-06-13_15-29-54_094959634447_rgbf000150-resize_1-target.png,depth_discrimination_stimuli/002375_2014-06-28_20-13-44_260595134347_rgbf000032-resize_1/002375_2014-06-28_20-13-44_260595134347_rgbf000032-resize_1-target.png,125.0,4.919,0.9014999999999995,depth_discrimination_stimuli/002375_2014-06-28_20-13-44_260595134347_rgbf000032-resize_1/002375_2014-06-28_20-13-44_260595134347_rgbf000032-resize_1-target.png,4.0175,1.0,469.0,1016.0,124.0,1000.0,124.0,492.0,,729251.0,58.0,Woman
730,365292.0,A2VN1358M5F1P7,DepthScenes,v2_duration_discrimination,discrim_jsons/Discrim125_randls_53_rotated.json,http://54.235.29.9/FacialAge/BNav_EC2/DepthDuration/v2_depth_discrimination_MTurk/v2_DepthDiscrim_HTML.html#295,295.0,1366.0,625.0,1366.0,768.0,9-6-2022,-0.7339748681000592,8-44-17,43.0,depth_discrimination_stimuli/000109_2014-05-14_23-41-52_260595134347_rgbf000035-resize_9/000109_2014-05-14_23-41-52_260595134347_rgbf000035-resize_9-target.png,depth_discrimination_stimuli/000470_2014-06-09_19-42-40_260595134347_rgbf000094-resize_1/000470_2014-06-09_19-42-40_260595134347_rgbf000094-resize_1-target.png,125.0,1.3545,0.4764999999999999,depth_discrimination_stimuli/000109_2014-05-14_23-41-52_260595134347_rgbf000035-resize_9/000109_2014-05-14_23-41-52_260595134347_rgbf000035-resize_9-target.png,1.831,1.0,1377.0,-0.2300134339400665,124.0,997.0,-2.130146158246699,531.0,,729251.0,58.0,Woman
731,365292.0,A2VN1358M5F1P7,DepthScenes,v2_duration_discrimination,discrim_jsons/Discrim125_randls_53_rotated.json,http://54.235.29.9/FacialAge/BNav_EC2/DepthDuration/v2_depth_discrimination_MTurk/v2_DepthDiscrim_HTML.html#295,295.0,1366.0,625.0,1366.0,768.0,9-6-2022,-1.1019110925039701,8-44-17,44.0,depth_discrimination_stimuli/001571_2014-06-20_17-21-32_260595134347_rgbf000089-resize_1/001571_2014-06-20_17-21-32_260595134347_rgbf000089-resize_1-target.png,depth_discrimination_stimuli/002272_2014-06-28_18-53-56_260595134347_rgbf000067-resize_2/002272_2014-06-28_18-53-56_260595134347_rgbf000067-resize_2-target.png,125.0,1.86,0.7220000000000002,depth_discrimination_stimuli/002272_2014-06-28_18-53-56_260595134347_rgbf000067-resize_2/002272_2014-06-28_18-53-56_260595134347_rgbf000067-resize_2-target.png,1.138,1.0,1195.0,1016.0,125.0,1000.0,111.0,514.0,,729251.0,58.0,Woman
732,365292.0,A2VN1358M5F1P7,DepthScenes,v2_duration_discrimination,discrim_jsons/Discrim125_randls_53_rotated.json,http://54.235.29.9/FacialAge/BNav_EC2/DepthDuration/v2_depth_discrimination_MTurk/v2_DepthDiscrim_HTML.html#295,295.0,1366.0,625.0,1366.0,768.0,9-6-2022,-2.106660012991573,8-44-17,45.0,depth_discrimination_stimuli/000556_2014-06-09_22-42-56_260595134347_rgbf000214-resize_1/000556_2014-06-09_22-42-56_260595134347_rgbf000214-resize_1-target.png,depth_discrimination_stimuli/001158_2014-06-17_15-32-16_260595134347_rgbf000138-resize_2/001158_2014-06-17_15-32-16_260595134347_rgbf000138-resize_2-target.png,125.0,4.8415,0.3099999999999996,depth_discrimination_stimuli/001158_2014-06-17_15-32-16_260595134347_rgbf000138-resize_2/001158_2014-06-17_15-32-16_260595134347_rgbf000138-resize_2-target.png,4.5315,0.0,698.0,-0.2599704813953512,-2.132285947350648,997.0,-2.130146158246699,498.0,,729251.0,58.0,Woman
733,365292.0,A2VN1358M5F1P7,DepthScenes,v2_duration_discrimination,discrim_jsons/Discrim125_randls_53_rotated.json,http://54.235.29.9/FacialAge/BNav_EC2/DepthDuration/v2_depth_discrimination_MTurk/v2_DepthDiscrim_HTML.html#295,295.0,1366.0,625.0,1366.0,768.0,9-6-2022,-1.2575764182133171,8-44-17,46.0,depth_discrimination_stimuli/001100_2014-06-15_17-46-26_260595134347_rgbf000225-resize_2/001100_2014-06-15_17-46-26_260595134347_rgbf000225-resize_2-target.png,depth_discrimination_stimuli/002784_2014-06-22_19-26-30_094959634447_rgbf000083-resize_3/002784_2014-06-22_19-26-30_094959634447_rgbf000083-resize_3-target.png,125.0,2.24,0.43533333333330027,depth_discrimination_stimuli/002784_2014-06-22_19-26-30_094959634447_rgbf000083-resize_3/002784_2014-06-22_19-26-30_094959634447_rgbf000083-resize_3-target.png,1.8046666666667,0.0,1118.0,-0.2599704813953512,-2.130146158246699,997.0,-2.130146158246699,498.0,,729251.0,58.0,Woman
734,365292.0,A2VN1358M5F1P7,DepthScenes,v2_duration_discrimination,discrim_jsons/Discrim125_randls_53_rotated.json,http://54.235.29.9/FacialAge/BNav_EC2/DepthDuration/v2_depth_discrimination_MTurk/v2_DepthDiscrim_HTML.html#295,295.0,1366.0,625.0,1366.0,768.0,9-6-2022,-1.841826796525022,8-44-17,47.0,depth_discrimination_stimuli/000854_2014-06-09_19-43-13_260595134347_rgbf000066-resize_0/000854_2014-06-09_19-43-13_260595134347_rgbf000066-resize_0-target.png,depth_discrimination_stimuli/000758_2014-06-08_22-05-08_260595134347_rgbf000085-resize_0/000758_2014-06-08_22-05-08_260595134347_rgbf000085-resize_0-target.png,125.0,3.068,0.31300000000000017,depth_discrimination_stimuli/000854_2014-06-09_19-43-13_260595134347_rgbf000066-resize_0/000854_2014-06-09_19-43-13_260595134347_rgbf000066-resize_0-target.png,3.3810000000000002,1.0,829.0,1007.0,117.0,-0.2599704813953512,139.0,797.0,,729251.0,58.0,Woman
735,365292.0,A2VN1358M5F1P7,DepthScenes,v2_duration_discrimination,discrim_jsons/Discrim125_randls_53_rotated.json,http://54.235.29.9/FacialAge/BNav_EC2/DepthDuration/v2_depth_discrimination_MTurk/v2_DepthDiscrim_HTML.html#295,295.0,1366.0,625.0,1366.0,768.0,9-6-2022,-0.23058959405295024,8-44-17,48.0,depth_discrimination_stimuli/001584_2014-06-20_11-07-43_260595134347_rgbf000002-resize_1/001584_2014-06-20_11-07-43_260595134347_rgbf000002-resize_1-target.png,depth_discrimination_stimuli/003621_2014-05-23_18-06-08_094959634447_rgbf000101-resize_1/003621_2014-05-23_18-06-08_094959634447_rgbf000101-resize_1-target.png,125.0,3.53,0.4535,depth_discrimination_stimuli/001584_2014-06-20_11-07-43_260595134347_rgbf000002-resize_1/001584_2014-06-20_11-07-43_260595134347_rgbf000002-resize_1-target.png,3.9835,0.0,1626.0,-0.2300134339400665,125.0,1000.0,125.0,501.0,,729251.0,58.0,Woman
736,365292.0,A2VN1358M5F1P7,DepthScenes,v2_duration_discrimination,discrim_jsons/Discrim125_randls_53_rotated.json,http://54.235.29.9/FacialAge/BNav_EC2/DepthDuration/v2_depth_discrimination_MTurk/v2_DepthDiscrim_HTML.html#295,295.0,1366.0,625.0,1366.0,768.0,9-6-2022,-1.0008297121732252,8-44-17,-2.2970497083547143,depth_discrimination_stimuli/002467_2014-06-28_20-38-07_260595134347_rgbf000026-resize_2/002467_2014-06-28_20-38-07_260595134347_rgbf000026-resize_2-target.png,depth_discrimination_stimuli/002570_2014-06-24_13-59-54_094959634447_rgbf000059-resize_0/002570_2014-06-24_13-59-54_094959634447_rgbf000059-resize_0-target.png,125.0,4.742,0.7050000000000001,depth_discrimination_stimuli/002570_2014-06-24_13-59-54_094959634447_rgbf000059-resize_0/002570_2014-06-24_13-59-54_094959634447_rgbf000059-resize_0-target.png,4.037,1.0,1245.0,1089.0,54.0,-0.289927528850636,136.0,500.0,,729251.0,58.0,Woman
737,365292.0,A2VN1358M5F1P7,DepthScenes,v2_duration_discrimination,discrim_jsons/Discrim125_randls_53_rotated.json,http://54.235.29.9/FacialAge/BNav_EC2/DepthDuration/v2_depth_discrimination_MTurk/v2_DepthDiscrim_HTML.html#295,295.0,1366.0,625.0,1366.0,768.0,9-6-2022,-0.6430016258023888,8-44-17,50.0,depth_discrimination_stimuli/001450_2014-06-19_17-02-03_260595134347_rgbf000203-resize_4/001450_2014-06-19_17-02-03_260595134347_rgbf000203-resize_4-target.png,depth_discrimination_stimuli/001449_2014-06-19_17-01-27_260595134347_rgbf000116-resize_2/001449_2014-06-19_17-01-27_260595134347_rgbf000116-resize_2-target.png,125.0,4.0106666666667,0.5586666666667002,depth_discrimination_stimuli/001449_2014-06-19_17-01-27_260595134347_rgbf000116-resize_2/001449_2014-06-19_17-01-27_260595134347_rgbf000116-resize_2-target.png,3.452,0.0,1422.0,1031.0,124.0,1359.0,2.0,328.0,,729251.0,58.0,Woman
738,365292.0,A2VN1358M5F1P7,DepthScenes,v2_duration_discrimination,discrim_jsons/Discrim125_randls_53_rotated.json,http://54.235.29.9/FacialAge/BNav_EC2/DepthDuration/v2_depth_discrimination_MTurk/v2_DepthDiscrim_HTML.html#295,295.0,1366.0,625.0,1366.0,768.0,9-6-2022,-1.4152633715292788,8-44-17,51.0,depth_discrimination_stimuli/002136_2014-06-25_21-18-03_260595134347_rgbf000109-resize_3/002136_2014-06-25_21-18-03_260595134347_rgbf000109-resize_3-target.png,depth_discrimination_stimuli/002964_2014-06-08_17-46-11_094959634447_rgbf000091-resize_4/002964_2014-06-08_17-46-11_094959634447_rgbf000091-resize_4-target.png,125.0,1.9569999999999999,0.266,depth_discrimination_stimuli/002964_2014-06-08_17-46-11_094959634447_rgbf000091-resize_4/002964_2014-06-08_17-46-11_094959634447_rgbf000091-resize_4-target.png,1.6909999999999998,0.0,1040.0,-0.2300134339400665,109.0,1022.0,102.0,507.0,,729251.0,58.0,Woman
740,365292.0,A2VN1358M5F1P7,DepthScenes,v2_duration_discrimination,discrim_jsons/Discrim125_randls_53_rotated.json,http://54.235.29.9/FacialAge/BNav_EC2/DepthDuration/v2_depth_discrimination_MTurk/v2_DepthDiscrim_HTML.html#295,295.0,1366.0,625.0,1366.0,768.0,9-6-2022,-2.664629232417284,8-44-17,53.0,depth_discrimination_stimuli/000780_2014-06-08_22-28-29_260595134347_rgbf000126-resize_1/000780_2014-06-08_22-28-29_260595134347_rgbf000126-resize_1-target.png,depth_discrimination_stimuli/002445_2014-06-28_20-32-16_260595134347_rgbf000029-resize_4/002445_2014-06-28_20-32-16_260595134347_rgbf000029-resize_4-target.png,125.0,3.3825,0.851,depth_discrimination_stimuli/002445_2014-06-28_20-32-16_260595134347_rgbf000029-resize_4/002445_2014-06-28_20-32-16_260595134347_rgbf000029-resize_4-target.png,2.5315,0.0,422.0,1016.0,113.0,1011.0,160.0,497.0,,729251.0,58.0,Woman
741,365292.0,A2VN1358M5F1P7,DepthScenes,v2_duration_discrimination,discrim_jsons/Discrim125_randls_53_rotated.json,http://54.235.29.9/FacialAge/BNav_EC2/DepthDuration/v2_depth_discrimination_MTurk/v2_DepthDiscrim_HTML.html#295,295.0,1366.0,625.0,1366.0,768.0,9-6-2022,-1.338441522477913,8-44-17,54.0,depth_discrimination_stimuli/002344_2014-06-28_20-06-29_260595134347_rgbf000030-resize_1/002344_2014-06-28_20-06-29_260595134347_rgbf000030-resize_1-target.png,depth_discrimination_stimuli/002725_2014-06-22_11-47-51_094959634447_rgbf000070-resize_1/002725_2014-06-22_11-47-51_094959634447_rgbf000070-resize_1-target.png,125.0,1.5795,0.6154999999999999,depth_discrimination_stimuli/002344_2014-06-28_20-06-29_260595134347_rgbf000030-resize_1/002344_2014-06-28_20-06-29_260595134347_rgbf000030-resize_1-target.png,2.195,1.0,1078.0,1016.0,118.0,991.0,141.0,484.0,,729251.0,58.0,Woman
742,365292.0,A2VN1358M5F1P7,DepthScenes,v2_duration_discrimination,discrim_jsons/Discrim125_randls_53_rotated.json,http://54.235.29.9/FacialAge/BNav_EC2/DepthDuration/v2_depth_discrimination_MTurk/v2_DepthDiscrim_HTML.html#295,295.0,1366.0,625.0,1366.0,768.0,9-6-2022,0.30514172169999704,8-44-17,55.0,depth_discrimination_stimuli/002414_2014-06-28_20-24-58_260595134347_rgbf000067-resize_4/002414_2014-06-28_20-24-58_260595134347_rgbf000067-resize_4-target.png,depth_discrimination_stimuli/000773_2014-06-08_22-24-54_260595134347_rgbf000093-resize_1/000773_2014-06-08_22-24-54_260595134347_rgbf000093-resize_1-target.png,125.0,4.363,0.6099999999999994,depth_discrimination_stimuli/002414_2014-06-28_20-24-58_260595134347_rgbf000067-resize_4/002414_2014-06-28_20-24-58_260595134347_rgbf000067-resize_4-target.png,4.973,1.0,1891.0,1016.0,125.0,1000.0,125.0,496.0,,729251.0,58.0,Woman
743,365292.0,A2VN1358M5F1P7,DepthScenes,v2_duration_discrimination,discrim_jsons/Discrim125_randls_53_rotated.json,http://54.235.29.9/FacialAge/BNav_EC2/DepthDuration/v2_depth_discrimination_MTurk/v2_DepthDiscrim_HTML.html#295,295.0,1366.0,625.0,1366.0,768.0,9-6-2022,-2.4462934509028753,8-44-17,56.0,depth_discrimination_stimuli/002805_2014-06-22_19-54-03_094959634447_rgbf000079-resize_1/002805_2014-06-22_19-54-03_094959634447_rgbf000079-resize_1-target.png,depth_discrimination_stimuli/000906_2014-06-08_13-35-43_260595134347_rgbf000155-resize_1/000906_2014-06-08_13-35-43_260595134347_rgbf000155-resize_1-target.png,125.0,3.1439999999999997,0.29499999999999993,depth_discrimination_stimuli/000906_2014-06-08_13-35-43_260595134347_rgbf000155-resize_1/000906_2014-06-08_13-35-43_260595134347_rgbf000155-resize_1-target.png,2.8489999999999998,0.0,530.0,-0.2300134339400665,125.0,-0.2599704813953512,132.0,507.0,,729251.0,58.0,Woman
744,365292.0,A2VN1358M5F1P7,DepthScenes,v2_duration_discrimination,discrim_jsons/Discrim125_randls_53_rotated.json,http://54.235.29.9/FacialAge/BNav_EC2/DepthDuration/v2_depth_discrimination_MTurk/v2_DepthDiscrim_HTML.html#295,295.0,1366.0,625.0,1366.0,768.0,9-6-2022,-1.9065188799366986,8-44-17,57.0,depth_discrimination_stimuli/000409_2014-06-04_19-23-33_260595134347_rgbf000067-resize_0/000409_2014-06-04_19-23-33_260595134347_rgbf000067-resize_0-target.png,depth_discrimination_stimuli/002663_2014-06-13_15-50-26_094959634447_rgbf000075-resize_1/002663_2014-06-13_15-50-26_094959634447_rgbf000075-resize_1-target.png,125.0,3.7335,1.0160000000000005,depth_discrimination_stimuli/000409_2014-06-04_19-23-33_260595134347_rgbf000067-resize_0/000409_2014-06-04_19-23-33_260595134347_rgbf000067-resize_0-target.png,4.7495,1.0,797.0,1016.0,125.0,1016.0,109.0,499.0,,729251.0,58.0,Woman
745,365292.0,A2VN1358M5F1P7,DepthScenes,v2_duration_discrimination,discrim_jsons/Discrim125_randls_53_rotated.json,http://54.235.29.9/FacialAge/BNav_EC2/DepthDuration/v2_depth_discrimination_MTurk/v2_DepthDiscrim_HTML.html#295,295.0,1366.0,625.0,1366.0,768.0,9-6-2022,-2.1592223307635603,8-44-17,58.0,depth_discrimination_stimuli/003423_2014-05-21_10-23-26_094959634447_rgbf002665-resize_2/003423_2014-05-21_10-23-26_094959634447_rgbf002665-resize_2-target.png,depth_discrimination_stimuli/002905_2014-06-03_18-04-43_094959634447_rgbf000151-resize_2/002905_2014-06-03_18-04-43_094959634447_rgbf000151-resize_2-target.png,125.0,3.2575,1.2279999999999998,depth_discrimination_stimuli/002905_2014-06-03_18-04-43_094959634447_rgbf000151-resize_2/002905_2014-06-03_18-04-43_094959634447_rgbf000151-resize_2-target.png,2.0295,1.0,672.0,-0.2300134339400665,125.0,1000.0,124.0,500.0,,729251.0,58.0,Woman
746,365292.0,A2VN1358M5F1P7,DepthScenes,v2_duration_discrimination,discrim_jsons/Discrim125_randls_53_rotated.json,http://54.235.29.9/FacialAge/BNav_EC2/DepthDuration/v2_depth_discrimination_MTurk/v2_DepthDiscrim_HTML.html#295,295.0,1366.0,625.0,1366.0,768.0,9-6-2022,-0.7076937092140655,8-44-17,-2.275651817315225,depth_discrimination_stimuli/002639_2014-06-24_14-51-37_094959634447_rgbf000074-resize_4/002639_2014-06-24_14-51-37_094959634447_rgbf000074-resize_4-target.png,depth_discrimination_stimuli/003292_2014-05-14_21-53-49_094959634447_rgbf000100-resize_2/003292_2014-05-14_21-53-49_094959634447_rgbf000100-resize_2-target.png,125.0,4.0375,0.5559999999999996,depth_discrimination_stimuli/003292_2014-05-14_21-53-49_094959634447_rgbf000100-resize_2/003292_2014-05-14_21-53-49_094959634447_rgbf000100-resize_2-target.png,3.4815,3.0,1390.0,1109.0,87.0,945.0,139.0,485.0,,729251.0,58.0,Woman
747,365292.0,A2VN1358M5F1P7,DepthScenes,v2_duration_discrimination,discrim_jsons/Discrim125_randls_53_rotated.json,http://54.235.29.9/FacialAge/BNav_EC2/DepthDuration/v2_depth_discrimination_MTurk/v2_DepthDiscrim_HTML.html#295,295.0,1366.0,625.0,1366.0,768.0,9-6-2022,-1.9712109633483752,8-44-17,60.0,depth_discrimination_stimuli/000943_2014-06-09_19-31-07_260595134347_rgbf000128-resize_1/000943_2014-06-09_19-31-07_260595134347_rgbf000128-resize_1-target.png,depth_discrimination_stimuli/003070_2014-06-15_14-58-27_094959634447_rgbf000150-resize_3/003070_2014-06-15_14-58-27_094959634447_rgbf000150-resize_3-target.png,125.0,1.9765,0.9650000000000001,depth_discrimination_stimuli/000943_2014-06-09_19-31-07_260595134347_rgbf000128-resize_1/000943_2014-06-09_19-31-07_260595134347_rgbf000128-resize_1-target.png,2.9415,0.0,765.0,1016.0,124.0,1000.0,139.0,485.0,,729251.0,58.0,Woman
748,365292.0,A2VN1358M5F1P7,DepthScenes,v2_duration_discrimination,discrim_jsons/Discrim125_randls_53_rotated.json,http://54.235.29.9/FacialAge/BNav_EC2/DepthDuration/v2_depth_discrimination_MTurk/v2_DepthDiscrim_HTML.html#295,295.0,1366.0,625.0,1366.0,768.0,9-6-2022,-1.433458019988813,8-44-17,61.0,depth_discrimination_stimuli/002750_2014-06-22_19-08-03_094959634447_rgbf000094-resize_4/002750_2014-06-22_19-08-03_094959634447_rgbf000094-resize_4-target.png,depth_discrimination_stimuli/002549_2014-06-24_13-41-39_094959634447_rgbf000022-resize_3/002549_2014-06-24_13-41-39_094959634447_rgbf000022-resize_3-target.png,125.0,2.354,0.8780000000000001,depth_discrimination_stimuli/002549_2014-06-24_13-41-39_094959634447_rgbf000022-resize_3/002549_2014-06-24_13-41-39_094959634447_rgbf000022-resize_3-target.png,1.476,1.0,1031.0,1013.0,128.0,1000.0,124.0,516.0,,729251.0,58.0,Woman
749,365292.0,A2VN1358M5F1P7,DepthScenes,v2_duration_discrimination,discrim_jsons/Discrim125_randls_53_rotated.json,http://54.235.29.9/FacialAge/BNav_EC2/DepthDuration/v2_depth_discrimination_MTurk/v2_DepthDiscrim_HTML.html#295,295.0,1366.0,625.0,1366.0,768.0,9-6-2022,-1.8094807548191836,8-44-17,62.0,depth_discrimination_stimuli/003010_2014-06-15_12-54-35_094959634447_rgbf000112-resize_0/003010_2014-06-15_12-54-35_094959634447_rgbf000112-resize_0-target.png,depth_discrimination_stimuli/001810_2014-06-26_20-51-35_260595134347_rgbf000040-resize_3/001810_2014-06-26_20-51-35_260595134347_rgbf000040-resize_3-target.png,125.0,3.1185,0.8660000000000001,depth_discrimination_stimuli/001810_2014-06-26_20-51-35_260595134347_rgbf000040-resize_3/001810_2014-06-26_20-51-35_260595134347_rgbf000040-resize_3-target.png,2.2525,1.0,845.0,1016.0,110.0,1013.0,142.0,484.0,,729251.0,58.0,Woman
751,365292.0,A2VN1358M5F1P7,DepthScenes,v2_duration_discrimination,discrim_jsons/Discrim125_randls_53_rotated.json,http://54.235.29.9/FacialAge/BNav_EC2/DepthDuration/v2_depth_discrimination_MTurk/v2_DepthDiscrim_HTML.html#295,295.0,1366.0,625.0,1366.0,768.0,9-6-2022,-2.1531574479437157,8-44-17,64.0,depth_discrimination_stimuli/001392_2014-06-19_16-07-59_260595134347_rgbf000046-resize_1/001392_2014-06-19_16-07-59_260595134347_rgbf000046-resize_1-target.png,depth_discrimination_stimuli/001570_2014-06-20_17-21-09_260595134347_rgbf000135-resize_4/001570_2014-06-20_17-21-09_260595134347_rgbf000135-resize_4-target.png,125.0,4.135,0.33199999999999985,depth_discrimination_stimuli/001392_2014-06-19_16-07-59_260595134347_rgbf000046-resize_1/001392_2014-06-19_16-07-59_260595134347_rgbf000046-resize_1-target.png,4.467,1.0,675.0,1016.0,117.0,1009.0,113.0,512.0,,729251.0,58.0,Woman
752,365292.0,A2VN1358M5F1P7,DepthScenes,v2_duration_discrimination,discrim_jsons/Discrim125_randls_53_rotated.json,http://54.235.29.9/FacialAge/BNav_EC2/DepthDuration/v2_depth_discrimination_MTurk/v2_DepthDiscrim_HTML.html#295,295.0,1366.0,625.0,1366.0,768.0,9-6-2022,-2.169330468796635,8-44-17,65.0,depth_discrimination_stimuli/000483_2014-06-09_20-41-45_260595134347_rgbf000116-resize_4/000483_2014-06-09_20-41-45_260595134347_rgbf000116-resize_4-target.png,depth_discrimination_stimuli/000469_2014-06-09_19-42-10_260595134347_rgbf000081-resize_1/000469_2014-06-09_19-42-10_260595134347_rgbf000081-resize_1-target.png,125.0,1.337,0.31499999999999995,depth_discrimination_stimuli/000483_2014-06-09_20-41-45_260595134347_rgbf000116-resize_4/000483_2014-06-09_20-41-45_260595134347_rgbf000116-resize_4-target.png,1.652,1.0,667.0,1000.0,124.0,-0.2599704813953512,122.0,502.0,,729251.0,58.0,Woman
753,365292.0,A2VN1358M5F1P7,DepthScenes,v2_duration_discrimination,discrim_jsons/Discrim125_randls_53_rotated.json,http://54.235.29.9/FacialAge/BNav_EC2/DepthDuration/v2_depth_discrimination_MTurk/v2_DepthDiscrim_HTML.html#295,295.0,1366.0,625.0,1366.0,768.0,9-6-2022,-1.6780749603892153,8-44-17,66.0,depth_discrimination_stimuli/000137_2014-05-20_17-04-49_260595134347_rgbf000120-resize_1/000137_2014-05-20_17-04-49_260595134347_rgbf000120-resize_1-target.png,depth_discrimination_stimuli/000736_2014-06-08_18-24-15_260595134347_rgbf000206-resize_3/000736_2014-06-08_18-24-15_260595134347_rgbf000206-resize_3-target.png,125.0,3.786,0.2709999999999999,depth_discrimination_stimuli/000736_2014-06-08_18-24-15_260595134347_rgbf000206-resize_3/000736_2014-06-08_18-24-15_260595134347_rgbf000206-resize_3-target.png,3.515,1.0,910.0,-0.2300134339400665,123.0,997.0,128.0,500.0,,729251.0,58.0,Woman
754,365292.0,A2VN1358M5F1P7,DepthScenes,v2_duration_discrimination,discrim_jsons/Discrim125_randls_53_rotated.json,http://54.235.29.9/FacialAge/BNav_EC2/DepthDuration/v2_depth_discrimination_MTurk/v2_DepthDiscrim_HTML.html#295,295.0,1366.0,625.0,1366.0,768.0,9-6-2022,-1.2434250249670127,8-44-17,67.0,depth_discrimination_stimuli/002568_2014-06-24_13-59-21_094959634447_rgbf000062-resize_4/002568_2014-06-24_13-59-21_094959634447_rgbf000062-resize_4-target.png,depth_discrimination_stimuli/003492_2014-05-21_15-50-55_094959634447_rgbf000828-resize_1/003492_2014-05-21_15-50-55_094959634447_rgbf000828-resize_1-target.png,125.0,3.015,1.0537499999999995,depth_discrimination_stimuli/002568_2014-06-24_13-59-21_094959634447_rgbf000062-resize_4/002568_2014-06-24_13-59-21_094959634447_rgbf000062-resize_4-target.png,4.06875,0.0,1125.0,1125.0,10.0,1005.0,119.0,506.0,,729251.0,58.0,Woman
755,365292.0,A2VN1358M5F1P7,DepthScenes,v2_duration_discrimination,discrim_jsons/Discrim125_randls_53_rotated.json,http://54.235.29.9/FacialAge/BNav_EC2/DepthDuration/v2_depth_discrimination_MTurk/v2_DepthDiscrim_HTML.html#295,295.0,1366.0,625.0,1366.0,768.0,9-6-2022,-2.3492553257853603,8-44-17,68.0,depth_discrimination_stimuli/001235_2014-06-17_16-37-36_260595134347_rgbf000084-resize_4/001235_2014-06-17_16-37-36_260595134347_rgbf000084-resize_4-target.png,depth_discrimination_stimuli/000788_2014-06-08_22-34-36_260595134347_rgbf000131-resize_1/000788_2014-06-08_22-34-36_260595134347_rgbf000131-resize_1-target.png,125.0,3.6605,0.3014999999999999,depth_discrimination_stimuli/000788_2014-06-08_22-34-36_260595134347_rgbf000131-resize_1/000788_2014-06-08_22-34-36_260595134347_rgbf000131-resize_1-target.png,3.359,0.0,578.0,1005.0,136.0,1000.0,124.0,500.0,,729251.0,58.0,Woman
756,365292.0,A2VN1358M5F1P7,DepthScenes,v2_duration_discrimination,discrim_jsons/Discrim125_randls_53_rotated.json,http://54.235.29.9/FacialAge/BNav_EC2/DepthDuration/v2_depth_discrimination_MTurk/v2_DepthDiscrim_HTML.html#295,295.0,1366.0,625.0,1366.0,768.0,9-6-2022,-0.7076937092140655,8-44-17,69.0,depth_discrimination_stimuli/000866_2014-06-09_20-45-42_260595134347_rgbf000139-resize_1/000866_2014-06-09_20-45-42_260595134347_rgbf000139-resize_1-target.png,depth_discrimination_stimuli/002989_2014-06-15_12-25-03_094959634447_rgbf000150-resize_3/002989_2014-06-15_12-25-03_094959634447_rgbf000150-resize_3-target.png,125.0,3.2155,0.9819999999999998,depth_discrimination_stimuli/000866_2014-06-09_20-45-42_260595134347_rgbf000139-resize_1/000866_2014-06-09_20-45-42_260595134347_rgbf000139-resize_1-target.png,4.1975,0.0,1390.0,1016.0,124.0,1000.0,124.0,578.0,,729251.0,58.0,Woman
757,365292.0,A2VN1358M5F1P7,DepthScenes,v2_duration_discrimination,discrim_jsons/Discrim125_randls_53_rotated.json,http://54.235.29.9/FacialAge/BNav_EC2/DepthDuration/v2_depth_discrimination_MTurk/v2_DepthDiscrim_HTML.html#295,295.0,1366.0,625.0,1366.0,768.0,9-6-2022,-0.19622192474049702,8-44-17,70.0,depth_discrimination_stimuli/002660_2014-06-13_15-44-18_094959634447_rgbf001878-resize_2/002660_2014-06-13_15-44-18_094959634447_rgbf001878-resize_2-target.png,depth_discrimination_stimuli/002153_2014-06-25_21-27-18_260595134347_rgbf000038-resize_5/002153_2014-06-25_21-27-18_260595134347_rgbf000038-resize_5-target.png,125.0,3.576,1.0710000000000002,depth_discrimination_stimuli/002153_2014-06-25_21-27-18_260595134347_rgbf000038-resize_5/002153_2014-06-25_21-27-18_260595134347_rgbf000038-resize_5-target.png,2.505,0.0,1643.0,1012.0,-2.132285947350648,999.0,125.0,701.0,,729251.0,58.0,Woman
759,365292.0,A2VN1358M5F1P7,DepthScenes,v2_duration_discrimination,discrim_jsons/Discrim125_randls_53_rotated.json,http://54.235.29.9/FacialAge/BNav_EC2/DepthDuration/v2_depth_discrimination_MTurk/v2_DepthDiscrim_HTML.html#295,295.0,1366.0,625.0,1366.0,768.0,9-6-2022,-1.3687659365771363,8-44-17,72.0,depth_discrimination_stimuli/003338_2014-05-20_11-01-23_094959634447_rgbf000051-resize_6/003338_2014-05-20_11-01-23_094959634447_rgbf000051-resize_6-target.png,depth_discrimination_stimuli/002509_2014-06-24_13-19-22_094959634447_rgbf000077-resize_0/002509_2014-06-24_13-19-22_094959634447_rgbf000077-resize_0-target.png,125.0,1.693,0.38650000000000007,depth_discrimination_stimuli/002509_2014-06-24_13-19-22_094959634447_rgbf000077-resize_0/002509_2014-06-24_13-19-22_094959634447_rgbf000077-resize_0-target.png,1.3065,1.0,1063.0,-0.2300134339400665,123.0,1000.0,-2.132285947350648,491.0,,729251.0,58.0,Woman
760,365292.0,A2VN1358M5F1P7,DepthScenes,v2_duration_discrimination,discrim_jsons/Discrim125_randls_53_rotated.json,http://54.235.29.9/FacialAge/BNav_EC2/DepthDuration/v2_depth_discrimination_MTurk/v2_DepthDiscrim_HTML.html#295,295.0,1366.0,625.0,1366.0,768.0,9-6-2022,0.3678121775050588,8-44-17,73.0,depth_discrimination_stimuli/003228_2014-05-14_13-42-35_094959634447_rgbf000101-resize_1/003228_2014-05-14_13-42-35_094959634447_rgbf000101-resize_1-target.png,depth_discrimination_stimuli/002600_2014-06-24_14-27-04_094959634447_rgbf000074-resize_2/002600_2014-06-24_14-27-04_094959634447_rgbf000074-resize_2-target.png,125.0,1.9680000000000002,0.7894999999999996,depth_discrimination_stimuli/003228_2014-05-14_13-42-35_094959634447_rgbf000101-resize_1/003228_2014-05-14_13-42-35_094959634447_rgbf000101-resize_1-target.png,2.7575,0.0,1922.0,-0.2599704813953512,130.0,993.0,129.0,574.0,,729251.0,58.0,Woman
761,365292.0,A2VN1358M5F1P7,DepthScenes,v2_duration_discrimination,discrim_jsons/Discrim125_randls_53_rotated.json,http://54.235.29.9/FacialAge/BNav_EC2/DepthDuration/v2_depth_discrimination_MTurk/v2_DepthDiscrim_HTML.html#295,295.0,1366.0,625.0,1366.0,768.0,9-6-2022,-2.624196680284986,8-44-17,74.0,depth_discrimination_stimuli/001032_2014-06-08_13-23-17_260595134347_rgbf000021-resize_3/001032_2014-06-08_13-23-17_260595134347_rgbf000021-resize_3-target.png,depth_discrimination_stimuli/001059_2014-06-08_21-53-27_260595134347_rgbf000061-resize_4/001059_2014-06-08_21-53-27_260595134347_rgbf000061-resize_4-target.png,125.0,3.2725,0.8540000000000001,depth_discrimination_stimuli/001059_2014-06-08_21-53-27_260595134347_rgbf000061-resize_4/001059_2014-06-08_21-53-27_260595134347_rgbf000061-resize_4-target.png,2.4185,1.0,442.0,1016.0,124.0,999.0,-2.132285947350648,500.0,,729251.0,58.0,Woman
762,365292.0,A2VN1358M5F1P7,DepthScenes,v2_duration_discrimination,discrim_jsons/Discrim125_randls_53_rotated.json,http://54.235.29.9/FacialAge/BNav_EC2/DepthDuration/v2_depth_discrimination_MTurk/v2_DepthDiscrim_HTML.html#295,295.0,1366.0,625.0,1366.0,768.0,9-6-2022,-0.2022868075603417,8-44-17,75.0,depth_discrimination_stimuli/001136_2014-06-17_15-19-41_260595134347_rgbf000076-resize_3/001136_2014-06-17_15-19-41_260595134347_rgbf000076-resize_3-target.png,depth_discrimination_stimuli/001164_2014-06-17_15-35-46_260595134347_rgbf000085-resize_3/001164_2014-06-17_15-35-46_260595134347_rgbf000085-resize_3-target.png,125.0,1.8655,0.48850000000000016,depth_discrimination_stimuli/001136_2014-06-17_15-19-41_260595134347_rgbf000076-resize_3/001136_2014-06-17_15-19-41_260595134347_rgbf000076-resize_3-target.png,2.354,1.0,1640.0,1219.0,1.0,915.0,124.0,500.0,,729251.0,58.0,Woman
763,365292.0,A2VN1358M5F1P7,DepthScenes,v2_duration_discrimination,discrim_jsons/Discrim125_randls_53_rotated.json,http://54.235.29.9/FacialAge/BNav_EC2/DepthDuration/v2_depth_discrimination_MTurk/v2_DepthDiscrim_HTML.html#295,295.0,1366.0,625.0,1366.0,768.0,9-6-2022,-2.648456211564365,8-44-17,76.0,depth_discrimination_stimuli/003048_2014-06-15_13-49-43_094959634447_rgbf000150-resize_1/003048_2014-06-15_13-49-43_094959634447_rgbf000150-resize_1-target.png,depth_discrimination_stimuli/002043_2014-06-24_20-29-38_260595134347_rgbf000039-resize_4/002043_2014-06-24_20-29-38_260595134347_rgbf000039-resize_4-target.png,125.0,4.0035,1.1599999999999997,depth_discrimination_stimuli/002043_2014-06-24_20-29-38_260595134347_rgbf000039-resize_4/002043_2014-06-24_20-29-38_260595134347_rgbf000039-resize_4-target.png,2.8435,1.0,430.0,1016.0,124.0,992.0,133.0,500.0,,729251.0,58.0,Woman
764,365292.0,A2VN1358M5F1P7,DepthScenes,v2_duration_discrimination,discrim_jsons/Discrim125_randls_53_rotated.json,http://54.235.29.9/FacialAge/BNav_EC2/DepthDuration/v2_depth_discrimination_MTurk/v2_DepthDiscrim_HTML.html#295,295.0,1366.0,625.0,1366.0,768.0,9-6-2022,-0.9260294907284742,8-44-17,77.0,depth_discrimination_stimuli/000927_2014-06-09_16-32-30_260595134347_rgbf000123-resize_3/000927_2014-06-09_16-32-30_260595134347_rgbf000123-resize_3-target.png,depth_discrimination_stimuli/001110_2014-06-15_17-25-28_260595134347_rgbf000150-resize_1/001110_2014-06-15_17-25-28_260595134347_rgbf000150-resize_1-target.png,125.0,2.6785,0.9670000000000001,depth_discrimination_stimuli/001110_2014-06-15_17-25-28_260595134347_rgbf000150-resize_1/001110_2014-06-15_17-25-28_260595134347_rgbf000150-resize_1-target.png,1.7115,0.0,1282.0,-0.2300134339400665,-2.132285947350648,999.0,-2.132285947350648,515.0,,729251.0,58.0,Woman
765,365292.0,A2VN1358M5F1P7,DepthScenes,v2_duration_discrimination,discrim_jsons/Discrim125_randls_53_rotated.json,http://54.235.29.9/FacialAge/BNav_EC2/DepthDuration/v2_depth_discrimination_MTurk/v2_DepthDiscrim_HTML.html#295,295.0,1366.0,625.0,1366.0,768.0,9-6-2022,-2.126876289057722,8-44-17,78.0,depth_discrimination_stimuli/002875_2014-06-01_15-19-00_094959634447_rgbf000151-resize_1/002875_2014-06-01_15-19-00_094959634447_rgbf000151-resize_1-target.png,depth_discrimination_stimuli/001011_2014-06-08_23-18-54_260595134347_rgbf000044-resize_4/001011_2014-06-08_23-18-54_260595134347_rgbf000044-resize_4-target.png,125.0,1.9675,0.5055000000000003,depth_discrimination_stimuli/002875_2014-06-01_15-19-00_094959634447_rgbf000151-resize_1/002875_2014-06-01_15-19-00_094959634447_rgbf000151-resize_1-target.png,2.4730000000000003,0.0,688.0,-0.2300134339400665,123.0,1000.0,139.0,485.0,,729251.0,58.0,Woman
766,365292.0,A2VN1358M5F1P7,DepthScenes,v2_duration_discrimination,discrim_jsons/Discrim125_randls_53_rotated.json,http://54.235.29.9/FacialAge/BNav_EC2/DepthDuration/v2_depth_discrimination_MTurk/v2_DepthDiscrim_HTML.html#295,295.0,1366.0,625.0,1366.0,768.0,9-6-2022,-2.729321315828961,8-44-17,79.0,depth_discrimination_stimuli/001132_2014-06-17_14-48-54_260595134347_rgbf000100-resize_2/001132_2014-06-17_14-48-54_260595134347_rgbf000100-resize_2-target.png,depth_discrimination_stimuli/001133_2014-06-17_14-49-16_260595134347_rgbf000100-resize_0/001133_2014-06-17_14-49-16_260595134347_rgbf000100-resize_0-target.png,125.0,3.753,0.4584999999999999,depth_discrimination_stimuli/001132_2014-06-17_14-48-54_260595134347_rgbf000100-resize_2/001132_2014-06-17_14-48-54_260595134347_rgbf000100-resize_2-target.png,4.2115,1.0,390.0,1016.0,113.0,1012.0,124.0,500.0,,729251.0,58.0,Woman
768,365292.0,A2VN1358M5F1P7,DepthScenes,v2_duration_discrimination,discrim_jsons/Discrim125_randls_53_rotated.json,http://54.235.29.9/FacialAge/BNav_EC2/DepthDuration/v2_depth_discrimination_MTurk/v2_DepthDiscrim_HTML.html#295,295.0,1366.0,625.0,1366.0,768.0,9-6-2022,-0.5075525761591909,8-44-17,81.0,depth_discrimination_stimuli/000691_2014-06-08_13-08-50_260595134347_rgbf000132-resize_3/000691_2014-06-08_13-08-50_260595134347_rgbf000132-resize_3-target.png,depth_discrimination_stimuli/002213_2014-06-28_18-37-58_260595134347_rgbf000055-resize_1/002213_2014-06-28_18-37-58_260595134347_rgbf000055-resize_1-target.png,125.0,4.1530000000000005,0.5330000000000004,depth_discrimination_stimuli/002213_2014-06-28_18-37-58_260595134347_rgbf000055-resize_1/002213_2014-06-28_18-37-58_260595134347_rgbf000055-resize_1-target.png,3.62,0.0,1489.0,1156.0,23.0,961.0,125.0,501.0,,729251.0,58.0,Woman
770,365292.0,A2VN1358M5F1P7,DepthScenes,v2_duration_discrimination,discrim_jsons/Discrim125_randls_53_rotated.json,http://54.235.29.9/FacialAge/BNav_EC2/DepthDuration/v2_depth_discrimination_MTurk/v2_DepthDiscrim_HTML.html#295,295.0,1366.0,625.0,1366.0,768.0,9-6-2022,-2.286584869980299,8-44-17,83.0,depth_discrimination_stimuli/002103_2014-06-25_20-00-40_260595134347_rgbf000049-resize_0/002103_2014-06-25_20-00-40_260595134347_rgbf000049-resize_0-target.png,depth_discrimination_stimuli/002039_2014-06-24_20-22-38_260595134347_rgbf000084-resize_1/002039_2014-06-24_20-22-38_260595134347_rgbf000084-resize_1-target.png,125.0,4.105,0.30299999999999994,depth_discrimination_stimuli/002103_2014-06-25_20-00-40_260595134347_rgbf000049-resize_0/002103_2014-06-25_20-00-40_260595134347_rgbf000049-resize_0-target.png,4.408,0.0,609.0,1097.0,-2.3655229596810794,1000.0,124.0,516.0,,729251.0,58.0,Woman
771,365292.0,A2VN1358M5F1P7,DepthScenes,v2_duration_discrimination,discrim_jsons/Discrim125_randls_53_rotated.json,http://54.235.29.9/FacialAge/BNav_EC2/DepthDuration/v2_depth_discrimination_MTurk/v2_DepthDiscrim_HTML.html#295,295.0,1366.0,625.0,1366.0,768.0,9-6-2022,-2.1915683724693986,8-44-17,84.0,depth_discrimination_stimuli/001094_2014-06-15_17-36-00_260595134347_rgbf000205-resize_0/001094_2014-06-15_17-36-00_260595134347_rgbf000205-resize_0-target.png,depth_discrimination_stimuli/000692_2014-06-08_13-09-42_260595134347_rgbf000199-resize_2/000692_2014-06-08_13-09-42_260595134347_rgbf000199-resize_2-target.png,125.0,4.2175,0.5565000000000002,depth_discrimination_stimuli/000692_2014-06-08_13-09-42_260595134347_rgbf000199-resize_2/000692_2014-06-08_13-09-42_260595134347_rgbf000199-resize_2-target.png,3.661,0.0,656.0,1012.0,128.0,1016.0,106.0,499.0,,729251.0,58.0,Woman
772,365292.0,A2VN1358M5F1P7,DepthScenes,v2_duration_discrimination,discrim_jsons/Discrim125_randls_53_rotated.json,http://54.235.29.9/FacialAge/BNav_EC2/DepthDuration/v2_depth_discrimination_MTurk/v2_DepthDiscrim_HTML.html#295,295.0,1366.0,625.0,1366.0,768.0,9-6-2022,-3.5207560359574934,8-44-17,85.0,depth_discrimination_stimuli/002953_2014-06-08_17-32-18_094959634447_rgbf000059-resize_5/002953_2014-06-08_17-32-18_094959634447_rgbf000059-resize_5-target.png,depth_discrimination_stimuli/000878_2014-06-08_22-52-45_260595134347_rgbf000045-resize_2/000878_2014-06-08_22-52-45_260595134347_rgbf000045-resize_2-target.png,125.0,1.551,0.5410000000000001,depth_discrimination_stimuli/002953_2014-06-08_17-32-18_094959634447_rgbf000059-resize_5/002953_2014-06-08_17-32-18_094959634447_rgbf000059-resize_5-target.png,2.092,0.0,-1.4839298488541282,1017.0,109.0,999.0,139.0,484.0,,729251.0,58.0,Woman
773,365292.0,A2VN1358M5F1P7,DepthScenes,v2_duration_discrimination,discrim_jsons/Discrim125_randls_53_rotated.json,http://54.235.29.9/FacialAge/BNav_EC2/DepthDuration/v2_depth_discrimination_MTurk/v2_DepthDiscrim_HTML.html#295,295.0,1366.0,625.0,1366.0,768.0,9-6-2022,-1.338441522477913,8-44-17,86.0,depth_discrimination_stimuli/003495_2014-05-21_16-01-51_094959634447_rgbf000100-resize_3/003495_2014-05-21_16-01-51_094959634447_rgbf000100-resize_3-target.png,depth_discrimination_stimuli/001244_2014-06-17_16-47-45_260595134347_rgbf000030-resize_4/001244_2014-06-17_16-47-45_260595134347_rgbf000030-resize_4-target.png,125.0,1.6255,0.41700000000000004,depth_discrimination_stimuli/003495_2014-05-21_16-01-51_094959634447_rgbf000100-resize_3/003495_2014-05-21_16-01-51_094959634447_rgbf000100-resize_3-target.png,2.0425,0.0,1078.0,1009.0,125.0,1000.0,139.0,485.0,,729251.0,58.0,Woman
1806,524279.0,A34GH9SAZ3NAGE,DepthScenes,v2_duration_discrimination,discrim_jsons/Discrim125_randls_0.json,http://54.235.29.9/FacialAge/BNav_EC2/DepthDuration/v2_depth_discrimination_MTurk/v2_DepthDiscrim_HTML.html#77,77.0,1600.0,785.0,1600.0,900.0,9-5-2022,0.22415168934418228,7-44-54,1.0,depth_discrimination_stimuli/001133_2014-06-17_14-49-16_260595134347_rgbf000100-resize_0/001133_2014-06-17_14-49-16_260595134347_rgbf000100-resize_0-target.png,depth_discrimination_stimuli/001132_2014-06-17_14-48-54_260595134347_rgbf000100-resize_2/001132_2014-06-17_14-48-54_260595134347_rgbf000100-resize_2-target.png,125.0,4.2115,0.4584999999999999,depth_discrimination_stimuli/001132_2014-06-17_14-48-54_260595134347_rgbf000100-resize_2/001132_2014-06-17_14-48-54_260595134347_rgbf000100-resize_2-target.png,3.753,1.0,1526.0,1014.0,124.0,992.0,123.0,509.0,,513739.0,22.0,Woman
1807,524279.0,A34GH9SAZ3NAGE,DepthScenes,v2_duration_discrimination,discrim_jsons/Discrim125_randls_0.json,http://54.235.29.9/FacialAge/BNav_EC2/DepthDuration/v2_depth_discrimination_MTurk/v2_DepthDiscrim_HTML.html#77,77.0,1600.0,785.0,1600.0,900.0,9-5-2022,-3.9683286614379036,7-44-54,2.0,depth_discrimination_stimuli/003070_2014-06-15_14-58-27_094959634447_rgbf000150-resize_3/003070_2014-06-15_14-58-27_094959634447_rgbf000150-resize_3-target.png,depth_discrimination_stimuli/000943_2014-06-09_19-31-07_260595134347_rgbf000128-resize_1/000943_2014-06-09_19-31-07_260595134347_rgbf000128-resize_1-target.png,125.0,2.9415,0.9650000000000001,depth_discrimination_stimuli/000943_2014-06-09_19-31-07_260595134347_rgbf000128-resize_1/000943_2014-06-09_19-31-07_260595134347_rgbf000128-resize_1-target.png,1.9765,1.0,-0.009920004748683245,1013.0,122.0,995.0,122.0,507.0,,513739.0,22.0,Woman
1808,524279.0,A34GH9SAZ3NAGE,DepthScenes,v2_duration_discrimination,discrim_jsons/Discrim125_randls_0.json,http://54.235.29.9/FacialAge/BNav_EC2/DepthDuration/v2_depth_discrimination_MTurk/v2_DepthDiscrim_HTML.html#77,77.0,1600.0,785.0,1600.0,900.0,9-5-2022,-2.5396804310090415,7-44-54,3.0,depth_discrimination_stimuli/002964_2014-06-08_17-46-11_094959634447_rgbf000091-resize_4/002964_2014-06-08_17-46-11_094959634447_rgbf000091-resize_4-target.png,depth_discrimination_stimuli/002136_2014-06-25_21-18-03_260595134347_rgbf000109-resize_3/002136_2014-06-25_21-18-03_260595134347_rgbf000109-resize_3-target.png,125.0,1.6909999999999998,0.266,depth_discrimination_stimuli/002964_2014-06-08_17-46-11_094959634447_rgbf000091-resize_4/002964_2014-06-08_17-46-11_094959634447_rgbf000091-resize_4-target.png,1.9569999999999999,1.0,520.0,1015.0,123.0,992.0,123.0,510.0,,513739.0,22.0,Woman
1809,524279.0,A34GH9SAZ3NAGE,DepthScenes,v2_duration_discrimination,discrim_jsons/Discrim125_randls_0.json,http://54.235.29.9/FacialAge/BNav_EC2/DepthDuration/v2_depth_discrimination_MTurk/v2_DepthDiscrim_HTML.html#77,77.0,1600.0,785.0,1600.0,900.0,9-5-2022,-1.402278345694693,7-44-54,4.0,depth_discrimination_stimuli/000917_2014-06-09_22-45-29_260595134347_rgbf000149-resize_3/000917_2014-06-09_22-45-29_260595134347_rgbf000149-resize_3-target.png,depth_discrimination_stimuli/002323_2014-06-28_20-01-54_260595134347_rgbf000051-resize_4/002323_2014-06-28_20-01-54_260595134347_rgbf000051-resize_4-target.png,125.0,4.1865,0.45549999999999935,depth_discrimination_stimuli/002323_2014-06-28_20-01-54_260595134347_rgbf000051-resize_4/002323_2014-06-28_20-01-54_260595134347_rgbf000051-resize_4-target.png,3.7310000000000003,1.0,934.0,1005.0,121.0,1005.0,126.0,499.0,,513739.0,22.0,Woman
1810,524279.0,A34GH9SAZ3NAGE,DepthScenes,v2_duration_discrimination,discrim_jsons/Discrim125_randls_0.json,http://54.235.29.9/FacialAge/BNav_EC2/DepthDuration/v2_depth_discrimination_MTurk/v2_DepthDiscrim_HTML.html#77,77.0,1600.0,785.0,1600.0,900.0,9-5-2022,-2.1825251868282076,7-44-54,5.0,depth_discrimination_stimuli/002570_2014-06-24_13-59-54_094959634447_rgbf000059-resize_0/002570_2014-06-24_13-59-54_094959634447_rgbf000059-resize_0-target.png,depth_discrimination_stimuli/002467_2014-06-28_20-38-07_260595134347_rgbf000026-resize_2/002467_2014-06-28_20-38-07_260595134347_rgbf000026-resize_2-target.png,125.0,4.037,0.7050000000000001,depth_discrimination_stimuli/002570_2014-06-24_13-59-54_094959634447_rgbf000059-resize_0/002570_2014-06-24_13-59-54_094959634447_rgbf000059-resize_0-target.png,4.742,1.0,650.0,1009.0,124.0,992.0,138.0,493.0,,513739.0,22.0,Woman
1811,524279.0,A34GH9SAZ3NAGE,DepthScenes,v2_duration_discrimination,discrim_jsons/Discrim125_randls_0.json,http://54.235.29.9/FacialAge/BNav_EC2/DepthDuration/v2_depth_discrimination_MTurk/v2_DepthDiscrim_HTML.html#77,77.0,1600.0,785.0,1600.0,900.0,9-5-2022,-3.072665949248132,7-44-54,6.0,depth_discrimination_stimuli/001449_2014-06-19_17-01-27_260595134347_rgbf000116-resize_2/001449_2014-06-19_17-01-27_260595134347_rgbf000116-resize_2-target.png,depth_discrimination_stimuli/001450_2014-06-19_17-02-03_260595134347_rgbf000203-resize_4/001450_2014-06-19_17-02-03_260595134347_rgbf000203-resize_4-target.png,125.0,3.452,0.5586666666667002,depth_discrimination_stimuli/001449_2014-06-19_17-01-27_260595134347_rgbf000116-resize_2/001449_2014-06-19_17-01-27_260595134347_rgbf000116-resize_2-target.png,4.0106666666667,0.0,326.0,1005.0,125.0,1009.0,123.0,496.0,,513739.0,22.0,Woman
1813,524279.0,A34GH9SAZ3NAGE,DepthScenes,v2_duration_discrimination,discrim_jsons/Discrim125_randls_0.json,http://54.235.29.9/FacialAge/BNav_EC2/DepthDuration/v2_depth_discrimination_MTurk/v2_DepthDiscrim_HTML.html#77,77.0,1600.0,785.0,1600.0,900.0,9-5-2022,-2.3198925884362205,7-44-54,8.0,depth_discrimination_stimuli/000736_2014-06-08_18-24-15_260595134347_rgbf000206-resize_3/000736_2014-06-08_18-24-15_260595134347_rgbf000206-resize_3-target.png,depth_discrimination_stimuli/000137_2014-05-20_17-04-49_260595134347_rgbf000120-resize_1/000137_2014-05-20_17-04-49_260595134347_rgbf000120-resize_1-target.png,125.0,3.515,0.2709999999999999,depth_discrimination_stimuli/000736_2014-06-08_18-24-15_260595134347_rgbf000206-resize_3/000736_2014-06-08_18-24-15_260595134347_rgbf000206-resize_3-target.png,3.786,0.0,600.0,1006.0,124.0,1007.0,124.0,493.0,,513739.0,22.0,Woman
1814,524279.0,A34GH9SAZ3NAGE,DepthScenes,v2_duration_discrimination,discrim_jsons/Discrim125_randls_0.json,http://54.235.29.9/FacialAge/BNav_EC2/DepthDuration/v2_depth_discrimination_MTurk/v2_DepthDiscrim_HTML.html#77,77.0,1600.0,785.0,1600.0,900.0,9-5-2022,-1.9764740844161877,7-44-54,-2.750321316572414,depth_discrimination_stimuli/002509_2014-06-24_13-19-22_094959634447_rgbf000077-resize_0/002509_2014-06-24_13-19-22_094959634447_rgbf000077-resize_0-target.png,depth_discrimination_stimuli/003338_2014-05-20_11-01-23_094959634447_rgbf000051-resize_6/003338_2014-05-20_11-01-23_094959634447_rgbf000051-resize_6-target.png,125.0,1.3065,0.38650000000000007,depth_discrimination_stimuli/002509_2014-06-24_13-19-22_094959634447_rgbf000077-resize_0/002509_2014-06-24_13-19-22_094959634447_rgbf000077-resize_0-target.png,1.693,0.0,725.0,1011.0,124.0,992.0,139.0,493.0,,513739.0,22.0,Woman
1815,524279.0,A34GH9SAZ3NAGE,DepthScenes,v2_duration_discrimination,discrim_jsons/Discrim125_randls_0.json,http://54.235.29.9/FacialAge/BNav_EC2/DepthDuration/v2_depth_discrimination_MTurk/v2_DepthDiscrim_HTML.html#77,77.0,1600.0,785.0,1600.0,900.0,9-5-2022,-2.3336293285970218,7-44-54,10.0,depth_discrimination_stimuli/000810_2014-06-08_17-20-01_260595134347_rgbf000105-resize_0/000810_2014-06-08_17-20-01_260595134347_rgbf000105-resize_0-target.png,depth_discrimination_stimuli/001214_2014-06-17_16-13-55_260595134347_rgbf000111-resize_0/001214_2014-06-17_16-13-55_260595134347_rgbf000111-resize_0-target.png,125.0,1.4865,1.1640000000000001,depth_discrimination_stimuli/000810_2014-06-08_17-20-01_260595134347_rgbf000105-resize_0/000810_2014-06-08_17-20-01_260595134347_rgbf000105-resize_0-target.png,2.6505,1.0,595.0,0.49624823755287645,121.0,993.0,124.0,508.0,,513739.0,22.0,Woman
1816,524279.0,A34GH9SAZ3NAGE,DepthScenes,v2_duration_discrimination,discrim_jsons/Discrim125_randls_0.json,http://54.235.29.9/FacialAge/BNav_EC2/DepthDuration/v2_depth_discrimination_MTurk/v2_DepthDiscrim_HTML.html#77,77.0,1600.0,785.0,1600.0,900.0,9-5-2022,-3.9695687050393054,7-44-54,-2.74387331348577,depth_discrimination_stimuli/000486_2014-06-09_20-47-20_260595134347_rgbf000143-resize_2/000486_2014-06-09_20-47-20_260595134347_rgbf000143-resize_2-target.png,depth_discrimination_stimuli/003083_2014-06-15_15-21-03_094959634447_rgbf000063-resize_1/003083_2014-06-15_15-21-03_094959634447_rgbf000063-resize_1-target.png,125.0,4.8325,0.6919999999999993,depth_discrimination_stimuli/003083_2014-06-15_15-21-03_094959634447_rgbf000063-resize_1/003083_2014-06-15_15-21-03_094959634447_rgbf000063-resize_1-target.png,4.1405,0.0,-0.46128022081376835,1012.0,123.0,991.0,123.0,513.0,,513739.0,22.0,Woman
1817,524279.0,A34GH9SAZ3NAGE,DepthScenes,v2_duration_discrimination,discrim_jsons/Discrim125_randls_0.json,http://54.235.29.9/FacialAge/BNav_EC2/DepthDuration/v2_depth_discrimination_MTurk/v2_DepthDiscrim_HTML.html#77,77.0,1600.0,785.0,1600.0,900.0,9-5-2022,-1.7347074575860846,7-44-54,12.0,depth_discrimination_stimuli/002788_2014-06-22_19-36-03_094959634447_rgbf000088-resize_2/002788_2014-06-22_19-36-03_094959634447_rgbf000088-resize_2-target.png,depth_discrimination_stimuli/000749_2014-06-08_21-55-06_260595134347_rgbf000070-resize_2/000749_2014-06-08_21-55-06_260595134347_rgbf000070-resize_2-target.png,125.0,1.6465,0.6844999999999999,depth_discrimination_stimuli/002788_2014-06-22_19-36-03_094959634447_rgbf000088-resize_2/002788_2014-06-22_19-36-03_094959634447_rgbf000088-resize_2-target.png,2.331,1.0,813.0,1005.0,125.0,1009.0,123.0,495.0,,513739.0,22.0,Woman
1818,524279.0,A34GH9SAZ3NAGE,DepthScenes,v2_duration_discrimination,discrim_jsons/Discrim125_randls_0.json,http://54.235.29.9/FacialAge/BNav_EC2/DepthDuration/v2_depth_discrimination_MTurk/v2_DepthDiscrim_HTML.html#77,77.0,1600.0,785.0,1600.0,900.0,9-5-2022,-1.1193014983821858,7-44-54,13.0,depth_discrimination_stimuli/002763_2014-06-22_19-13-10_094959634447_rgbf000075-resize_4/002763_2014-06-22_19-13-10_094959634447_rgbf000075-resize_4-target.png,depth_discrimination_stimuli/002209_2014-06-28_18-36-10_260595134347_rgbf000051-resize_1/002209_2014-06-28_18-36-10_260595134347_rgbf000051-resize_1-target.png,125.0,1.68375,0.37324999999999986,depth_discrimination_stimuli/002763_2014-06-22_19-13-10_094959634447_rgbf000075-resize_4/002763_2014-06-22_19-13-10_094959634447_rgbf000075-resize_4-target.png,2.057,1.0,1037.0,1011.0,124.0,993.0,124.0,511.0,,513739.0,22.0,Woman
1819,524279.0,A34GH9SAZ3NAGE,DepthScenes,v2_duration_discrimination,discrim_jsons/Discrim125_randls_0.json,http://54.235.29.9/FacialAge/BNav_EC2/DepthDuration/v2_depth_discrimination_MTurk/v2_DepthDiscrim_HTML.html#77,77.0,1600.0,785.0,1600.0,900.0,9-5-2022,-1.5259090071419048,7-44-54,14.0,depth_discrimination_stimuli/001029_2014-06-08_13-17-57_260595134347_rgbf000065-resize_1/001029_2014-06-08_13-17-57_260595134347_rgbf000065-resize_1-target.png,depth_discrimination_stimuli/000677_2014-06-08_23-10-32_260595134347_rgbf000158-resize_6/000677_2014-06-08_23-10-32_260595134347_rgbf000158-resize_6-target.png,125.0,3.0835,0.47250000000000014,depth_discrimination_stimuli/001029_2014-06-08_13-17-57_260595134347_rgbf000065-resize_1/001029_2014-06-08_13-17-57_260595134347_rgbf000065-resize_1-target.png,3.556,1.0,889.0,1003.0,123.0,1010.0,124.0,493.0,,513739.0,22.0,Woman
1820,524279.0,A34GH9SAZ3NAGE,DepthScenes,v2_duration_discrimination,discrim_jsons/Discrim125_randls_0.json,http://54.235.29.9/FacialAge/BNav_EC2/DepthDuration/v2_depth_discrimination_MTurk/v2_DepthDiscrim_HTML.html#77,77.0,1600.0,785.0,1600.0,900.0,9-5-2022,-1.6770131489107192,7-44-54,15.0,depth_discrimination_stimuli/002663_2014-06-13_15-50-26_094959634447_rgbf000075-resize_1/002663_2014-06-13_15-50-26_094959634447_rgbf000075-resize_1-target.png,depth_discrimination_stimuli/000409_2014-06-04_19-23-33_260595134347_rgbf000067-resize_0/000409_2014-06-04_19-23-33_260595134347_rgbf000067-resize_0-target.png,125.0,4.7495,1.0160000000000005,depth_discrimination_stimuli/000409_2014-06-04_19-23-33_260595134347_rgbf000067-resize_0/000409_2014-06-04_19-23-33_260595134347_rgbf000067-resize_0-target.png,3.7335,1.0,834.0,0.49624823755287645,109.0,1006.0,126.0,494.0,,513739.0,22.0,Woman
1822,524279.0,A34GH9SAZ3NAGE,DepthScenes,v2_duration_discrimination,discrim_jsons/Discrim125_randls_0.json,http://54.235.29.9/FacialAge/BNav_EC2/DepthDuration/v2_depth_discrimination_MTurk/v2_DepthDiscrim_HTML.html#77,77.0,1600.0,785.0,1600.0,900.0,9-5-2022,-2.3748395490794256,7-44-54,17.0,depth_discrimination_stimuli/001806_2014-06-26_20-50-20_260595134347_rgbf000091-resize_1/001806_2014-06-26_20-50-20_260595134347_rgbf000091-resize_1-target.png,depth_discrimination_stimuli/001617_2014-06-20_11-35-32_260595134347_rgbf000066-resize_1/001617_2014-06-20_11-35-32_260595134347_rgbf000066-resize_1-target.png,125.0,2.7305,1.0605000000000002,depth_discrimination_stimuli/001806_2014-06-26_20-50-20_260595134347_rgbf000091-resize_1/001806_2014-06-26_20-50-20_260595134347_rgbf000091-resize_1-target.png,3.7910000000000004,0.0,580.0,1015.0,125.0,993.0,122.0,510.0,,513739.0,22.0,Woman
1823,524279.0,A34GH9SAZ3NAGE,DepthScenes,v2_duration_discrimination,discrim_jsons/Discrim125_randls_0.json,http://54.235.29.9/FacialAge/BNav_EC2/DepthDuration/v2_depth_discrimination_MTurk/v2_DepthDiscrim_HTML.html#77,77.0,1600.0,785.0,1600.0,900.0,9-5-2022,-2.5369330829768812,7-44-54,18.0,depth_discrimination_stimuli/002272_2014-06-28_18-53-56_260595134347_rgbf000067-resize_2/002272_2014-06-28_18-53-56_260595134347_rgbf000067-resize_2-target.png,depth_discrimination_stimuli/001571_2014-06-20_17-21-32_260595134347_rgbf000089-resize_1/001571_2014-06-20_17-21-32_260595134347_rgbf000089-resize_1-target.png,125.0,1.138,0.7220000000000002,depth_discrimination_stimuli/002272_2014-06-28_18-53-56_260595134347_rgbf000067-resize_2/002272_2014-06-28_18-53-56_260595134347_rgbf000067-resize_2-target.png,1.86,0.0,521.0,1011.0,123.0,1005.0,110.0,508.0,,513739.0,22.0,Woman
1824,524279.0,A34GH9SAZ3NAGE,DepthScenes,v2_duration_discrimination,discrim_jsons/Discrim125_randls_0.json,http://54.235.29.9/FacialAge/BNav_EC2/DepthDuration/v2_depth_discrimination_MTurk/v2_DepthDiscrim_HTML.html#77,77.0,1600.0,785.0,1600.0,900.0,9-5-2022,-1.800643810357931,7-44-54,19.0,depth_discrimination_stimuli/001056_2014-06-08_18-46-44_260595134347_rgbf000068-resize_0/001056_2014-06-08_18-46-44_260595134347_rgbf000068-resize_0-target.png,depth_discrimination_stimuli/002199_2014-06-28_18-33-56_260595134347_rgbf000074-resize_0/002199_2014-06-28_18-33-56_260595134347_rgbf000074-resize_0-target.png,125.0,2.6625,0.6665000000000001,depth_discrimination_stimuli/002199_2014-06-28_18-33-56_260595134347_rgbf000074-resize_0/002199_2014-06-28_18-33-56_260595134347_rgbf000074-resize_0-target.png,1.996,1.0,789.0,1004.0,126.0,1007.0,127.0,493.0,,513739.0,22.0,Woman
1825,524279.0,A34GH9SAZ3NAGE,DepthScenes,v2_duration_discrimination,discrim_jsons/Discrim125_randls_0.json,http://54.235.29.9/FacialAge/BNav_EC2/DepthDuration/v2_depth_discrimination_MTurk/v2_DepthDiscrim_HTML.html#77,77.0,1600.0,785.0,1600.0,900.0,9-5-2022,-1.3253526007942056,7-44-54,20.0,depth_discrimination_stimuli/000682_2014-06-08_23-14-58_260595134347_rgbf000041-resize_5/000682_2014-06-08_23-14-58_260595134347_rgbf000041-resize_5-target.png,depth_discrimination_stimuli/001650_2014-06-20_12-09-00_260595134347_rgbf000087-resize_3/001650_2014-06-20_12-09-00_260595134347_rgbf000087-resize_3-target.png,125.0,2.7239999999999998,0.7734999999999999,depth_discrimination_stimuli/001650_2014-06-20_12-09-00_260595134347_rgbf000087-resize_3/001650_2014-06-20_12-09-00_260595134347_rgbf000087-resize_3-target.png,1.9505,1.0,962.0,1002.0,123.0,1008.0,128.0,491.0,,513739.0,22.0,Woman
1826,524279.0,A34GH9SAZ3NAGE,DepthScenes,v2_duration_discrimination,discrim_jsons/Discrim125_randls_0.json,http://54.235.29.9/FacialAge/BNav_EC2/DepthDuration/v2_depth_discrimination_MTurk/v2_DepthDiscrim_HTML.html#77,77.0,1600.0,785.0,1600.0,900.0,9-5-2022,-1.8473487269046553,7-44-54,21.0,depth_discrimination_stimuli/000878_2014-06-08_22-52-45_260595134347_rgbf000045-resize_2/000878_2014-06-08_22-52-45_260595134347_rgbf000045-resize_2-target.png,depth_discrimination_stimuli/002953_2014-06-08_17-32-18_094959634447_rgbf000059-resize_5/002953_2014-06-08_17-32-18_094959634447_rgbf000059-resize_5-target.png,125.0,2.092,0.5410000000000001,depth_discrimination_stimuli/002953_2014-06-08_17-32-18_094959634447_rgbf000059-resize_5/002953_2014-06-08_17-32-18_094959634447_rgbf000059-resize_5-target.png,1.551,1.0,772.0,1012.0,126.0,991.0,124.0,509.0,,513739.0,22.0,Woman
1827,524279.0,A34GH9SAZ3NAGE,DepthScenes,v2_duration_discrimination,discrim_jsons/Discrim125_randls_0.json,http://54.235.29.9/FacialAge/BNav_EC2/DepthDuration/v2_depth_discrimination_MTurk/v2_DepthDiscrim_HTML.html#77,77.0,1600.0,785.0,1600.0,900.0,9-5-2022,0.12249981215425257,7-44-54,22.0,depth_discrimination_stimuli/001417_2014-06-19_16-25-36_260595134347_rgbf000115-resize_5/001417_2014-06-19_16-25-36_260595134347_rgbf000115-resize_5-target.png,depth_discrimination_stimuli/003081_2014-06-15_15-19-16_094959634447_rgbf000150-resize_1/003081_2014-06-15_15-19-16_094959634447_rgbf000150-resize_1-target.png,125.0,4.6255,0.7129999999999996,depth_discrimination_stimuli/003081_2014-06-15_15-19-16_094959634447_rgbf000150-resize_1/003081_2014-06-15_15-19-16_094959634447_rgbf000150-resize_1-target.png,3.9125,1.0,1489.0,1004.0,123.0,1009.0,123.0,492.0,,513739.0,22.0,Woman
1828,524279.0,A34GH9SAZ3NAGE,DepthScenes,v2_duration_discrimination,discrim_jsons/Discrim125_randls_0.json,http://54.235.29.9/FacialAge/BNav_EC2/DepthDuration/v2_depth_discrimination_MTurk/v2_DepthDiscrim_HTML.html#77,77.0,1600.0,785.0,1600.0,900.0,9-5-2022,-1.4792040905951802,7-44-54,23.0,depth_discrimination_stimuli/001167_2014-06-17_15-38-07_260595134347_rgbf000108-resize_0/001167_2014-06-17_15-38-07_260595134347_rgbf000108-resize_0-target.png,depth_discrimination_stimuli/003587_2014-05-23_16-48-02_094959634447_rgbf002384-resize_2/003587_2014-05-23_16-48-02_094959634447_rgbf002384-resize_2-target.png,125.0,1.8505,0.49350000000000005,depth_discrimination_stimuli/003587_2014-05-23_16-48-02_094959634447_rgbf002384-resize_2/003587_2014-05-23_16-48-02_094959634447_rgbf002384-resize_2-target.png,1.357,0.0,906.0,1003.0,139.0,992.0,123.0,509.0,,513739.0,22.0,Woman
1830,524279.0,A34GH9SAZ3NAGE,DepthScenes,v2_duration_discrimination,discrim_jsons/Discrim125_randls_0.json,http://54.235.29.9/FacialAge/BNav_EC2/DepthDuration/v2_depth_discrimination_MTurk/v2_DepthDiscrim_HTML.html#77,77.0,1600.0,785.0,1600.0,900.0,9-5-2022,-1.8473487269046553,7-44-54,25.0,depth_discrimination_stimuli/002375_2014-06-28_20-13-44_260595134347_rgbf000032-resize_1/002375_2014-06-28_20-13-44_260595134347_rgbf000032-resize_1-target.png,depth_discrimination_stimuli/002657_2014-06-13_15-29-54_094959634447_rgbf000150-resize_1/002657_2014-06-13_15-29-54_094959634447_rgbf000150-resize_1-target.png,125.0,4.0175,0.9014999999999995,depth_discrimination_stimuli/002375_2014-06-28_20-13-44_260595134347_rgbf000032-resize_1/002375_2014-06-28_20-13-44_260595134347_rgbf000032-resize_1-target.png,4.919,0.0,772.0,1003.0,127.0,1009.0,124.0,495.0,,513739.0,22.0,Woman
1831,524279.0,A34GH9SAZ3NAGE,DepthScenes,v2_duration_discrimination,discrim_jsons/Discrim125_randls_0.json,http://54.235.29.9/FacialAge/BNav_EC2/DepthDuration/v2_depth_discrimination_MTurk/v2_DepthDiscrim_HTML.html#77,77.0,1600.0,785.0,1600.0,900.0,9-5-2022,-1.6275608843318345,7-44-54,26.0,depth_discrimination_stimuli/000009_2014-05-26_14-32-05_260595134347_rgbf000034-resize_3/000009_2014-05-26_14-32-05_260595134347_rgbf000034-resize_3-target.png,depth_discrimination_stimuli/001828_2014-06-26_21-40-03_260595134347_rgbf000024-resize_0/001828_2014-06-26_21-40-03_260595134347_rgbf000024-resize_0-target.png,125.0,3.8715,0.9545000000000003,depth_discrimination_stimuli/000009_2014-05-26_14-32-05_260595134347_rgbf000034-resize_3/000009_2014-05-26_14-32-05_260595134347_rgbf000034-resize_3-target.png,4.8260000000000005,1.0,852.0,0.49624823755287645,110.0,1007.0,124.0,507.0,,513739.0,22.0,Woman
1832,524279.0,A34GH9SAZ3NAGE,DepthScenes,v2_duration_discrimination,discrim_jsons/Discrim125_randls_0.json,http://54.235.29.9/FacialAge/BNav_EC2/DepthDuration/v2_depth_discrimination_MTurk/v2_DepthDiscrim_HTML.html#77,77.0,1600.0,785.0,1600.0,900.0,9-5-2022,-1.308868512601244,7-44-54,-2.6922892887926175,depth_discrimination_stimuli/000368_2014-06-09_15-53-01_260595134347_rgbf000155-resize_2/000368_2014-06-09_15-53-01_260595134347_rgbf000155-resize_2-target.png,depth_discrimination_stimuli/002678_2014-06-13_16-15-32_094959634447_rgbf000151-resize_6/002678_2014-06-13_16-15-32_094959634447_rgbf000151-resize_6-target.png,125.0,2.4859999999999998,0.3029999999999995,depth_discrimination_stimuli/002678_2014-06-13_16-15-32_094959634447_rgbf000151-resize_6/002678_2014-06-13_16-15-32_094959634447_rgbf000151-resize_6-target.png,2.1830000000000003,1.0,968.0,1008.0,123.0,996.0,135.0,493.0,,513739.0,22.0,Woman
1833,524279.0,A34GH9SAZ3NAGE,DepthScenes,v2_duration_discrimination,discrim_jsons/Discrim125_randls_0.json,http://54.235.29.9/FacialAge/BNav_EC2/DepthDuration/v2_depth_discrimination_MTurk/v2_DepthDiscrim_HTML.html#77,77.0,1600.0,785.0,1600.0,900.0,9-5-2022,-2.3089031963075795,7-44-54,28.0,depth_discrimination_stimuli/002630_2014-06-24_14-47-50_094959634447_rgbf000055-resize_1/002630_2014-06-24_14-47-50_094959634447_rgbf000055-resize_1-target.png,depth_discrimination_stimuli/002758_2014-06-22_19-11-20_094959634447_rgbf000128-resize_1/002758_2014-06-22_19-11-20_094959634447_rgbf000128-resize_1-target.png,125.0,3.0095,0.4544999999999999,depth_discrimination_stimuli/002758_2014-06-22_19-11-20_094959634447_rgbf000128-resize_1/002758_2014-06-22_19-11-20_094959634447_rgbf000128-resize_1-target.png,2.555,1.0,604.0,0.49624823755287645,109.0,1007.0,124.0,495.0,,513739.0,22.0,Woman
1834,524279.0,A34GH9SAZ3NAGE,DepthScenes,v2_duration_discrimination,discrim_jsons/Discrim125_randls_0.json,http://54.235.29.9/FacialAge/BNav_EC2/DepthDuration/v2_depth_discrimination_MTurk/v2_DepthDiscrim_HTML.html#77,77.0,1600.0,785.0,1600.0,900.0,9-5-2022,0.10326837592913073,7-44-54,29.0,depth_discrimination_stimuli/002748_2014-06-22_19-07-22_094959634447_rgbf000078-resize_1/002748_2014-06-22_19-07-22_094959634447_rgbf000078-resize_1-target.png,depth_discrimination_stimuli/002995_2014-06-15_12-31-26_094959634447_rgbf000150-resize_1/002995_2014-06-15_12-31-26_094959634447_rgbf000150-resize_1-target.png,125.0,4.6705,0.8344999999999994,depth_discrimination_stimuli/002995_2014-06-15_12-31-26_094959634447_rgbf000150-resize_1/002995_2014-06-15_12-31-26_094959634447_rgbf000150-resize_1-target.png,3.8360000000000003,0.0,1482.0,1009.0,120.0,1008.0,124.0,493.0,,513739.0,22.0,Woman
1835,524279.0,A34GH9SAZ3NAGE,DepthScenes,v2_duration_discrimination,discrim_jsons/Discrim125_randls_0.json,http://54.235.29.9/FacialAge/BNav_EC2/DepthDuration/v2_depth_discrimination_MTurk/v2_DepthDiscrim_HTML.html#77,77.0,1600.0,785.0,1600.0,900.0,9-5-2022,-0.8061038227159161,7-44-54,30.0,depth_discrimination_stimuli/001808_2014-06-26_20-50-58_260595134347_rgbf000029-resize_1/001808_2014-06-26_20-50-58_260595134347_rgbf000029-resize_1-target.png,depth_discrimination_stimuli/001815_2014-06-26_20-52-55_260595134347_rgbf000020-resize_0/001815_2014-06-26_20-52-55_260595134347_rgbf000020-resize_0-target.png,125.0,4.249,0.8624999999999998,depth_discrimination_stimuli/001815_2014-06-26_20-52-55_260595134347_rgbf000020-resize_0/001815_2014-06-26_20-52-55_260595134347_rgbf000020-resize_0-target.png,3.3865,1.0,1151.0,1009.0,123.0,994.0,138.0,494.0,,513739.0,22.0,Woman
1836,524279.0,A34GH9SAZ3NAGE,DepthScenes,v2_duration_discrimination,discrim_jsons/Discrim125_randls_0.json,http://54.235.29.9/FacialAge/BNav_EC2/DepthDuration/v2_depth_discrimination_MTurk/v2_DepthDiscrim_HTML.html#77,77.0,1600.0,785.0,1600.0,900.0,9-5-2022,-2.2264827553427717,7-44-54,31.0,depth_discrimination_stimuli/001164_2014-06-17_15-35-46_260595134347_rgbf000085-resize_3/001164_2014-06-17_15-35-46_260595134347_rgbf000085-resize_3-target.png,depth_discrimination_stimuli/001136_2014-06-17_15-19-41_260595134347_rgbf000076-resize_3/001136_2014-06-17_15-19-41_260595134347_rgbf000076-resize_3-target.png,125.0,2.354,0.48850000000000016,depth_discrimination_stimuli/001136_2014-06-17_15-19-41_260595134347_rgbf000076-resize_3/001136_2014-06-17_15-19-41_260595134347_rgbf000076-resize_3-target.png,1.8655,1.0,634.0,1012.0,124.0,991.0,124.0,510.0,,513739.0,22.0,Woman
1837,524279.0,A34GH9SAZ3NAGE,DepthScenes,v2_duration_discrimination,discrim_jsons/Discrim125_randls_0.json,http://54.235.29.9/FacialAge/BNav_EC2/DepthDuration/v2_depth_discrimination_MTurk/v2_DepthDiscrim_HTML.html#77,77.0,1600.0,785.0,1600.0,900.0,9-5-2022,-1.3720575173409302,7-44-54,32.0,depth_discrimination_stimuli/000506_2014-06-08_23-21-00_260595134347_rgbf000070-resize_7/000506_2014-06-08_23-21-00_260595134347_rgbf000070-resize_7-target.png,depth_discrimination_stimuli/003079_2014-06-15_15-18-20_094959634447_rgbf000152-resize_8/003079_2014-06-15_15-18-20_094959634447_rgbf000152-resize_8-target.png,125.0,4.0585,1.1810000000000005,depth_discrimination_stimuli/003079_2014-06-15_15-18-20_094959634447_rgbf000152-resize_8/003079_2014-06-15_15-18-20_094959634447_rgbf000152-resize_8-target.png,2.8775,0.0,945.0,1011.0,119.0,1009.0,124.0,493.0,,513739.0,22.0,Woman
1838,524279.0,A34GH9SAZ3NAGE,DepthScenes,v2_duration_discrimination,discrim_jsons/Discrim125_randls_0.json,http://54.235.29.9/FacialAge/BNav_EC2/DepthDuration/v2_depth_discrimination_MTurk/v2_DepthDiscrim_HTML.html#77,77.0,1600.0,785.0,1600.0,900.0,9-5-2022,-2.146809662410124,7-44-54,33.0,depth_discrimination_stimuli/000739_2014-06-08_18-45-58_260595134347_rgbf000068-resize_1/000739_2014-06-08_18-45-58_260595134347_rgbf000068-resize_1-target.png,depth_discrimination_stimuli/000734_2014-06-08_17-39-11_260595134347_rgbf000128-resize_2/000734_2014-06-08_17-39-11_260595134347_rgbf000128-resize_2-target.png,125.0,3.534,0.5640000000000001,depth_discrimination_stimuli/000739_2014-06-08_18-45-58_260595134347_rgbf000068-resize_1/000739_2014-06-08_18-45-58_260595134347_rgbf000068-resize_1-target.png,4.098,1.0,663.0,1012.0,122.0,993.0,125.0,510.0,,513739.0,22.0,Woman
1839,524279.0,A34GH9SAZ3NAGE,DepthScenes,v2_duration_discrimination,discrim_jsons/Discrim125_randls_0.json,http://54.235.29.9/FacialAge/BNav_EC2/DepthDuration/v2_depth_discrimination_MTurk/v2_DepthDiscrim_HTML.html#77,77.0,1600.0,785.0,1600.0,900.0,9-5-2022,-2.1523043584744443,7-44-54,34.0,depth_discrimination_stimuli/001555_2014-06-20_17-12-10_260595134347_rgbf000065-resize_4/001555_2014-06-20_17-12-10_260595134347_rgbf000065-resize_4-target.png,depth_discrimination_stimuli/000103_2014-05-14_22-01-17_260595134347_rgbf000152-resize_5/000103_2014-05-14_22-01-17_260595134347_rgbf000152-resize_5-target.png,125.0,1.633,0.3600000000000001,depth_discrimination_stimuli/001555_2014-06-20_17-12-10_260595134347_rgbf000065-resize_4/001555_2014-06-20_17-12-10_260595134347_rgbf000065-resize_4-target.png,1.993,1.0,661.0,1008.0,127.0,1004.0,-2.4182491576102443,509.0,,513739.0,22.0,Woman
1841,524279.0,A34GH9SAZ3NAGE,DepthScenes,v2_duration_discrimination,discrim_jsons/Discrim125_randls_0.json,http://54.235.29.9/FacialAge/BNav_EC2/DepthDuration/v2_depth_discrimination_MTurk/v2_DepthDiscrim_HTML.html#77,77.0,1600.0,785.0,1600.0,900.0,9-5-2022,-2.4462705979155928,7-44-54,36.0,depth_discrimination_stimuli/000642_2014-06-08_16-59-25_260595134347_rgbf000098-resize_2/000642_2014-06-08_16-59-25_260595134347_rgbf000098-resize_2-target.png,depth_discrimination_stimuli/002425_2014-06-28_20-27-29_260595134347_rgbf000031-resize_8/002425_2014-06-28_20-27-29_260595134347_rgbf000031-resize_8-target.png,125.0,2.8815,1.0145000000000004,depth_discrimination_stimuli/000642_2014-06-08_16-59-25_260595134347_rgbf000098-resize_2/000642_2014-06-08_16-59-25_260595134347_rgbf000098-resize_2-target.png,3.8960000000000004,0.0,554.0,1013.0,123.0,992.0,123.0,508.0,,513739.0,22.0,Woman
1842,524279.0,A34GH9SAZ3NAGE,DepthScenes,v2_duration_discrimination,discrim_jsons/Discrim125_randls_0.json,http://54.235.29.9/FacialAge/BNav_EC2/DepthDuration/v2_depth_discrimination_MTurk/v2_DepthDiscrim_HTML.html#77,77.0,1600.0,785.0,1600.0,900.0,9-5-2022,-2.325387284500541,7-44-54,37.0,depth_discrimination_stimuli/001570_2014-06-20_17-21-09_260595134347_rgbf000135-resize_4/001570_2014-06-20_17-21-09_260595134347_rgbf000135-resize_4-target.png,depth_discrimination_stimuli/001392_2014-06-19_16-07-59_260595134347_rgbf000046-resize_1/001392_2014-06-19_16-07-59_260595134347_rgbf000046-resize_1-target.png,125.0,4.467,0.33199999999999985,depth_discrimination_stimuli/001392_2014-06-19_16-07-59_260595134347_rgbf000046-resize_1/001392_2014-06-19_16-07-59_260595134347_rgbf000046-resize_1-target.png,4.135,1.0,598.0,1003.0,123.0,1011.0,123.0,494.0,,513739.0,22.0,Woman
1843,524279.0,A34GH9SAZ3NAGE,DepthScenes,v2_duration_discrimination,discrim_jsons/Discrim125_randls_0.json,http://54.235.29.9/FacialAge/BNav_EC2/DepthDuration/v2_depth_discrimination_MTurk/v2_DepthDiscrim_HTML.html#77,77.0,1600.0,785.0,1600.0,900.0,9-5-2022,-2.2319774514070922,7-44-54,-2.656825271816075,depth_discrimination_stimuli/002153_2014-06-25_21-27-18_260595134347_rgbf000038-resize_5/002153_2014-06-25_21-27-18_260595134347_rgbf000038-resize_5-target.png,depth_discrimination_stimuli/002660_2014-06-13_15-44-18_094959634447_rgbf001878-resize_2/002660_2014-06-13_15-44-18_094959634447_rgbf001878-resize_2-target.png,125.0,2.505,1.0710000000000002,depth_discrimination_stimuli/002153_2014-06-25_21-27-18_260595134347_rgbf000038-resize_5/002153_2014-06-25_21-27-18_260595134347_rgbf000038-resize_5-target.png,3.576,0.0,632.0,1007.0,124.0,994.0,138.0,492.0,,513739.0,22.0,Woman
1844,524279.0,A34GH9SAZ3NAGE,DepthScenes,v2_duration_discrimination,discrim_jsons/Discrim125_randls_0.json,http://54.235.29.9/FacialAge/BNav_EC2/DepthDuration/v2_depth_discrimination_MTurk/v2_DepthDiscrim_HTML.html#77,77.0,1600.0,785.0,1600.0,900.0,9-5-2022,-1.674265800878559,7-44-54,39.0,depth_discrimination_stimuli/000929_2014-06-09_16-33-19_260595134347_rgbf000139-resize_0/000929_2014-06-09_16-33-19_260595134347_rgbf000139-resize_0-target.png,depth_discrimination_stimuli/000457_2014-06-08_16-52-43_260595134347_rgbf000199-resize_1/000457_2014-06-08_16-52-43_260595134347_rgbf000199-resize_1-target.png,125.0,2.8680000000000003,0.7809999999999993,depth_discrimination_stimuli/000929_2014-06-09_16-33-19_260595134347_rgbf000139-resize_0/000929_2014-06-09_16-33-19_260595134347_rgbf000139-resize_0-target.png,3.6489999999999996,0.0,835.0,1008.0,121.0,1010.0,123.0,494.0,,513739.0,22.0,Woman
