,subjID,workerId,experimentName,versionName,sequenceName,url,selected_row,windowWidth,windowHeight,screenWidth,screenHeight,startDate,z_scored_RT,startTime,trial,stimulus_0,stimulus_1,duration,actual_depth_0,depth_difference,kinect_answer,actual_depth_1,discrim_choice,trial_RT,log_fixation,log_sceneDuration1,log_mask1,log_sceneDuration2,log_mask2,experimentTime,totalTime,age,gender
2322,572540.0,A338JPSSI0WIKD,DepthScenes,v2_duration_discrimination,discrim_jsons/Discrim250_randls_48.json,http://54.235.29.9/FacialAge/BNav_EC2/DepthDuration/v2_depth_discrimination_MTurk/v2_DepthDiscrim_HTML.html#11,11.0,1366.0,657.0,1366.0,768.0,9-5-2022,-inf,8-44-9,2.0,depth_discrimination_stimuli/001417_2014-06-19_16-25-36_260595134347_rgbf000115-resize_5/001417_2014-06-19_16-25-36_260595134347_rgbf000115-resize_5-target.png,depth_discrimination_stimuli/003081_2014-06-15_15-19-16_094959634447_rgbf000150-resize_1/003081_2014-06-15_15-19-16_094959634447_rgbf000150-resize_1-target.png,250.0,4.6255,0.7129999999999996,depth_discrimination_stimuli/003081_2014-06-15_15-19-16_094959634447_rgbf000150-resize_1/003081_2014-06-15_15-19-16_094959634447_rgbf000150-resize_1-target.png,3.9125,3.0,1425.0,39.0,271.0,978.0,249.0,512.0,,152007.0,24.0,Woman
2323,572540.0,A338JPSSI0WIKD,DepthScenes,v2_duration_discrimination,discrim_jsons/Discrim250_randls_48.json,http://54.235.29.9/FacialAge/BNav_EC2/DepthDuration/v2_depth_discrimination_MTurk/v2_DepthDiscrim_HTML.html#11,11.0,1366.0,657.0,1366.0,768.0,9-5-2022,-inf,8-44-9,3.0,depth_discrimination_stimuli/001555_2014-06-20_17-12-10_260595134347_rgbf000065-resize_4/001555_2014-06-20_17-12-10_260595134347_rgbf000065-resize_4-target.png,depth_discrimination_stimuli/000103_2014-05-14_22-01-17_260595134347_rgbf000152-resize_5/000103_2014-05-14_22-01-17_260595134347_rgbf000152-resize_5-target.png,250.0,1.633,0.3600000000000001,depth_discrimination_stimuli/001555_2014-06-20_17-12-10_260595134347_rgbf000065-resize_4/001555_2014-06-20_17-12-10_260595134347_rgbf000065-resize_4-target.png,1.993,3.0,1425.0,39.0,271.0,978.0,249.0,512.0,,152007.0,24.0,Woman
2324,572540.0,A338JPSSI0WIKD,DepthScenes,v2_duration_discrimination,discrim_jsons/Discrim250_randls_48.json,http://54.235.29.9/FacialAge/BNav_EC2/DepthDuration/v2_depth_discrimination_MTurk/v2_DepthDiscrim_HTML.html#11,11.0,1366.0,657.0,1366.0,768.0,9-5-2022,-inf,8-44-9,4.0,depth_discrimination_stimuli/000414_2014-06-04_19-49-13_260595134347_rgbf000044-resize_0/000414_2014-06-04_19-49-13_260595134347_rgbf000044-resize_0-target.png,depth_discrimination_stimuli/003129_2014-05-12_10-48-10_094959634447_rgbf000100-resize_0/003129_2014-05-12_10-48-10_094959634447_rgbf000100-resize_0-target.png,250.0,4.329,0.6015000000000006,depth_discrimination_stimuli/000414_2014-06-04_19-49-13_260595134347_rgbf000044-resize_0/000414_2014-06-04_19-49-13_260595134347_rgbf000044-resize_0-target.png,4.9305,3.0,1425.0,39.0,271.0,978.0,249.0,512.0,,152007.0,24.0,Woman
2325,572540.0,A338JPSSI0WIKD,DepthScenes,v2_duration_discrimination,discrim_jsons/Discrim250_randls_48.json,http://54.235.29.9/FacialAge/BNav_EC2/DepthDuration/v2_depth_discrimination_MTurk/v2_DepthDiscrim_HTML.html#11,11.0,1366.0,657.0,1366.0,768.0,9-5-2022,-inf,8-44-9,5.0,depth_discrimination_stimuli/002663_2014-06-13_15-50-26_094959634447_rgbf000075-resize_1/002663_2014-06-13_15-50-26_094959634447_rgbf000075-resize_1-target.png,depth_discrimination_stimuli/000409_2014-06-04_19-23-33_260595134347_rgbf000067-resize_0/000409_2014-06-04_19-23-33_260595134347_rgbf000067-resize_0-target.png,250.0,4.7495,1.0160000000000005,depth_discrimination_stimuli/000409_2014-06-04_19-23-33_260595134347_rgbf000067-resize_0/000409_2014-06-04_19-23-33_260595134347_rgbf000067-resize_0-target.png,3.7335,3.0,1425.0,39.0,271.0,978.0,249.0,512.0,,152007.0,24.0,Woman
2326,572540.0,A338JPSSI0WIKD,DepthScenes,v2_duration_discrimination,discrim_jsons/Discrim250_randls_48.json,http://54.235.29.9/FacialAge/BNav_EC2/DepthDuration/v2_depth_discrimination_MTurk/v2_DepthDiscrim_HTML.html#11,11.0,1366.0,657.0,1366.0,768.0,9-5-2022,-inf,8-44-9,6.0,depth_discrimination_stimuli/002725_2014-06-22_11-47-51_094959634447_rgbf000070-resize_1/002725_2014-06-22_11-47-51_094959634447_rgbf000070-resize_1-target.png,depth_discrimination_stimuli/002344_2014-06-28_20-06-29_260595134347_rgbf000030-resize_1/002344_2014-06-28_20-06-29_260595134347_rgbf000030-resize_1-target.png,250.0,2.195,0.6154999999999999,depth_discrimination_stimuli/002344_2014-06-28_20-06-29_260595134347_rgbf000030-resize_1/002344_2014-06-28_20-06-29_260595134347_rgbf000030-resize_1-target.png,1.5795,3.0,1425.0,39.0,271.0,978.0,249.0,512.0,,152007.0,24.0,Woman
2327,572540.0,A338JPSSI0WIKD,DepthScenes,v2_duration_discrimination,discrim_jsons/Discrim250_randls_48.json,http://54.235.29.9/FacialAge/BNav_EC2/DepthDuration/v2_depth_discrimination_MTurk/v2_DepthDiscrim_HTML.html#11,11.0,1366.0,657.0,1366.0,768.0,9-5-2022,-inf,8-44-9,7.0,depth_discrimination_stimuli/001158_2014-06-17_15-32-16_260595134347_rgbf000138-resize_2/001158_2014-06-17_15-32-16_260595134347_rgbf000138-resize_2-target.png,depth_discrimination_stimuli/000556_2014-06-09_22-42-56_260595134347_rgbf000214-resize_1/000556_2014-06-09_22-42-56_260595134347_rgbf000214-resize_1-target.png,250.0,4.5315,0.3099999999999996,depth_discrimination_stimuli/001158_2014-06-17_15-32-16_260595134347_rgbf000138-resize_2/001158_2014-06-17_15-32-16_260595134347_rgbf000138-resize_2-target.png,4.8415,3.0,1425.0,39.0,271.0,978.0,249.0,512.0,,152007.0,24.0,Woman
2329,572540.0,A338JPSSI0WIKD,DepthScenes,v2_duration_discrimination,discrim_jsons/Discrim250_randls_48.json,http://54.235.29.9/FacialAge/BNav_EC2/DepthDuration/v2_depth_discrimination_MTurk/v2_DepthDiscrim_HTML.html#11,11.0,1366.0,657.0,1366.0,768.0,9-5-2022,-inf,8-44-9,9.0,depth_discrimination_stimuli/001059_2014-06-08_21-53-27_260595134347_rgbf000061-resize_4/001059_2014-06-08_21-53-27_260595134347_rgbf000061-resize_4-target.png,depth_discrimination_stimuli/001032_2014-06-08_13-23-17_260595134347_rgbf000021-resize_3/001032_2014-06-08_13-23-17_260595134347_rgbf000021-resize_3-target.png,250.0,2.4185,0.8540000000000001,depth_discrimination_stimuli/001059_2014-06-08_21-53-27_260595134347_rgbf000061-resize_4/001059_2014-06-08_21-53-27_260595134347_rgbf000061-resize_4-target.png,3.2725,3.0,1425.0,39.0,271.0,978.0,249.0,512.0,,152007.0,24.0,Woman
2330,572540.0,A338JPSSI0WIKD,DepthScenes,v2_duration_discrimination,discrim_jsons/Discrim250_randls_48.json,http://54.235.29.9/FacialAge/BNav_EC2/DepthDuration/v2_depth_discrimination_MTurk/v2_DepthDiscrim_HTML.html#11,11.0,1366.0,657.0,1366.0,768.0,9-5-2022,-inf,8-44-9,10.0,depth_discrimination_stimuli/003070_2014-06-15_14-58-27_094959634447_rgbf000150-resize_3/003070_2014-06-15_14-58-27_094959634447_rgbf000150-resize_3-target.png,depth_discrimination_stimuli/000943_2014-06-09_19-31-07_260595134347_rgbf000128-resize_1/000943_2014-06-09_19-31-07_260595134347_rgbf000128-resize_1-target.png,250.0,2.9415,0.9650000000000001,depth_discrimination_stimuli/000943_2014-06-09_19-31-07_260595134347_rgbf000128-resize_1/000943_2014-06-09_19-31-07_260595134347_rgbf000128-resize_1-target.png,1.9765,3.0,1425.0,39.0,271.0,978.0,249.0,512.0,,152007.0,24.0,Woman
2331,572540.0,A338JPSSI0WIKD,DepthScenes,v2_duration_discrimination,discrim_jsons/Discrim250_randls_48.json,http://54.235.29.9/FacialAge/BNav_EC2/DepthDuration/v2_depth_discrimination_MTurk/v2_DepthDiscrim_HTML.html#11,11.0,1366.0,657.0,1366.0,768.0,9-5-2022,-inf,8-44-9,11.0,depth_discrimination_stimuli/001055_2014-06-08_18-45-35_260595134347_rgbf000111-resize_4/001055_2014-06-08_18-45-35_260595134347_rgbf000111-resize_4-target.png,depth_discrimination_stimuli/000549_2014-06-08_22-10-24_260595134347_rgbf000247-resize_3/000549_2014-06-08_22-10-24_260595134347_rgbf000247-resize_3-target.png,250.0,2.4290000000000003,0.5880000000000003,depth_discrimination_stimuli/000549_2014-06-08_22-10-24_260595134347_rgbf000247-resize_3/000549_2014-06-08_22-10-24_260595134347_rgbf000247-resize_3-target.png,1.841,3.0,1425.0,39.0,271.0,978.0,249.0,512.0,,152007.0,24.0,Woman
2332,572540.0,A338JPSSI0WIKD,DepthScenes,v2_duration_discrimination,discrim_jsons/Discrim250_randls_48.json,http://54.235.29.9/FacialAge/BNav_EC2/DepthDuration/v2_depth_discrimination_MTurk/v2_DepthDiscrim_HTML.html#11,11.0,1366.0,657.0,1366.0,768.0,9-5-2022,-inf,8-44-9,12.0,depth_discrimination_stimuli/002509_2014-06-24_13-19-22_094959634447_rgbf000077-resize_0/002509_2014-06-24_13-19-22_094959634447_rgbf000077-resize_0-target.png,depth_discrimination_stimuli/003338_2014-05-20_11-01-23_094959634447_rgbf000051-resize_6/003338_2014-05-20_11-01-23_094959634447_rgbf000051-resize_6-target.png,250.0,1.3065,0.38650000000000007,depth_discrimination_stimuli/002509_2014-06-24_13-19-22_094959634447_rgbf000077-resize_0/002509_2014-06-24_13-19-22_094959634447_rgbf000077-resize_0-target.png,1.693,3.0,1425.0,39.0,271.0,978.0,249.0,512.0,,152007.0,24.0,Woman
2333,572540.0,A338JPSSI0WIKD,DepthScenes,v2_duration_discrimination,discrim_jsons/Discrim250_randls_48.json,http://54.235.29.9/FacialAge/BNav_EC2/DepthDuration/v2_depth_discrimination_MTurk/v2_DepthDiscrim_HTML.html#11,11.0,1366.0,657.0,1366.0,768.0,9-5-2022,-inf,8-44-9,13.0,depth_discrimination_stimuli/001133_2014-06-17_14-49-16_260595134347_rgbf000100-resize_0/001133_2014-06-17_14-49-16_260595134347_rgbf000100-resize_0-target.png,depth_discrimination_stimuli/001132_2014-06-17_14-48-54_260595134347_rgbf000100-resize_2/001132_2014-06-17_14-48-54_260595134347_rgbf000100-resize_2-target.png,250.0,4.2115,0.4584999999999999,depth_discrimination_stimuli/001132_2014-06-17_14-48-54_260595134347_rgbf000100-resize_2/001132_2014-06-17_14-48-54_260595134347_rgbf000100-resize_2-target.png,3.753,3.0,1425.0,39.0,271.0,978.0,249.0,512.0,,152007.0,24.0,Woman
2334,572540.0,A338JPSSI0WIKD,DepthScenes,v2_duration_discrimination,discrim_jsons/Discrim250_randls_48.json,http://54.235.29.9/FacialAge/BNav_EC2/DepthDuration/v2_depth_discrimination_MTurk/v2_DepthDiscrim_HTML.html#11,11.0,1366.0,657.0,1366.0,768.0,9-5-2022,-inf,8-44-9,14.0,depth_discrimination_stimuli/002989_2014-06-15_12-25-03_094959634447_rgbf000150-resize_3/002989_2014-06-15_12-25-03_094959634447_rgbf000150-resize_3-target.png,depth_discrimination_stimuli/000866_2014-06-09_20-45-42_260595134347_rgbf000139-resize_1/000866_2014-06-09_20-45-42_260595134347_rgbf000139-resize_1-target.png,250.0,4.1975,0.9819999999999998,depth_discrimination_stimuli/000866_2014-06-09_20-45-42_260595134347_rgbf000139-resize_1/000866_2014-06-09_20-45-42_260595134347_rgbf000139-resize_1-target.png,3.2155,3.0,1425.0,39.0,271.0,978.0,249.0,512.0,,152007.0,24.0,Woman
2335,572540.0,A338JPSSI0WIKD,DepthScenes,v2_duration_discrimination,discrim_jsons/Discrim250_randls_48.json,http://54.235.29.9/FacialAge/BNav_EC2/DepthDuration/v2_depth_discrimination_MTurk/v2_DepthDiscrim_HTML.html#11,11.0,1366.0,657.0,1366.0,768.0,9-5-2022,-inf,8-44-9,15.0,depth_discrimination_stimuli/000773_2014-06-08_22-24-54_260595134347_rgbf000093-resize_1/000773_2014-06-08_22-24-54_260595134347_rgbf000093-resize_1-target.png,depth_discrimination_stimuli/002414_2014-06-28_20-24-58_260595134347_rgbf000067-resize_4/002414_2014-06-28_20-24-58_260595134347_rgbf000067-resize_4-target.png,250.0,4.973,0.6099999999999994,depth_discrimination_stimuli/002414_2014-06-28_20-24-58_260595134347_rgbf000067-resize_4/002414_2014-06-28_20-24-58_260595134347_rgbf000067-resize_4-target.png,4.363,3.0,1425.0,39.0,271.0,978.0,249.0,512.0,,152007.0,24.0,Woman
2336,572540.0,A338JPSSI0WIKD,DepthScenes,v2_duration_discrimination,discrim_jsons/Discrim250_randls_48.json,http://54.235.29.9/FacialAge/BNav_EC2/DepthDuration/v2_depth_discrimination_MTurk/v2_DepthDiscrim_HTML.html#11,11.0,1366.0,657.0,1366.0,768.0,9-5-2022,-inf,8-44-9,16.0,depth_discrimination_stimuli/000929_2014-06-09_16-33-19_260595134347_rgbf000139-resize_0/000929_2014-06-09_16-33-19_260595134347_rgbf000139-resize_0-target.png,depth_discrimination_stimuli/000457_2014-06-08_16-52-43_260595134347_rgbf000199-resize_1/000457_2014-06-08_16-52-43_260595134347_rgbf000199-resize_1-target.png,250.0,2.8680000000000003,0.7809999999999993,depth_discrimination_stimuli/000929_2014-06-09_16-33-19_260595134347_rgbf000139-resize_0/000929_2014-06-09_16-33-19_260595134347_rgbf000139-resize_0-target.png,3.6489999999999996,3.0,1425.0,39.0,271.0,978.0,249.0,512.0,,152007.0,24.0,Woman
2338,572540.0,A338JPSSI0WIKD,DepthScenes,v2_duration_discrimination,discrim_jsons/Discrim250_randls_48.json,http://54.235.29.9/FacialAge/BNav_EC2/DepthDuration/v2_depth_discrimination_MTurk/v2_DepthDiscrim_HTML.html#11,11.0,1366.0,657.0,1366.0,768.0,9-5-2022,-inf,8-44-9,18.0,depth_discrimination_stimuli/000788_2014-06-08_22-34-36_260595134347_rgbf000131-resize_1/000788_2014-06-08_22-34-36_260595134347_rgbf000131-resize_1-target.png,depth_discrimination_stimuli/001235_2014-06-17_16-37-36_260595134347_rgbf000084-resize_4/001235_2014-06-17_16-37-36_260595134347_rgbf000084-resize_4-target.png,250.0,3.359,0.3014999999999999,depth_discrimination_stimuli/000788_2014-06-08_22-34-36_260595134347_rgbf000131-resize_1/000788_2014-06-08_22-34-36_260595134347_rgbf000131-resize_1-target.png,3.6605,3.0,1425.0,39.0,271.0,978.0,249.0,512.0,,152007.0,24.0,Woman
2339,572540.0,A338JPSSI0WIKD,DepthScenes,v2_duration_discrimination,discrim_jsons/Discrim250_randls_48.json,http://54.235.29.9/FacialAge/BNav_EC2/DepthDuration/v2_depth_discrimination_MTurk/v2_DepthDiscrim_HTML.html#11,11.0,1366.0,657.0,1366.0,768.0,9-5-2022,-inf,8-44-9,19.0,depth_discrimination_stimuli/003492_2014-05-21_15-50-55_094959634447_rgbf000828-resize_1/003492_2014-05-21_15-50-55_094959634447_rgbf000828-resize_1-target.png,depth_discrimination_stimuli/002568_2014-06-24_13-59-21_094959634447_rgbf000062-resize_4/002568_2014-06-24_13-59-21_094959634447_rgbf000062-resize_4-target.png,250.0,4.06875,1.0537499999999995,depth_discrimination_stimuli/002568_2014-06-24_13-59-21_094959634447_rgbf000062-resize_4/002568_2014-06-24_13-59-21_094959634447_rgbf000062-resize_4-target.png,3.015,3.0,1425.0,39.0,271.0,978.0,249.0,512.0,,152007.0,24.0,Woman
2340,572540.0,A338JPSSI0WIKD,DepthScenes,v2_duration_discrimination,discrim_jsons/Discrim250_randls_48.json,http://54.235.29.9/FacialAge/BNav_EC2/DepthDuration/v2_depth_discrimination_MTurk/v2_DepthDiscrim_HTML.html#11,11.0,1366.0,657.0,1366.0,768.0,9-5-2022,-inf,8-44-9,20.0,depth_discrimination_stimuli/003621_2014-05-23_18-06-08_094959634447_rgbf000101-resize_1/003621_2014-05-23_18-06-08_094959634447_rgbf000101-resize_1-target.png,depth_discrimination_stimuli/001584_2014-06-20_11-07-43_260595134347_rgbf000002-resize_1/001584_2014-06-20_11-07-43_260595134347_rgbf000002-resize_1-target.png,250.0,3.9835,0.4535,depth_discrimination_stimuli/001584_2014-06-20_11-07-43_260595134347_rgbf000002-resize_1/001584_2014-06-20_11-07-43_260595134347_rgbf000002-resize_1-target.png,3.53,3.0,1425.0,39.0,271.0,978.0,249.0,512.0,,152007.0,24.0,Woman
2341,572540.0,A338JPSSI0WIKD,DepthScenes,v2_duration_discrimination,discrim_jsons/Discrim250_randls_48.json,http://54.235.29.9/FacialAge/BNav_EC2/DepthDuration/v2_depth_discrimination_MTurk/v2_DepthDiscrim_HTML.html#11,11.0,1366.0,657.0,1366.0,768.0,9-5-2022,-inf,8-44-9,21.0,depth_discrimination_stimuli/000368_2014-06-09_15-53-01_260595134347_rgbf000155-resize_2/000368_2014-06-09_15-53-01_260595134347_rgbf000155-resize_2-target.png,depth_discrimination_stimuli/002678_2014-06-13_16-15-32_094959634447_rgbf000151-resize_6/002678_2014-06-13_16-15-32_094959634447_rgbf000151-resize_6-target.png,250.0,2.4859999999999998,0.3029999999999995,depth_discrimination_stimuli/002678_2014-06-13_16-15-32_094959634447_rgbf000151-resize_6/002678_2014-06-13_16-15-32_094959634447_rgbf000151-resize_6-target.png,2.1830000000000003,3.0,1425.0,39.0,271.0,978.0,249.0,512.0,,152007.0,24.0,Woman
2342,572540.0,A338JPSSI0WIKD,DepthScenes,v2_duration_discrimination,discrim_jsons/Discrim250_randls_48.json,http://54.235.29.9/FacialAge/BNav_EC2/DepthDuration/v2_depth_discrimination_MTurk/v2_DepthDiscrim_HTML.html#11,11.0,1366.0,657.0,1366.0,768.0,9-5-2022,-inf,8-44-9,22.0,depth_discrimination_stimuli/001808_2014-06-26_20-50-58_260595134347_rgbf000029-resize_1/001808_2014-06-26_20-50-58_260595134347_rgbf000029-resize_1-target.png,depth_discrimination_stimuli/001815_2014-06-26_20-52-55_260595134347_rgbf000020-resize_0/001815_2014-06-26_20-52-55_260595134347_rgbf000020-resize_0-target.png,250.0,4.249,0.8624999999999998,depth_discrimination_stimuli/001815_2014-06-26_20-52-55_260595134347_rgbf000020-resize_0/001815_2014-06-26_20-52-55_260595134347_rgbf000020-resize_0-target.png,3.3865,3.0,1425.0,39.0,271.0,978.0,249.0,512.0,,152007.0,24.0,Woman
2343,572540.0,A338JPSSI0WIKD,DepthScenes,v2_duration_discrimination,discrim_jsons/Discrim250_randls_48.json,http://54.235.29.9/FacialAge/BNav_EC2/DepthDuration/v2_depth_discrimination_MTurk/v2_DepthDiscrim_HTML.html#11,11.0,1366.0,657.0,1366.0,768.0,9-5-2022,-inf,8-44-9,23.0,depth_discrimination_stimuli/001164_2014-06-17_15-35-46_260595134347_rgbf000085-resize_3/001164_2014-06-17_15-35-46_260595134347_rgbf000085-resize_3-target.png,depth_discrimination_stimuli/001136_2014-06-17_15-19-41_260595134347_rgbf000076-resize_3/001136_2014-06-17_15-19-41_260595134347_rgbf000076-resize_3-target.png,250.0,2.354,0.48850000000000016,depth_discrimination_stimuli/001136_2014-06-17_15-19-41_260595134347_rgbf000076-resize_3/001136_2014-06-17_15-19-41_260595134347_rgbf000076-resize_3-target.png,1.8655,3.0,1425.0,39.0,271.0,978.0,249.0,512.0,,152007.0,24.0,Woman
2344,572540.0,A338JPSSI0WIKD,DepthScenes,v2_duration_discrimination,discrim_jsons/Discrim250_randls_48.json,http://54.235.29.9/FacialAge/BNav_EC2/DepthDuration/v2_depth_discrimination_MTurk/v2_DepthDiscrim_HTML.html#11,11.0,1366.0,657.0,1366.0,768.0,9-5-2022,-inf,8-44-9,24.0,depth_discrimination_stimuli/000493_2014-06-09_21-01-18_260595134347_rgbf000196-resize_3/000493_2014-06-09_21-01-18_260595134347_rgbf000196-resize_3-target.png,depth_discrimination_stimuli/000191_2014-05-12_17-07-38_260595134347_rgbf000199-resize_0/000191_2014-05-12_17-07-38_260595134347_rgbf000199-resize_0-target.png,250.0,3.44,0.35950000000000015,depth_discrimination_stimuli/000493_2014-06-09_21-01-18_260595134347_rgbf000196-resize_3/000493_2014-06-09_21-01-18_260595134347_rgbf000196-resize_3-target.png,3.7995,3.0,1425.0,39.0,271.0,978.0,249.0,512.0,,152007.0,24.0,Woman
2346,572540.0,A338JPSSI0WIKD,DepthScenes,v2_duration_discrimination,discrim_jsons/Discrim250_randls_48.json,http://54.235.29.9/FacialAge/BNav_EC2/DepthDuration/v2_depth_discrimination_MTurk/v2_DepthDiscrim_HTML.html#11,11.0,1366.0,657.0,1366.0,768.0,9-5-2022,-inf,8-44-9,26.0,depth_discrimination_stimuli/002748_2014-06-22_19-07-22_094959634447_rgbf000078-resize_1/002748_2014-06-22_19-07-22_094959634447_rgbf000078-resize_1-target.png,depth_discrimination_stimuli/002995_2014-06-15_12-31-26_094959634447_rgbf000150-resize_1/002995_2014-06-15_12-31-26_094959634447_rgbf000150-resize_1-target.png,250.0,4.6705,0.8344999999999994,depth_discrimination_stimuli/002995_2014-06-15_12-31-26_094959634447_rgbf000150-resize_1/002995_2014-06-15_12-31-26_094959634447_rgbf000150-resize_1-target.png,3.8360000000000003,3.0,1425.0,229.0,271.0,978.0,249.0,512.0,,152007.0,24.0,Woman
2347,572540.0,A338JPSSI0WIKD,DepthScenes,v2_duration_discrimination,discrim_jsons/Discrim250_randls_48.json,http://54.235.29.9/FacialAge/BNav_EC2/DepthDuration/v2_depth_discrimination_MTurk/v2_DepthDiscrim_HTML.html#11,11.0,1366.0,657.0,1366.0,768.0,9-5-2022,-inf,8-44-9,27.0,depth_discrimination_stimuli/000736_2014-06-08_18-24-15_260595134347_rgbf000206-resize_3/000736_2014-06-08_18-24-15_260595134347_rgbf000206-resize_3-target.png,depth_discrimination_stimuli/000137_2014-05-20_17-04-49_260595134347_rgbf000120-resize_1/000137_2014-05-20_17-04-49_260595134347_rgbf000120-resize_1-target.png,250.0,3.515,0.2709999999999999,depth_discrimination_stimuli/000736_2014-06-08_18-24-15_260595134347_rgbf000206-resize_3/000736_2014-06-08_18-24-15_260595134347_rgbf000206-resize_3-target.png,3.786,3.0,1425.0,229.0,271.0,978.0,249.0,512.0,,152007.0,24.0,Woman
2348,572540.0,A338JPSSI0WIKD,DepthScenes,v2_duration_discrimination,discrim_jsons/Discrim250_randls_48.json,http://54.235.29.9/FacialAge/BNav_EC2/DepthDuration/v2_depth_discrimination_MTurk/v2_DepthDiscrim_HTML.html#11,11.0,1366.0,657.0,1366.0,768.0,9-5-2022,-inf,8-44-9,28.0,depth_discrimination_stimuli/002272_2014-06-28_18-53-56_260595134347_rgbf000067-resize_2/002272_2014-06-28_18-53-56_260595134347_rgbf000067-resize_2-target.png,depth_discrimination_stimuli/001571_2014-06-20_17-21-32_260595134347_rgbf000089-resize_1/001571_2014-06-20_17-21-32_260595134347_rgbf000089-resize_1-target.png,250.0,1.138,0.7220000000000002,depth_discrimination_stimuli/002272_2014-06-28_18-53-56_260595134347_rgbf000067-resize_2/002272_2014-06-28_18-53-56_260595134347_rgbf000067-resize_2-target.png,1.86,3.0,1425.0,229.0,271.0,978.0,249.0,512.0,,152007.0,24.0,Woman
2349,572540.0,A338JPSSI0WIKD,DepthScenes,v2_duration_discrimination,discrim_jsons/Discrim250_randls_48.json,http://54.235.29.9/FacialAge/BNav_EC2/DepthDuration/v2_depth_discrimination_MTurk/v2_DepthDiscrim_HTML.html#11,11.0,1366.0,657.0,1366.0,768.0,9-5-2022,-inf,8-44-9,29.0,depth_discrimination_stimuli/001110_2014-06-15_17-25-28_260595134347_rgbf000150-resize_1/001110_2014-06-15_17-25-28_260595134347_rgbf000150-resize_1-target.png,depth_discrimination_stimuli/000927_2014-06-09_16-32-30_260595134347_rgbf000123-resize_3/000927_2014-06-09_16-32-30_260595134347_rgbf000123-resize_3-target.png,250.0,1.7115,0.9670000000000001,depth_discrimination_stimuli/001110_2014-06-15_17-25-28_260595134347_rgbf000150-resize_1/001110_2014-06-15_17-25-28_260595134347_rgbf000150-resize_1-target.png,2.6785,3.0,1425.0,229.0,271.0,978.0,249.0,512.0,,152007.0,24.0,Woman
2350,572540.0,A338JPSSI0WIKD,DepthScenes,v2_duration_discrimination,discrim_jsons/Discrim250_randls_48.json,http://54.235.29.9/FacialAge/BNav_EC2/DepthDuration/v2_depth_discrimination_MTurk/v2_DepthDiscrim_HTML.html#11,11.0,1366.0,657.0,1366.0,768.0,9-5-2022,-inf,8-44-9,30.0,depth_discrimination_stimuli/001056_2014-06-08_18-46-44_260595134347_rgbf000068-resize_0/001056_2014-06-08_18-46-44_260595134347_rgbf000068-resize_0-target.png,depth_discrimination_stimuli/002199_2014-06-28_18-33-56_260595134347_rgbf000074-resize_0/002199_2014-06-28_18-33-56_260595134347_rgbf000074-resize_0-target.png,250.0,2.6625,0.6665000000000001,depth_discrimination_stimuli/002199_2014-06-28_18-33-56_260595134347_rgbf000074-resize_0/002199_2014-06-28_18-33-56_260595134347_rgbf000074-resize_0-target.png,1.996,3.0,1425.0,9.0,271.0,978.0,249.0,512.0,,152007.0,24.0,Woman
2351,572540.0,A338JPSSI0WIKD,DepthScenes,v2_duration_discrimination,discrim_jsons/Discrim250_randls_48.json,http://54.235.29.9/FacialAge/BNav_EC2/DepthDuration/v2_depth_discrimination_MTurk/v2_DepthDiscrim_HTML.html#11,11.0,1366.0,657.0,1366.0,768.0,9-5-2022,-inf,8-44-9,31.0,depth_discrimination_stimuli/002784_2014-06-22_19-26-30_094959634447_rgbf000083-resize_3/002784_2014-06-22_19-26-30_094959634447_rgbf000083-resize_3-target.png,depth_discrimination_stimuli/001100_2014-06-15_17-46-26_260595134347_rgbf000225-resize_2/001100_2014-06-15_17-46-26_260595134347_rgbf000225-resize_2-target.png,250.0,1.8046666666667,0.43533333333330027,depth_discrimination_stimuli/002784_2014-06-22_19-26-30_094959634447_rgbf000083-resize_3/002784_2014-06-22_19-26-30_094959634447_rgbf000083-resize_3-target.png,2.24,3.0,1425.0,9.0,271.0,978.0,249.0,512.0,,152007.0,24.0,Woman
2352,572540.0,A338JPSSI0WIKD,DepthScenes,v2_duration_discrimination,discrim_jsons/Discrim250_randls_48.json,http://54.235.29.9/FacialAge/BNav_EC2/DepthDuration/v2_depth_discrimination_MTurk/v2_DepthDiscrim_HTML.html#11,11.0,1366.0,657.0,1366.0,768.0,9-5-2022,-inf,8-44-9,32.0,depth_discrimination_stimuli/001167_2014-06-17_15-38-07_260595134347_rgbf000108-resize_0/001167_2014-06-17_15-38-07_260595134347_rgbf000108-resize_0-target.png,depth_discrimination_stimuli/003587_2014-05-23_16-48-02_094959634447_rgbf002384-resize_2/003587_2014-05-23_16-48-02_094959634447_rgbf002384-resize_2-target.png,250.0,1.8505,0.49350000000000005,depth_discrimination_stimuli/003587_2014-05-23_16-48-02_094959634447_rgbf002384-resize_2/003587_2014-05-23_16-48-02_094959634447_rgbf002384-resize_2-target.png,1.357,3.0,1425.0,9.0,271.0,978.0,249.0,512.0,,152007.0,24.0,Woman
2353,572540.0,A338JPSSI0WIKD,DepthScenes,v2_duration_discrimination,discrim_jsons/Discrim250_randls_48.json,http://54.235.29.9/FacialAge/BNav_EC2/DepthDuration/v2_depth_discrimination_MTurk/v2_DepthDiscrim_HTML.html#11,11.0,1366.0,657.0,1366.0,768.0,9-5-2022,-inf,8-44-9,33.0,depth_discrimination_stimuli/003292_2014-05-14_21-53-49_094959634447_rgbf000100-resize_2/003292_2014-05-14_21-53-49_094959634447_rgbf000100-resize_2-target.png,depth_discrimination_stimuli/002639_2014-06-24_14-51-37_094959634447_rgbf000074-resize_4/002639_2014-06-24_14-51-37_094959634447_rgbf000074-resize_4-target.png,250.0,3.4815,0.5559999999999996,depth_discrimination_stimuli/003292_2014-05-14_21-53-49_094959634447_rgbf000100-resize_2/003292_2014-05-14_21-53-49_094959634447_rgbf000100-resize_2-target.png,4.0375,3.0,1425.0,9.0,271.0,978.0,249.0,512.0,,152007.0,24.0,Woman
2354,572540.0,A338JPSSI0WIKD,DepthScenes,v2_duration_discrimination,discrim_jsons/Discrim250_randls_48.json,http://54.235.29.9/FacialAge/BNav_EC2/DepthDuration/v2_depth_discrimination_MTurk/v2_DepthDiscrim_HTML.html#11,11.0,1366.0,657.0,1366.0,768.0,9-5-2022,-inf,8-44-9,34.0,depth_discrimination_stimuli/000917_2014-06-09_22-45-29_260595134347_rgbf000149-resize_3/000917_2014-06-09_22-45-29_260595134347_rgbf000149-resize_3-target.png,depth_discrimination_stimuli/002323_2014-06-28_20-01-54_260595134347_rgbf000051-resize_4/002323_2014-06-28_20-01-54_260595134347_rgbf000051-resize_4-target.png,250.0,4.1865,0.45549999999999935,depth_discrimination_stimuli/002323_2014-06-28_20-01-54_260595134347_rgbf000051-resize_4/002323_2014-06-28_20-01-54_260595134347_rgbf000051-resize_4-target.png,3.7310000000000003,3.0,1425.0,9.0,271.0,978.0,249.0,512.0,,152007.0,24.0,Woman
2355,572540.0,A338JPSSI0WIKD,DepthScenes,v2_duration_discrimination,discrim_jsons/Discrim250_randls_48.json,http://54.235.29.9/FacialAge/BNav_EC2/DepthDuration/v2_depth_discrimination_MTurk/v2_DepthDiscrim_HTML.html#11,11.0,1366.0,657.0,1366.0,768.0,9-5-2022,-inf,8-44-9,35.0,depth_discrimination_stimuli/001029_2014-06-08_13-17-57_260595134347_rgbf000065-resize_1/001029_2014-06-08_13-17-57_260595134347_rgbf000065-resize_1-target.png,depth_discrimination_stimuli/000677_2014-06-08_23-10-32_260595134347_rgbf000158-resize_6/000677_2014-06-08_23-10-32_260595134347_rgbf000158-resize_6-target.png,250.0,3.0835,0.47250000000000014,depth_discrimination_stimuli/001029_2014-06-08_13-17-57_260595134347_rgbf000065-resize_1/001029_2014-06-08_13-17-57_260595134347_rgbf000065-resize_1-target.png,3.556,3.0,1425.0,9.0,271.0,978.0,249.0,512.0,,152007.0,24.0,Woman
2357,572540.0,A338JPSSI0WIKD,DepthScenes,v2_duration_discrimination,discrim_jsons/Discrim250_randls_48.json,http://54.235.29.9/FacialAge/BNav_EC2/DepthDuration/v2_depth_discrimination_MTurk/v2_DepthDiscrim_HTML.html#11,11.0,1366.0,657.0,1366.0,768.0,9-5-2022,-inf,8-44-9,37.0,depth_discrimination_stimuli/002549_2014-06-24_13-41-39_094959634447_rgbf000022-resize_3/002549_2014-06-24_13-41-39_094959634447_rgbf000022-resize_3-target.png,depth_discrimination_stimuli/002750_2014-06-22_19-08-03_094959634447_rgbf000094-resize_4/002750_2014-06-22_19-08-03_094959634447_rgbf000094-resize_4-target.png,250.0,1.476,0.8780000000000001,depth_discrimination_stimuli/002549_2014-06-24_13-41-39_094959634447_rgbf000022-resize_3/002549_2014-06-24_13-41-39_094959634447_rgbf000022-resize_3-target.png,2.354,3.0,1425.0,9.0,271.0,978.0,249.0,512.0,,152007.0,24.0,Woman
2358,572540.0,A338JPSSI0WIKD,DepthScenes,v2_duration_discrimination,discrim_jsons/Discrim250_randls_48.json,http://54.235.29.9/FacialAge/BNav_EC2/DepthDuration/v2_depth_discrimination_MTurk/v2_DepthDiscrim_HTML.html#11,11.0,1366.0,657.0,1366.0,768.0,9-5-2022,-inf,8-44-9,38.0,depth_discrimination_stimuli/002788_2014-06-22_19-36-03_094959634447_rgbf000088-resize_2/002788_2014-06-22_19-36-03_094959634447_rgbf000088-resize_2-target.png,depth_discrimination_stimuli/000749_2014-06-08_21-55-06_260595134347_rgbf000070-resize_2/000749_2014-06-08_21-55-06_260595134347_rgbf000070-resize_2-target.png,250.0,1.6465,0.6844999999999999,depth_discrimination_stimuli/002788_2014-06-22_19-36-03_094959634447_rgbf000088-resize_2/002788_2014-06-22_19-36-03_094959634447_rgbf000088-resize_2-target.png,2.331,3.0,1425.0,84.0,271.0,978.0,249.0,512.0,,152007.0,24.0,Woman
2359,572540.0,A338JPSSI0WIKD,DepthScenes,v2_duration_discrimination,discrim_jsons/Discrim250_randls_48.json,http://54.235.29.9/FacialAge/BNav_EC2/DepthDuration/v2_depth_discrimination_MTurk/v2_DepthDiscrim_HTML.html#11,11.0,1366.0,657.0,1366.0,768.0,9-5-2022,-inf,8-44-9,39.0,depth_discrimination_stimuli/001011_2014-06-08_23-18-54_260595134347_rgbf000044-resize_4/001011_2014-06-08_23-18-54_260595134347_rgbf000044-resize_4-target.png,depth_discrimination_stimuli/002875_2014-06-01_15-19-00_094959634447_rgbf000151-resize_1/002875_2014-06-01_15-19-00_094959634447_rgbf000151-resize_1-target.png,250.0,2.4730000000000003,0.5055000000000003,depth_discrimination_stimuli/002875_2014-06-01_15-19-00_094959634447_rgbf000151-resize_1/002875_2014-06-01_15-19-00_094959634447_rgbf000151-resize_1-target.png,1.9675,3.0,1425.0,84.0,271.0,978.0,249.0,512.0,,152007.0,24.0,Woman
2360,572540.0,A338JPSSI0WIKD,DepthScenes,v2_duration_discrimination,discrim_jsons/Discrim250_randls_48.json,http://54.235.29.9/FacialAge/BNav_EC2/DepthDuration/v2_depth_discrimination_MTurk/v2_DepthDiscrim_HTML.html#11,11.0,1366.0,657.0,1366.0,768.0,9-5-2022,-inf,8-44-9,40.0,depth_discrimination_stimuli/002153_2014-06-25_21-27-18_260595134347_rgbf000038-resize_5/002153_2014-06-25_21-27-18_260595134347_rgbf000038-resize_5-target.png,depth_discrimination_stimuli/002660_2014-06-13_15-44-18_094959634447_rgbf001878-resize_2/002660_2014-06-13_15-44-18_094959634447_rgbf001878-resize_2-target.png,250.0,2.505,1.0710000000000002,depth_discrimination_stimuli/002153_2014-06-25_21-27-18_260595134347_rgbf000038-resize_5/002153_2014-06-25_21-27-18_260595134347_rgbf000038-resize_5-target.png,3.576,3.0,1425.0,84.0,271.0,978.0,249.0,512.0,,152007.0,24.0,Woman
2361,572540.0,A338JPSSI0WIKD,DepthScenes,v2_duration_discrimination,discrim_jsons/Discrim250_randls_48.json,http://54.235.29.9/FacialAge/BNav_EC2/DepthDuration/v2_depth_discrimination_MTurk/v2_DepthDiscrim_HTML.html#11,11.0,1366.0,657.0,1366.0,768.0,9-5-2022,-inf,8-44-9,41.0,depth_discrimination_stimuli/002570_2014-06-24_13-59-54_094959634447_rgbf000059-resize_0/002570_2014-06-24_13-59-54_094959634447_rgbf000059-resize_0-target.png,depth_discrimination_stimuli/002467_2014-06-28_20-38-07_260595134347_rgbf000026-resize_2/002467_2014-06-28_20-38-07_260595134347_rgbf000026-resize_2-target.png,250.0,4.037,0.7050000000000001,depth_discrimination_stimuli/002570_2014-06-24_13-59-54_094959634447_rgbf000059-resize_0/002570_2014-06-24_13-59-54_094959634447_rgbf000059-resize_0-target.png,4.742,3.0,1425.0,84.0,271.0,978.0,249.0,512.0,,152007.0,24.0,Woman
2362,572540.0,A338JPSSI0WIKD,DepthScenes,v2_duration_discrimination,discrim_jsons/Discrim250_randls_48.json,http://54.235.29.9/FacialAge/BNav_EC2/DepthDuration/v2_depth_discrimination_MTurk/v2_DepthDiscrim_HTML.html#11,11.0,1366.0,657.0,1366.0,768.0,9-5-2022,-inf,8-44-9,42.0,depth_discrimination_stimuli/001066_2014-06-08_22-03-20_260595134347_rgbf000066-resize_4/001066_2014-06-08_22-03-20_260595134347_rgbf000066-resize_4-target.png,depth_discrimination_stimuli/000742_2014-06-08_18-48-09_260595134347_rgbf000164-resize_4/000742_2014-06-08_18-48-09_260595134347_rgbf000164-resize_4-target.png,250.0,4.2330000000000005,0.39899999999999913,depth_discrimination_stimuli/001066_2014-06-08_22-03-20_260595134347_rgbf000066-resize_4/001066_2014-06-08_22-03-20_260595134347_rgbf000066-resize_4-target.png,4.632,3.0,1425.0,84.0,271.0,978.0,249.0,512.0,,152007.0,24.0,Woman
2363,572540.0,A338JPSSI0WIKD,DepthScenes,v2_duration_discrimination,discrim_jsons/Discrim250_randls_48.json,http://54.235.29.9/FacialAge/BNav_EC2/DepthDuration/v2_depth_discrimination_MTurk/v2_DepthDiscrim_HTML.html#11,11.0,1366.0,657.0,1366.0,768.0,9-5-2022,-inf,8-44-9,43.0,depth_discrimination_stimuli/000436_2014-06-09_22-25-11_260595134347_rgbf000137-resize_1/000436_2014-06-09_22-25-11_260595134347_rgbf000137-resize_1-target.png,depth_discrimination_stimuli/002444_2014-06-28_20-32-08_260595134347_rgbf000027-resize_0/002444_2014-06-28_20-32-08_260595134347_rgbf000027-resize_0-target.png,250.0,4.0705,0.31849999999999934,depth_discrimination_stimuli/000436_2014-06-09_22-25-11_260595134347_rgbf000137-resize_1/000436_2014-06-09_22-25-11_260595134347_rgbf000137-resize_1-target.png,4.388999999999999,3.0,1425.0,84.0,271.0,978.0,249.0,512.0,,152007.0,24.0,Woman
2364,572540.0,A338JPSSI0WIKD,DepthScenes,v2_duration_discrimination,discrim_jsons/Discrim250_randls_48.json,http://54.235.29.9/FacialAge/BNav_EC2/DepthDuration/v2_depth_discrimination_MTurk/v2_DepthDiscrim_HTML.html#11,11.0,1366.0,657.0,1366.0,768.0,9-5-2022,-inf,8-44-9,44.0,depth_discrimination_stimuli/000682_2014-06-08_23-14-58_260595134347_rgbf000041-resize_5/000682_2014-06-08_23-14-58_260595134347_rgbf000041-resize_5-target.png,depth_discrimination_stimuli/001650_2014-06-20_12-09-00_260595134347_rgbf000087-resize_3/001650_2014-06-20_12-09-00_260595134347_rgbf000087-resize_3-target.png,250.0,2.7239999999999998,0.7734999999999999,depth_discrimination_stimuli/001650_2014-06-20_12-09-00_260595134347_rgbf000087-resize_3/001650_2014-06-20_12-09-00_260595134347_rgbf000087-resize_3-target.png,1.9505,3.0,1425.0,84.0,271.0,978.0,249.0,512.0,,152007.0,24.0,Woman
2365,572540.0,A338JPSSI0WIKD,DepthScenes,v2_duration_discrimination,discrim_jsons/Discrim250_randls_48.json,http://54.235.29.9/FacialAge/BNav_EC2/DepthDuration/v2_depth_discrimination_MTurk/v2_DepthDiscrim_HTML.html#11,11.0,1366.0,657.0,1366.0,768.0,9-5-2022,-inf,8-44-9,45.0,depth_discrimination_stimuli/001092_2014-06-15_17-34-58_260595134347_rgbf000171-resize_3/001092_2014-06-15_17-34-58_260595134347_rgbf000171-resize_3-target.png,depth_discrimination_stimuli/002545_2014-06-24_13-38-53_094959634447_rgbf000080-resize_4/002545_2014-06-24_13-38-53_094959634447_rgbf000080-resize_4-target.png,250.0,2.6935,0.7729999999999997,depth_discrimination_stimuli/002545_2014-06-24_13-38-53_094959634447_rgbf000080-resize_4/002545_2014-06-24_13-38-53_094959634447_rgbf000080-resize_4-target.png,1.9205,3.0,1425.0,84.0,271.0,978.0,249.0,512.0,,152007.0,24.0,Woman
2366,572540.0,A338JPSSI0WIKD,DepthScenes,v2_duration_discrimination,discrim_jsons/Discrim250_randls_48.json,http://54.235.29.9/FacialAge/BNav_EC2/DepthDuration/v2_depth_discrimination_MTurk/v2_DepthDiscrim_HTML.html#11,11.0,1366.0,657.0,1366.0,768.0,9-5-2022,-inf,8-44-9,46.0,depth_discrimination_stimuli/000486_2014-06-09_20-47-20_260595134347_rgbf000143-resize_2/000486_2014-06-09_20-47-20_260595134347_rgbf000143-resize_2-target.png,depth_discrimination_stimuli/003083_2014-06-15_15-21-03_094959634447_rgbf000063-resize_1/003083_2014-06-15_15-21-03_094959634447_rgbf000063-resize_1-target.png,250.0,4.8325,0.6919999999999993,depth_discrimination_stimuli/003083_2014-06-15_15-21-03_094959634447_rgbf000063-resize_1/003083_2014-06-15_15-21-03_094959634447_rgbf000063-resize_1-target.png,4.1405,3.0,1425.0,144.0,45.0,978.0,249.0,512.0,,152007.0,24.0,Woman
2367,572540.0,A338JPSSI0WIKD,DepthScenes,v2_duration_discrimination,discrim_jsons/Discrim250_randls_48.json,http://54.235.29.9/FacialAge/BNav_EC2/DepthDuration/v2_depth_discrimination_MTurk/v2_DepthDiscrim_HTML.html#11,11.0,1366.0,657.0,1366.0,768.0,9-5-2022,-inf,8-44-9,47.0,depth_discrimination_stimuli/002445_2014-06-28_20-32-16_260595134347_rgbf000029-resize_4/002445_2014-06-28_20-32-16_260595134347_rgbf000029-resize_4-target.png,depth_discrimination_stimuli/000780_2014-06-08_22-28-29_260595134347_rgbf000126-resize_1/000780_2014-06-08_22-28-29_260595134347_rgbf000126-resize_1-target.png,250.0,2.5315,0.851,depth_discrimination_stimuli/002445_2014-06-28_20-32-16_260595134347_rgbf000029-resize_4/002445_2014-06-28_20-32-16_260595134347_rgbf000029-resize_4-target.png,3.3825,3.0,1425.0,144.0,45.0,978.0,249.0,512.0,,152007.0,24.0,Woman
2368,572540.0,A338JPSSI0WIKD,DepthScenes,v2_duration_discrimination,discrim_jsons/Discrim250_randls_48.json,http://54.235.29.9/FacialAge/BNav_EC2/DepthDuration/v2_depth_discrimination_MTurk/v2_DepthDiscrim_HTML.html#11,11.0,1366.0,657.0,1366.0,768.0,9-5-2022,-inf,8-44-9,48.0,depth_discrimination_stimuli/002763_2014-06-22_19-13-10_094959634447_rgbf000075-resize_4/002763_2014-06-22_19-13-10_094959634447_rgbf000075-resize_4-target.png,depth_discrimination_stimuli/002209_2014-06-28_18-36-10_260595134347_rgbf000051-resize_1/002209_2014-06-28_18-36-10_260595134347_rgbf000051-resize_1-target.png,250.0,1.68375,0.37324999999999986,depth_discrimination_stimuli/002763_2014-06-22_19-13-10_094959634447_rgbf000075-resize_4/002763_2014-06-22_19-13-10_094959634447_rgbf000075-resize_4-target.png,2.057,3.0,1425.0,144.0,45.0,978.0,249.0,512.0,,152007.0,24.0,Woman
2369,572540.0,A338JPSSI0WIKD,DepthScenes,v2_duration_discrimination,discrim_jsons/Discrim250_randls_48.json,http://54.235.29.9/FacialAge/BNav_EC2/DepthDuration/v2_depth_discrimination_MTurk/v2_DepthDiscrim_HTML.html#11,11.0,1366.0,657.0,1366.0,768.0,9-5-2022,-inf,8-44-9,49.0,depth_discrimination_stimuli/001570_2014-06-20_17-21-09_260595134347_rgbf000135-resize_4/001570_2014-06-20_17-21-09_260595134347_rgbf000135-resize_4-target.png,depth_discrimination_stimuli/001392_2014-06-19_16-07-59_260595134347_rgbf000046-resize_1/001392_2014-06-19_16-07-59_260595134347_rgbf000046-resize_1-target.png,250.0,4.467,0.33199999999999985,depth_discrimination_stimuli/001392_2014-06-19_16-07-59_260595134347_rgbf000046-resize_1/001392_2014-06-19_16-07-59_260595134347_rgbf000046-resize_1-target.png,4.135,3.0,1425.0,144.0,45.0,978.0,249.0,512.0,,152007.0,24.0,Woman
2370,572540.0,A338JPSSI0WIKD,DepthScenes,v2_duration_discrimination,discrim_jsons/Discrim250_randls_48.json,http://54.235.29.9/FacialAge/BNav_EC2/DepthDuration/v2_depth_discrimination_MTurk/v2_DepthDiscrim_HTML.html#11,11.0,1366.0,657.0,1366.0,768.0,9-5-2022,-inf,8-44-9,50.0,depth_discrimination_stimuli/001175_2014-06-17_15-45-55_260595134347_rgbf000129-resize_4/001175_2014-06-17_15-45-55_260595134347_rgbf000129-resize_4-target.png,depth_discrimination_stimuli/003490_2014-05-21_15-50-11_094959634447_rgbf000101-resize_3/003490_2014-05-21_15-50-11_094959634447_rgbf000101-resize_3-target.png,250.0,4.255,0.6105,depth_discrimination_stimuli/003490_2014-05-21_15-50-11_094959634447_rgbf000101-resize_3/003490_2014-05-21_15-50-11_094959634447_rgbf000101-resize_3-target.png,3.6445,3.0,1425.0,144.0,45.0,978.0,249.0,512.0,,152007.0,24.0,Woman
2371,572540.0,A338JPSSI0WIKD,DepthScenes,v2_duration_discrimination,discrim_jsons/Discrim250_randls_48.json,http://54.235.29.9/FacialAge/BNav_EC2/DepthDuration/v2_depth_discrimination_MTurk/v2_DepthDiscrim_HTML.html#11,11.0,1366.0,657.0,1366.0,768.0,9-5-2022,-inf,8-44-9,51.0,depth_discrimination_stimuli/000692_2014-06-08_13-09-42_260595134347_rgbf000199-resize_2/000692_2014-06-08_13-09-42_260595134347_rgbf000199-resize_2-target.png,depth_discrimination_stimuli/001094_2014-06-15_17-36-00_260595134347_rgbf000205-resize_0/001094_2014-06-15_17-36-00_260595134347_rgbf000205-resize_0-target.png,250.0,3.661,0.5565000000000002,depth_discrimination_stimuli/000692_2014-06-08_13-09-42_260595134347_rgbf000199-resize_2/000692_2014-06-08_13-09-42_260595134347_rgbf000199-resize_2-target.png,4.2175,3.0,1425.0,144.0,45.0,978.0,249.0,512.0,,152007.0,24.0,Woman
2372,572540.0,A338JPSSI0WIKD,DepthScenes,v2_duration_discrimination,discrim_jsons/Discrim250_randls_48.json,http://54.235.29.9/FacialAge/BNav_EC2/DepthDuration/v2_depth_discrimination_MTurk/v2_DepthDiscrim_HTML.html#11,11.0,1366.0,657.0,1366.0,768.0,9-5-2022,-inf,8-44-9,52.0,depth_discrimination_stimuli/000810_2014-06-08_17-20-01_260595134347_rgbf000105-resize_0/000810_2014-06-08_17-20-01_260595134347_rgbf000105-resize_0-target.png,depth_discrimination_stimuli/001214_2014-06-17_16-13-55_260595134347_rgbf000111-resize_0/001214_2014-06-17_16-13-55_260595134347_rgbf000111-resize_0-target.png,250.0,1.4865,1.1640000000000001,depth_discrimination_stimuli/000810_2014-06-08_17-20-01_260595134347_rgbf000105-resize_0/000810_2014-06-08_17-20-01_260595134347_rgbf000105-resize_0-target.png,2.6505,3.0,1425.0,144.0,45.0,978.0,249.0,512.0,,152007.0,24.0,Woman
2374,572540.0,A338JPSSI0WIKD,DepthScenes,v2_duration_discrimination,discrim_jsons/Discrim250_randls_48.json,http://54.235.29.9/FacialAge/BNav_EC2/DepthDuration/v2_depth_discrimination_MTurk/v2_DepthDiscrim_HTML.html#11,11.0,1366.0,657.0,1366.0,768.0,9-5-2022,-inf,8-44-9,54.0,depth_discrimination_stimuli/001016_2014-06-09_16-16-10_260595134347_rgbf000112-resize_5/001016_2014-06-09_16-16-10_260595134347_rgbf000112-resize_5-target.png,depth_discrimination_stimuli/002340_2014-06-28_20-05-46_260595134347_rgbf000113-resize_0/002340_2014-06-28_20-05-46_260595134347_rgbf000113-resize_0-target.png,250.0,1.6565,0.817,depth_discrimination_stimuli/001016_2014-06-09_16-16-10_260595134347_rgbf000112-resize_5/001016_2014-06-09_16-16-10_260595134347_rgbf000112-resize_5-target.png,2.4735,3.0,1425.0,144.0,45.0,978.0,249.0,512.0,,152007.0,24.0,Woman
2375,572540.0,A338JPSSI0WIKD,DepthScenes,v2_duration_discrimination,discrim_jsons/Discrim250_randls_48.json,http://54.235.29.9/FacialAge/BNav_EC2/DepthDuration/v2_depth_discrimination_MTurk/v2_DepthDiscrim_HTML.html#11,11.0,1366.0,657.0,1366.0,768.0,9-5-2022,-inf,8-44-9,55.0,depth_discrimination_stimuli/000739_2014-06-08_18-45-58_260595134347_rgbf000068-resize_1/000739_2014-06-08_18-45-58_260595134347_rgbf000068-resize_1-target.png,depth_discrimination_stimuli/000734_2014-06-08_17-39-11_260595134347_rgbf000128-resize_2/000734_2014-06-08_17-39-11_260595134347_rgbf000128-resize_2-target.png,250.0,3.534,0.5640000000000001,depth_discrimination_stimuli/000739_2014-06-08_18-45-58_260595134347_rgbf000068-resize_1/000739_2014-06-08_18-45-58_260595134347_rgbf000068-resize_1-target.png,4.098,3.0,1425.0,144.0,45.0,978.0,249.0,512.0,,152007.0,24.0,Woman
2376,572540.0,A338JPSSI0WIKD,DepthScenes,v2_duration_discrimination,discrim_jsons/Discrim250_randls_48.json,http://54.235.29.9/FacialAge/BNav_EC2/DepthDuration/v2_depth_discrimination_MTurk/v2_DepthDiscrim_HTML.html#11,11.0,1366.0,657.0,1366.0,768.0,9-5-2022,-inf,8-44-9,56.0,depth_discrimination_stimuli/000009_2014-05-26_14-32-05_260595134347_rgbf000034-resize_3/000009_2014-05-26_14-32-05_260595134347_rgbf000034-resize_3-target.png,depth_discrimination_stimuli/001828_2014-06-26_21-40-03_260595134347_rgbf000024-resize_0/001828_2014-06-26_21-40-03_260595134347_rgbf000024-resize_0-target.png,250.0,3.8715,0.9545000000000003,depth_discrimination_stimuli/000009_2014-05-26_14-32-05_260595134347_rgbf000034-resize_3/000009_2014-05-26_14-32-05_260595134347_rgbf000034-resize_3-target.png,4.8260000000000005,3.0,1425.0,144.0,45.0,978.0,249.0,512.0,,152007.0,24.0,Woman
2377,572540.0,A338JPSSI0WIKD,DepthScenes,v2_duration_discrimination,discrim_jsons/Discrim250_randls_48.json,http://54.235.29.9/FacialAge/BNav_EC2/DepthDuration/v2_depth_discrimination_MTurk/v2_DepthDiscrim_HTML.html#11,11.0,1366.0,657.0,1366.0,768.0,9-5-2022,-inf,8-44-9,57.0,depth_discrimination_stimuli/000506_2014-06-08_23-21-00_260595134347_rgbf000070-resize_7/000506_2014-06-08_23-21-00_260595134347_rgbf000070-resize_7-target.png,depth_discrimination_stimuli/003079_2014-06-15_15-18-20_094959634447_rgbf000152-resize_8/003079_2014-06-15_15-18-20_094959634447_rgbf000152-resize_8-target.png,250.0,4.0585,1.1810000000000005,depth_discrimination_stimuli/003079_2014-06-15_15-18-20_094959634447_rgbf000152-resize_8/003079_2014-06-15_15-18-20_094959634447_rgbf000152-resize_8-target.png,2.8775,3.0,1425.0,144.0,45.0,978.0,249.0,512.0,,152007.0,24.0,Woman
2378,572540.0,A338JPSSI0WIKD,DepthScenes,v2_duration_discrimination,discrim_jsons/Discrim250_randls_48.json,http://54.235.29.9/FacialAge/BNav_EC2/DepthDuration/v2_depth_discrimination_MTurk/v2_DepthDiscrim_HTML.html#11,11.0,1366.0,657.0,1366.0,768.0,9-5-2022,-inf,8-44-9,58.0,depth_discrimination_stimuli/000878_2014-06-08_22-52-45_260595134347_rgbf000045-resize_2/000878_2014-06-08_22-52-45_260595134347_rgbf000045-resize_2-target.png,depth_discrimination_stimuli/002953_2014-06-08_17-32-18_094959634447_rgbf000059-resize_5/002953_2014-06-08_17-32-18_094959634447_rgbf000059-resize_5-target.png,250.0,2.092,0.5410000000000001,depth_discrimination_stimuli/002953_2014-06-08_17-32-18_094959634447_rgbf000059-resize_5/002953_2014-06-08_17-32-18_094959634447_rgbf000059-resize_5-target.png,1.551,3.0,1425.0,88.0,51.0,978.0,249.0,512.0,,152007.0,24.0,Woman
2379,572540.0,A338JPSSI0WIKD,DepthScenes,v2_duration_discrimination,discrim_jsons/Discrim250_randls_48.json,http://54.235.29.9/FacialAge/BNav_EC2/DepthDuration/v2_depth_discrimination_MTurk/v2_DepthDiscrim_HTML.html#11,11.0,1366.0,657.0,1366.0,768.0,9-5-2022,-inf,8-44-9,59.0,depth_discrimination_stimuli/000470_2014-06-09_19-42-40_260595134347_rgbf000094-resize_1/000470_2014-06-09_19-42-40_260595134347_rgbf000094-resize_1-target.png,depth_discrimination_stimuli/000109_2014-05-14_23-41-52_260595134347_rgbf000035-resize_9/000109_2014-05-14_23-41-52_260595134347_rgbf000035-resize_9-target.png,250.0,1.831,0.4764999999999999,depth_discrimination_stimuli/000109_2014-05-14_23-41-52_260595134347_rgbf000035-resize_9/000109_2014-05-14_23-41-52_260595134347_rgbf000035-resize_9-target.png,1.3545,3.0,1425.0,88.0,51.0,978.0,249.0,512.0,,152007.0,24.0,Woman
2380,572540.0,A338JPSSI0WIKD,DepthScenes,v2_duration_discrimination,discrim_jsons/Discrim250_randls_48.json,http://54.235.29.9/FacialAge/BNav_EC2/DepthDuration/v2_depth_discrimination_MTurk/v2_DepthDiscrim_HTML.html#11,11.0,1366.0,657.0,1366.0,768.0,9-5-2022,-inf,8-44-9,60.0,depth_discrimination_stimuli/000642_2014-06-08_16-59-25_260595134347_rgbf000098-resize_2/000642_2014-06-08_16-59-25_260595134347_rgbf000098-resize_2-target.png,depth_discrimination_stimuli/002425_2014-06-28_20-27-29_260595134347_rgbf000031-resize_8/002425_2014-06-28_20-27-29_260595134347_rgbf000031-resize_8-target.png,250.0,2.8815,1.0145000000000004,depth_discrimination_stimuli/000642_2014-06-08_16-59-25_260595134347_rgbf000098-resize_2/000642_2014-06-08_16-59-25_260595134347_rgbf000098-resize_2-target.png,3.8960000000000004,3.0,1425.0,88.0,51.0,978.0,249.0,512.0,,152007.0,24.0,Woman
2381,572540.0,A338JPSSI0WIKD,DepthScenes,v2_duration_discrimination,discrim_jsons/Discrim250_randls_48.json,http://54.235.29.9/FacialAge/BNav_EC2/DepthDuration/v2_depth_discrimination_MTurk/v2_DepthDiscrim_HTML.html#11,11.0,1366.0,657.0,1366.0,768.0,9-5-2022,-inf,8-44-9,61.0,depth_discrimination_stimuli/002964_2014-06-08_17-46-11_094959634447_rgbf000091-resize_4/002964_2014-06-08_17-46-11_094959634447_rgbf000091-resize_4-target.png,depth_discrimination_stimuli/002136_2014-06-25_21-18-03_260595134347_rgbf000109-resize_3/002136_2014-06-25_21-18-03_260595134347_rgbf000109-resize_3-target.png,250.0,1.6909999999999998,0.266,depth_discrimination_stimuli/002964_2014-06-08_17-46-11_094959634447_rgbf000091-resize_4/002964_2014-06-08_17-46-11_094959634447_rgbf000091-resize_4-target.png,1.9569999999999999,3.0,1425.0,88.0,51.0,978.0,249.0,512.0,,152007.0,24.0,Woman
2383,572540.0,A338JPSSI0WIKD,DepthScenes,v2_duration_discrimination,discrim_jsons/Discrim250_randls_48.json,http://54.235.29.9/FacialAge/BNav_EC2/DepthDuration/v2_depth_discrimination_MTurk/v2_DepthDiscrim_HTML.html#11,11.0,1366.0,657.0,1366.0,768.0,9-5-2022,-inf,8-44-9,63.0,depth_discrimination_stimuli/002043_2014-06-24_20-29-38_260595134347_rgbf000039-resize_4/002043_2014-06-24_20-29-38_260595134347_rgbf000039-resize_4-target.png,depth_discrimination_stimuli/003048_2014-06-15_13-49-43_094959634447_rgbf000150-resize_1/003048_2014-06-15_13-49-43_094959634447_rgbf000150-resize_1-target.png,250.0,2.8435,1.1599999999999997,depth_discrimination_stimuli/002043_2014-06-24_20-29-38_260595134347_rgbf000039-resize_4/002043_2014-06-24_20-29-38_260595134347_rgbf000039-resize_4-target.png,4.0035,3.0,1425.0,12.0,41.0,978.0,249.0,512.0,,152007.0,24.0,Woman
2384,572540.0,A338JPSSI0WIKD,DepthScenes,v2_duration_discrimination,discrim_jsons/Discrim250_randls_48.json,http://54.235.29.9/FacialAge/BNav_EC2/DepthDuration/v2_depth_discrimination_MTurk/v2_DepthDiscrim_HTML.html#11,11.0,1366.0,657.0,1366.0,768.0,9-5-2022,-inf,8-44-9,64.0,depth_discrimination_stimuli/002039_2014-06-24_20-22-38_260595134347_rgbf000084-resize_1/002039_2014-06-24_20-22-38_260595134347_rgbf000084-resize_1-target.png,depth_discrimination_stimuli/002103_2014-06-25_20-00-40_260595134347_rgbf000049-resize_0/002103_2014-06-25_20-00-40_260595134347_rgbf000049-resize_0-target.png,250.0,4.408,0.30299999999999994,depth_discrimination_stimuli/002103_2014-06-25_20-00-40_260595134347_rgbf000049-resize_0/002103_2014-06-25_20-00-40_260595134347_rgbf000049-resize_0-target.png,4.105,3.0,1425.0,12.0,41.0,978.0,249.0,512.0,,152007.0,24.0,Woman
2385,572540.0,A338JPSSI0WIKD,DepthScenes,v2_duration_discrimination,discrim_jsons/Discrim250_randls_48.json,http://54.235.29.9/FacialAge/BNav_EC2/DepthDuration/v2_depth_discrimination_MTurk/v2_DepthDiscrim_HTML.html#11,11.0,1366.0,657.0,1366.0,768.0,9-5-2022,-inf,8-44-9,65.0,depth_discrimination_stimuli/003534_2014-05-22_15-06-10_094959634447_rgbf000102-resize_4/003534_2014-05-22_15-06-10_094959634447_rgbf000102-resize_4-target.png,depth_discrimination_stimuli/002637_2014-06-24_14-51-13_094959634447_rgbf000066-resize_4/002637_2014-06-24_14-51-13_094959634447_rgbf000066-resize_4-target.png,250.0,1.426,0.5695000000000001,depth_discrimination_stimuli/003534_2014-05-22_15-06-10_094959634447_rgbf000102-resize_4/003534_2014-05-22_15-06-10_094959634447_rgbf000102-resize_4-target.png,1.9955,3.0,1425.0,12.0,41.0,978.0,249.0,512.0,,152007.0,24.0,Woman
2386,572540.0,A338JPSSI0WIKD,DepthScenes,v2_duration_discrimination,discrim_jsons/Discrim250_randls_48.json,http://54.235.29.9/FacialAge/BNav_EC2/DepthDuration/v2_depth_discrimination_MTurk/v2_DepthDiscrim_HTML.html#11,11.0,1366.0,657.0,1366.0,768.0,9-5-2022,-inf,8-44-9,66.0,depth_discrimination_stimuli/001199_2014-06-17_16-03-48_260595134347_rgbf000077-resize_0/001199_2014-06-17_16-03-48_260595134347_rgbf000077-resize_0-target.png,depth_discrimination_stimuli/000502_2014-06-08_23-02-32_260595134347_rgbf000063-resize_4/000502_2014-06-08_23-02-32_260595134347_rgbf000063-resize_4-target.png,250.0,3.4375,1.0065,depth_discrimination_stimuli/000502_2014-06-08_23-02-32_260595134347_rgbf000063-resize_4/000502_2014-06-08_23-02-32_260595134347_rgbf000063-resize_4-target.png,2.431,3.0,1425.0,12.0,41.0,978.0,249.0,512.0,,152007.0,24.0,Woman
2387,572540.0,A338JPSSI0WIKD,DepthScenes,v2_duration_discrimination,discrim_jsons/Discrim250_randls_48.json,http://54.235.29.9/FacialAge/BNav_EC2/DepthDuration/v2_depth_discrimination_MTurk/v2_DepthDiscrim_HTML.html#11,11.0,1366.0,657.0,1366.0,768.0,9-5-2022,-inf,8-44-9,67.0,depth_discrimination_stimuli/000469_2014-06-09_19-42-10_260595134347_rgbf000081-resize_1/000469_2014-06-09_19-42-10_260595134347_rgbf000081-resize_1-target.png,depth_discrimination_stimuli/000483_2014-06-09_20-41-45_260595134347_rgbf000116-resize_4/000483_2014-06-09_20-41-45_260595134347_rgbf000116-resize_4-target.png,250.0,1.652,0.31499999999999995,depth_discrimination_stimuli/000483_2014-06-09_20-41-45_260595134347_rgbf000116-resize_4/000483_2014-06-09_20-41-45_260595134347_rgbf000116-resize_4-target.png,1.337,3.0,1425.0,12.0,41.0,978.0,249.0,512.0,,152007.0,24.0,Woman
2388,572540.0,A338JPSSI0WIKD,DepthScenes,v2_duration_discrimination,discrim_jsons/Discrim250_randls_48.json,http://54.235.29.9/FacialAge/BNav_EC2/DepthDuration/v2_depth_discrimination_MTurk/v2_DepthDiscrim_HTML.html#11,11.0,1366.0,657.0,1366.0,768.0,9-5-2022,-inf,8-44-9,68.0,depth_discrimination_stimuli/000758_2014-06-08_22-05-08_260595134347_rgbf000085-resize_0/000758_2014-06-08_22-05-08_260595134347_rgbf000085-resize_0-target.png,depth_discrimination_stimuli/000854_2014-06-09_19-43-13_260595134347_rgbf000066-resize_0/000854_2014-06-09_19-43-13_260595134347_rgbf000066-resize_0-target.png,250.0,3.3810000000000002,0.31300000000000017,depth_discrimination_stimuli/000854_2014-06-09_19-43-13_260595134347_rgbf000066-resize_0/000854_2014-06-09_19-43-13_260595134347_rgbf000066-resize_0-target.png,3.068,3.0,1425.0,12.0,41.0,978.0,249.0,512.0,,152007.0,24.0,Woman
2389,572540.0,A338JPSSI0WIKD,DepthScenes,v2_duration_discrimination,discrim_jsons/Discrim250_randls_48.json,http://54.235.29.9/FacialAge/BNav_EC2/DepthDuration/v2_depth_discrimination_MTurk/v2_DepthDiscrim_HTML.html#11,11.0,1366.0,657.0,1366.0,768.0,9-5-2022,-inf,8-44-9,69.0,depth_discrimination_stimuli/002118_2014-06-25_20-32-08_260595134347_rgbf000078-resize_1/002118_2014-06-25_20-32-08_260595134347_rgbf000078-resize_1-target.png,depth_discrimination_stimuli/001516_2014-06-20_16-25-09_260595134347_rgbf000076-resize_2/001516_2014-06-20_16-25-09_260595134347_rgbf000076-resize_2-target.png,250.0,2.6460000000000004,0.9015000000000004,depth_discrimination_stimuli/001516_2014-06-20_16-25-09_260595134347_rgbf000076-resize_2/001516_2014-06-20_16-25-09_260595134347_rgbf000076-resize_2-target.png,1.7445,3.0,1425.0,12.0,41.0,978.0,249.0,512.0,,152007.0,24.0,Woman
2390,572540.0,A338JPSSI0WIKD,DepthScenes,v2_duration_discrimination,discrim_jsons/Discrim250_randls_48.json,http://54.235.29.9/FacialAge/BNav_EC2/DepthDuration/v2_depth_discrimination_MTurk/v2_DepthDiscrim_HTML.html#11,11.0,1366.0,657.0,1366.0,768.0,9-5-2022,-inf,8-44-9,70.0,depth_discrimination_stimuli/001810_2014-06-26_20-51-35_260595134347_rgbf000040-resize_3/001810_2014-06-26_20-51-35_260595134347_rgbf000040-resize_3-target.png,depth_discrimination_stimuli/003010_2014-06-15_12-54-35_094959634447_rgbf000112-resize_0/003010_2014-06-15_12-54-35_094959634447_rgbf000112-resize_0-target.png,250.0,2.2525,0.8660000000000001,depth_discrimination_stimuli/001810_2014-06-26_20-51-35_260595134347_rgbf000040-resize_3/001810_2014-06-26_20-51-35_260595134347_rgbf000040-resize_3-target.png,3.1185,3.0,1425.0,12.0,41.0,978.0,249.0,512.0,,152007.0,24.0,Woman
2391,572540.0,A338JPSSI0WIKD,DepthScenes,v2_duration_discrimination,discrim_jsons/Discrim250_randls_48.json,http://54.235.29.9/FacialAge/BNav_EC2/DepthDuration/v2_depth_discrimination_MTurk/v2_DepthDiscrim_HTML.html#11,11.0,1366.0,657.0,1366.0,768.0,9-5-2022,-inf,8-44-9,71.0,depth_discrimination_stimuli/002375_2014-06-28_20-13-44_260595134347_rgbf000032-resize_1/002375_2014-06-28_20-13-44_260595134347_rgbf000032-resize_1-target.png,depth_discrimination_stimuli/002657_2014-06-13_15-29-54_094959634447_rgbf000150-resize_1/002657_2014-06-13_15-29-54_094959634447_rgbf000150-resize_1-target.png,250.0,4.0175,0.9014999999999995,depth_discrimination_stimuli/002375_2014-06-28_20-13-44_260595134347_rgbf000032-resize_1/002375_2014-06-28_20-13-44_260595134347_rgbf000032-resize_1-target.png,4.919,3.0,1425.0,12.0,41.0,978.0,249.0,512.0,,152007.0,24.0,Woman
2393,572540.0,A338JPSSI0WIKD,DepthScenes,v2_duration_discrimination,discrim_jsons/Discrim250_randls_48.json,http://54.235.29.9/FacialAge/BNav_EC2/DepthDuration/v2_depth_discrimination_MTurk/v2_DepthDiscrim_HTML.html#11,11.0,1366.0,657.0,1366.0,768.0,9-5-2022,-inf,8-44-9,73.0,depth_discrimination_stimuli/001244_2014-06-17_16-47-45_260595134347_rgbf000030-resize_4/001244_2014-06-17_16-47-45_260595134347_rgbf000030-resize_4-target.png,depth_discrimination_stimuli/003495_2014-05-21_16-01-51_094959634447_rgbf000100-resize_3/003495_2014-05-21_16-01-51_094959634447_rgbf000100-resize_3-target.png,250.0,2.0425,0.41700000000000004,depth_discrimination_stimuli/003495_2014-05-21_16-01-51_094959634447_rgbf000100-resize_3/003495_2014-05-21_16-01-51_094959634447_rgbf000100-resize_3-target.png,1.6255,3.0,1425.0,12.0,41.0,978.0,249.0,512.0,,152007.0,24.0,Woman
2394,572540.0,A338JPSSI0WIKD,DepthScenes,v2_duration_discrimination,discrim_jsons/Discrim250_randls_48.json,http://54.235.29.9/FacialAge/BNav_EC2/DepthDuration/v2_depth_discrimination_MTurk/v2_DepthDiscrim_HTML.html#11,11.0,1349.0,657.0,1366.0,768.0,9-5-2022,-inf,8-44-9,74.0,depth_discrimination_stimuli/001806_2014-06-26_20-50-20_260595134347_rgbf000091-resize_1/001806_2014-06-26_20-50-20_260595134347_rgbf000091-resize_1-target.png,depth_discrimination_stimuli/001617_2014-06-20_11-35-32_260595134347_rgbf000066-resize_1/001617_2014-06-20_11-35-32_260595134347_rgbf000066-resize_1-target.png,250.0,2.7305,1.0605000000000002,depth_discrimination_stimuli/001806_2014-06-26_20-50-20_260595134347_rgbf000091-resize_1/001806_2014-06-26_20-50-20_260595134347_rgbf000091-resize_1-target.png,3.7910000000000004,3.0,1425.0,164.0,1.0,978.0,249.0,512.0,,152007.0,24.0,Woman
2395,572540.0,A338JPSSI0WIKD,DepthScenes,v2_duration_discrimination,discrim_jsons/Discrim250_randls_48.json,http://54.235.29.9/FacialAge/BNav_EC2/DepthDuration/v2_depth_discrimination_MTurk/v2_DepthDiscrim_HTML.html#11,11.0,1366.0,657.0,1366.0,768.0,9-5-2022,-inf,8-44-9,75.0,depth_discrimination_stimuli/001150_2014-06-17_15-27-34_260595134347_rgbf000108-resize_2/001150_2014-06-17_15-27-34_260595134347_rgbf000108-resize_2-target.png,depth_discrimination_stimuli/000665_2014-06-09_20-42-35_260595134347_rgbf000110-resize_1/000665_2014-06-09_20-42-35_260595134347_rgbf000110-resize_1-target.png,250.0,4.0325,0.9754999999999998,depth_discrimination_stimuli/000665_2014-06-09_20-42-35_260595134347_rgbf000110-resize_1/000665_2014-06-09_20-42-35_260595134347_rgbf000110-resize_1-target.png,3.057,3.0,1425.0,0.0,1.0,978.0,249.0,512.0,,152007.0,24.0,Woman
2396,572540.0,A338JPSSI0WIKD,DepthScenes,v2_duration_discrimination,discrim_jsons/Discrim250_randls_48.json,http://54.235.29.9/FacialAge/BNav_EC2/DepthDuration/v2_depth_discrimination_MTurk/v2_DepthDiscrim_HTML.html#11,11.0,1349.0,657.0,1366.0,768.0,9-5-2022,-inf,8-44-9,76.0,depth_discrimination_stimuli/000522_2014-06-08_13-35-06_260595134347_rgbf000244-resize_1/000522_2014-06-08_13-35-06_260595134347_rgbf000244-resize_1-target.png,depth_discrimination_stimuli/002949_2014-06-26_15-57-42_094959634447_rgbf000079-resize_1/002949_2014-06-26_15-57-42_094959634447_rgbf000079-resize_1-target.png,250.0,2.3715,0.4800000000000002,depth_discrimination_stimuli/002949_2014-06-26_15-57-42_094959634447_rgbf000079-resize_1/002949_2014-06-26_15-57-42_094959634447_rgbf000079-resize_1-target.png,1.8915,3.0,1425.0,1.0,1.0,978.0,249.0,512.0,,152007.0,24.0,Woman
2397,572540.0,A338JPSSI0WIKD,DepthScenes,v2_duration_discrimination,discrim_jsons/Discrim250_randls_48.json,http://54.235.29.9/FacialAge/BNav_EC2/DepthDuration/v2_depth_discrimination_MTurk/v2_DepthDiscrim_HTML.html#11,11.0,1366.0,657.0,1366.0,768.0,9-5-2022,-inf,8-44-9,77.0,depth_discrimination_stimuli/000906_2014-06-08_13-35-43_260595134347_rgbf000155-resize_1/000906_2014-06-08_13-35-43_260595134347_rgbf000155-resize_1-target.png,depth_discrimination_stimuli/002805_2014-06-22_19-54-03_094959634447_rgbf000079-resize_1/002805_2014-06-22_19-54-03_094959634447_rgbf000079-resize_1-target.png,250.0,2.8489999999999998,0.29499999999999993,depth_discrimination_stimuli/000906_2014-06-08_13-35-43_260595134347_rgbf000155-resize_1/000906_2014-06-08_13-35-43_260595134347_rgbf000155-resize_1-target.png,3.1439999999999997,3.0,1425.0,1.0,1.0,978.0,249.0,512.0,,152007.0,24.0,Woman
2399,572540.0,A338JPSSI0WIKD,DepthScenes,v2_duration_discrimination,discrim_jsons/Discrim250_randls_48.json,http://54.235.29.9/FacialAge/BNav_EC2/DepthDuration/v2_depth_discrimination_MTurk/v2_DepthDiscrim_HTML.html#11,11.0,1366.0,657.0,1366.0,768.0,9-5-2022,-inf,8-44-9,79.0,depth_discrimination_stimuli/001449_2014-06-19_17-01-27_260595134347_rgbf000116-resize_2/001449_2014-06-19_17-01-27_260595134347_rgbf000116-resize_2-target.png,depth_discrimination_stimuli/001450_2014-06-19_17-02-03_260595134347_rgbf000203-resize_4/001450_2014-06-19_17-02-03_260595134347_rgbf000203-resize_4-target.png,250.0,3.452,0.5586666666667002,depth_discrimination_stimuli/001449_2014-06-19_17-01-27_260595134347_rgbf000116-resize_2/001449_2014-06-19_17-01-27_260595134347_rgbf000116-resize_2-target.png,4.0106666666667,3.0,1425.0,1.0,1.0,978.0,249.0,512.0,,152007.0,24.0,Woman
2400,572540.0,A338JPSSI0WIKD,DepthScenes,v2_duration_discrimination,discrim_jsons/Discrim250_randls_48.json,http://54.235.29.9/FacialAge/BNav_EC2/DepthDuration/v2_depth_discrimination_MTurk/v2_DepthDiscrim_HTML.html#11,11.0,1366.0,657.0,1366.0,768.0,9-5-2022,-inf,8-44-9,80.0,depth_discrimination_stimuli/002988_2014-06-15_12-24-20_094959634447_rgbf000150-resize_1/002988_2014-06-15_12-24-20_094959634447_rgbf000150-resize_1-target.png,depth_discrimination_stimuli/001052_2014-06-08_18-24-54_260595134347_rgbf000130-resize_1/001052_2014-06-08_18-24-54_260595134347_rgbf000130-resize_1-target.png,250.0,4.7669999999999995,0.6624999999999996,depth_discrimination_stimuli/001052_2014-06-08_18-24-54_260595134347_rgbf000130-resize_1/001052_2014-06-08_18-24-54_260595134347_rgbf000130-resize_1-target.png,4.1045,3.0,1425.0,1.0,1.0,978.0,249.0,512.0,,152007.0,24.0,Woman
2401,572540.0,A338JPSSI0WIKD,DepthScenes,v2_duration_discrimination,discrim_jsons/Discrim250_randls_48.json,http://54.235.29.9/FacialAge/BNav_EC2/DepthDuration/v2_depth_discrimination_MTurk/v2_DepthDiscrim_HTML.html#11,11.0,1366.0,657.0,1366.0,768.0,9-5-2022,-inf,8-44-9,81.0,depth_discrimination_stimuli/002905_2014-06-03_18-04-43_094959634447_rgbf000151-resize_2/002905_2014-06-03_18-04-43_094959634447_rgbf000151-resize_2-target.png,depth_discrimination_stimuli/003423_2014-05-21_10-23-26_094959634447_rgbf002665-resize_2/003423_2014-05-21_10-23-26_094959634447_rgbf002665-resize_2-target.png,250.0,2.0295,1.2279999999999998,depth_discrimination_stimuli/002905_2014-06-03_18-04-43_094959634447_rgbf000151-resize_2/002905_2014-06-03_18-04-43_094959634447_rgbf000151-resize_2-target.png,3.2575,3.0,1425.0,1.0,1.0,978.0,249.0,512.0,,152007.0,24.0,Woman
4300,503864.0,ATJ92FYQX176Z,DepthScenes,v2_duration_discrimination,discrim_jsons/Discrim250_randls_33_rotated.json,http://54.235.29.9/FacialAge/BNav_EC2/DepthDuration/v2_depth_discrimination_MTurk/v2_DepthDiscrim_HTML.html#372,372.0,1536.0,739.0,1536.0,864.0,9-6-2022,-0.6037319277580881,14-9-10,1.0,depth_discrimination_stimuli/002414_2014-06-28_20-24-58_260595134347_rgbf000067-resize_4/002414_2014-06-28_20-24-58_260595134347_rgbf000067-resize_4-target.png,depth_discrimination_stimuli/000773_2014-06-08_22-24-54_260595134347_rgbf000093-resize_1/000773_2014-06-08_22-24-54_260595134347_rgbf000093-resize_1-target.png,250.0,4.363,0.6099999999999994,depth_discrimination_stimuli/002414_2014-06-28_20-24-58_260595134347_rgbf000067-resize_4/002414_2014-06-28_20-24-58_260595134347_rgbf000067-resize_4-target.png,4.973,1.0,956.0,1002.0,261.0,995.0,-1.5497724722935855,498.0,,715570.0,-2.414838785271917,Man
4301,503864.0,ATJ92FYQX176Z,DepthScenes,v2_duration_discrimination,discrim_jsons/Discrim250_randls_33_rotated.json,http://54.235.29.9/FacialAge/BNav_EC2/DepthDuration/v2_depth_discrimination_MTurk/v2_DepthDiscrim_HTML.html#372,372.0,1536.0,739.0,1536.0,864.0,9-6-2022,-3.9946163326260917,14-9-10,2.0,depth_discrimination_stimuli/002875_2014-06-01_15-19-00_094959634447_rgbf000151-resize_1/002875_2014-06-01_15-19-00_094959634447_rgbf000151-resize_1-target.png,depth_discrimination_stimuli/001011_2014-06-08_23-18-54_260595134347_rgbf000044-resize_4/001011_2014-06-08_23-18-54_260595134347_rgbf000044-resize_4-target.png,250.0,1.9675,0.5055000000000003,depth_discrimination_stimuli/002875_2014-06-01_15-19-00_094959634447_rgbf000151-resize_1/002875_2014-06-01_15-19-00_094959634447_rgbf000151-resize_1-target.png,2.4730000000000003,0.0,-0.6651345232750204,1004.0,261.0,995.0,250.0,495.0,,715570.0,-2.414838785271917,Man
4302,503864.0,ATJ92FYQX176Z,DepthScenes,v2_duration_discrimination,discrim_jsons/Discrim250_randls_33_rotated.json,http://54.235.29.9/FacialAge/BNav_EC2/DepthDuration/v2_depth_discrimination_MTurk/v2_DepthDiscrim_HTML.html#372,372.0,1536.0,739.0,1536.0,864.0,9-6-2022,-0.6498102216903225,14-9-10,3.0,depth_discrimination_stimuli/001235_2014-06-17_16-37-36_260595134347_rgbf000084-resize_4/001235_2014-06-17_16-37-36_260595134347_rgbf000084-resize_4-target.png,depth_discrimination_stimuli/000788_2014-06-08_22-34-36_260595134347_rgbf000131-resize_1/000788_2014-06-08_22-34-36_260595134347_rgbf000131-resize_1-target.png,250.0,3.6605,0.3014999999999999,depth_discrimination_stimuli/000788_2014-06-08_22-34-36_260595134347_rgbf000131-resize_1/000788_2014-06-08_22-34-36_260595134347_rgbf000131-resize_1-target.png,3.359,1.0,943.0,1013.0,247.0,999.0,247.0,496.0,,715570.0,-2.414838785271917,Man
4303,503864.0,ATJ92FYQX176Z,DepthScenes,v2_duration_discrimination,discrim_jsons/Discrim250_randls_33_rotated.json,http://54.235.29.9/FacialAge/BNav_EC2/DepthDuration/v2_depth_discrimination_MTurk/v2_DepthDiscrim_HTML.html#372,372.0,1536.0,739.0,1536.0,864.0,9-6-2022,-2.3511626130343624,14-9-10,4.0,depth_discrimination_stimuli/000103_2014-05-14_22-01-17_260595134347_rgbf000152-resize_5/000103_2014-05-14_22-01-17_260595134347_rgbf000152-resize_5-target.png,depth_discrimination_stimuli/001555_2014-06-20_17-12-10_260595134347_rgbf000065-resize_4/001555_2014-06-20_17-12-10_260595134347_rgbf000065-resize_4-target.png,250.0,1.993,0.3600000000000001,depth_discrimination_stimuli/001555_2014-06-20_17-12-10_260595134347_rgbf000065-resize_4/001555_2014-06-20_17-12-10_260595134347_rgbf000065-resize_4-target.png,1.633,1.0,463.0,1001.0,261.0,996.0,-1.5497724722935855,501.0,,715570.0,-2.414838785271917,Man
4304,503864.0,ATJ92FYQX176Z,DepthScenes,v2_duration_discrimination,discrim_jsons/Discrim250_randls_33_rotated.json,http://54.235.29.9/FacialAge/BNav_EC2/DepthDuration/v2_depth_discrimination_MTurk/v2_DepthDiscrim_HTML.html#372,372.0,1536.0,739.0,1536.0,864.0,9-6-2022,0.17251010079263038,14-9-10,5.0,depth_discrimination_stimuli/001100_2014-06-15_17-46-26_260595134347_rgbf000225-resize_2/001100_2014-06-15_17-46-26_260595134347_rgbf000225-resize_2-target.png,depth_discrimination_stimuli/002784_2014-06-22_19-26-30_094959634447_rgbf000083-resize_3/002784_2014-06-22_19-26-30_094959634447_rgbf000083-resize_3-target.png,250.0,2.24,0.43533333333330027,depth_discrimination_stimuli/002784_2014-06-22_19-26-30_094959634447_rgbf000083-resize_3/002784_2014-06-22_19-26-30_094959634447_rgbf000083-resize_3-target.png,1.8046666666667,0.0,1175.0,1014.0,247.0,992.0,248.0,498.0,,715570.0,-2.414838785271917,Man
4305,503864.0,ATJ92FYQX176Z,DepthScenes,v2_duration_discrimination,discrim_jsons/Discrim250_randls_33_rotated.json,http://54.235.29.9/FacialAge/BNav_EC2/DepthDuration/v2_depth_discrimination_MTurk/v2_DepthDiscrim_HTML.html#372,372.0,1536.0,739.0,1536.0,864.0,9-6-2022,-1.2381945903634697,14-9-10,6.0,depth_discrimination_stimuli/001214_2014-06-17_16-13-55_260595134347_rgbf000111-resize_0/001214_2014-06-17_16-13-55_260595134347_rgbf000111-resize_0-target.png,depth_discrimination_stimuli/000810_2014-06-08_17-20-01_260595134347_rgbf000105-resize_0/000810_2014-06-08_17-20-01_260595134347_rgbf000105-resize_0-target.png,250.0,2.6505,1.1640000000000001,depth_discrimination_stimuli/000810_2014-06-08_17-20-01_260595134347_rgbf000105-resize_0/000810_2014-06-08_17-20-01_260595134347_rgbf000105-resize_0-target.png,1.4865,1.0,777.0,1001.0,265.0,995.0,247.0,499.0,,715570.0,-2.414838785271917,Man
4306,503864.0,ATJ92FYQX176Z,DepthScenes,v2_duration_discrimination,discrim_jsons/Discrim250_randls_33_rotated.json,http://54.235.29.9/FacialAge/BNav_EC2/DepthDuration/v2_depth_discrimination_MTurk/v2_DepthDiscrim_HTML.html#372,372.0,1536.0,739.0,1536.0,864.0,9-6-2022,-1.5855540369295447,14-9-10,7.0,depth_discrimination_stimuli/002199_2014-06-28_18-33-56_260595134347_rgbf000074-resize_0/002199_2014-06-28_18-33-56_260595134347_rgbf000074-resize_0-target.png,depth_discrimination_stimuli/001056_2014-06-08_18-46-44_260595134347_rgbf000068-resize_0/001056_2014-06-08_18-46-44_260595134347_rgbf000068-resize_0-target.png,250.0,1.996,0.6665000000000001,depth_discrimination_stimuli/002199_2014-06-28_18-33-56_260595134347_rgbf000074-resize_0/002199_2014-06-28_18-33-56_260595134347_rgbf000074-resize_0-target.png,2.6625,0.0,679.0,1011.0,248.0,998.0,247.0,502.0,,715570.0,-2.414838785271917,Man
4307,503864.0,ATJ92FYQX176Z,DepthScenes,v2_duration_discrimination,discrim_jsons/Discrim250_randls_33_rotated.json,http://54.235.29.9/FacialAge/BNav_EC2/DepthDuration/v2_depth_discrimination_MTurk/v2_DepthDiscrim_HTML.html#372,372.0,1536.0,739.0,1536.0,864.0,9-6-2022,-1.4154187977951405,14-9-10,8.0,depth_discrimination_stimuli/002660_2014-06-13_15-44-18_094959634447_rgbf001878-resize_2/002660_2014-06-13_15-44-18_094959634447_rgbf001878-resize_2-target.png,depth_discrimination_stimuli/002153_2014-06-25_21-27-18_260595134347_rgbf000038-resize_5/002153_2014-06-25_21-27-18_260595134347_rgbf000038-resize_5-target.png,250.0,3.576,1.0710000000000002,depth_discrimination_stimuli/002153_2014-06-25_21-27-18_260595134347_rgbf000038-resize_5/002153_2014-06-25_21-27-18_260595134347_rgbf000038-resize_5-target.png,2.505,0.0,727.0,1002.0,263.0,995.0,246.0,502.0,,715570.0,-2.414838785271917,Man
4308,503864.0,ATJ92FYQX176Z,DepthScenes,v2_duration_discrimination,discrim_jsons/Discrim250_randls_33_rotated.json,http://54.235.29.9/FacialAge/BNav_EC2/DepthDuration/v2_depth_discrimination_MTurk/v2_DepthDiscrim_HTML.html#372,372.0,1536.0,739.0,1536.0,864.0,9-6-2022,-2.0959597543327564,14-9-10,9.0,depth_discrimination_stimuli/002425_2014-06-28_20-27-29_260595134347_rgbf000031-resize_8/002425_2014-06-28_20-27-29_260595134347_rgbf000031-resize_8-target.png,depth_discrimination_stimuli/000642_2014-06-08_16-59-25_260595134347_rgbf000098-resize_2/000642_2014-06-08_16-59-25_260595134347_rgbf000098-resize_2-target.png,250.0,3.8960000000000004,1.0145000000000004,depth_discrimination_stimuli/000642_2014-06-08_16-59-25_260595134347_rgbf000098-resize_2/000642_2014-06-08_16-59-25_260595134347_rgbf000098-resize_2-target.png,2.8815,1.0,535.0,1009.0,248.0,1009.0,248.0,497.0,,715570.0,-2.414838785271917,Man
4310,503864.0,ATJ92FYQX176Z,DepthScenes,v2_duration_discrimination,discrim_jsons/Discrim250_randls_33_rotated.json,http://54.235.29.9/FacialAge/BNav_EC2/DepthDuration/v2_depth_discrimination_MTurk/v2_DepthDiscrim_HTML.html#372,372.0,1536.0,739.0,1536.0,864.0,9-6-2022,-1.0113476048509311,14-9-10,11.0,depth_discrimination_stimuli/001516_2014-06-20_16-25-09_260595134347_rgbf000076-resize_2/001516_2014-06-20_16-25-09_260595134347_rgbf000076-resize_2-target.png,depth_discrimination_stimuli/002118_2014-06-25_20-32-08_260595134347_rgbf000078-resize_1/002118_2014-06-25_20-32-08_260595134347_rgbf000078-resize_1-target.png,250.0,1.7445,0.9015000000000004,depth_discrimination_stimuli/001516_2014-06-20_16-25-09_260595134347_rgbf000076-resize_2/001516_2014-06-20_16-25-09_260595134347_rgbf000076-resize_2-target.png,2.6460000000000004,1.0,841.0,1007.0,-1.5497724722935855,999.0,250.0,497.0,,715570.0,-2.414838785271917,Man
4311,503864.0,ATJ92FYQX176Z,DepthScenes,v2_duration_discrimination,discrim_jsons/Discrim250_randls_33_rotated.json,http://54.235.29.9/FacialAge/BNav_EC2/DepthDuration/v2_depth_discrimination_MTurk/v2_DepthDiscrim_HTML.html#372,372.0,1536.0,739.0,1536.0,864.0,9-6-2022,1.2642112185717227,14-9-10,12.0,depth_discrimination_stimuli/000749_2014-06-08_21-55-06_260595134347_rgbf000070-resize_2/000749_2014-06-08_21-55-06_260595134347_rgbf000070-resize_2-target.png,depth_discrimination_stimuli/002788_2014-06-22_19-36-03_094959634447_rgbf000088-resize_2/002788_2014-06-22_19-36-03_094959634447_rgbf000088-resize_2-target.png,250.0,2.331,0.6844999999999999,depth_discrimination_stimuli/002788_2014-06-22_19-36-03_094959634447_rgbf000088-resize_2/002788_2014-06-22_19-36-03_094959634447_rgbf000088-resize_2-target.png,1.6465,0.0,1483.0,1013.0,245.0,1000.0,-1.5497724722935855,495.0,,715570.0,-2.414838785271917,Man
4312,503864.0,ATJ92FYQX176Z,DepthScenes,v2_duration_discrimination,discrim_jsons/Discrim250_randls_33_rotated.json,http://54.235.29.9/FacialAge/BNav_EC2/DepthDuration/v2_depth_discrimination_MTurk/v2_DepthDiscrim_HTML.html#372,372.0,1536.0,739.0,1536.0,864.0,9-6-2022,-0.5399312130826867,14-9-10,13.0,depth_discrimination_stimuli/000677_2014-06-08_23-10-32_260595134347_rgbf000158-resize_6/000677_2014-06-08_23-10-32_260595134347_rgbf000158-resize_6-target.png,depth_discrimination_stimuli/001029_2014-06-08_13-17-57_260595134347_rgbf000065-resize_1/001029_2014-06-08_13-17-57_260595134347_rgbf000065-resize_1-target.png,250.0,3.556,0.47250000000000014,depth_discrimination_stimuli/001029_2014-06-08_13-17-57_260595134347_rgbf000065-resize_1/001029_2014-06-08_13-17-57_260595134347_rgbf000065-resize_1-target.png,3.0835,1.0,974.0,1003.0,262.0,1000.0,246.0,497.0,,715570.0,-2.414838785271917,Man
4313,503864.0,ATJ92FYQX176Z,DepthScenes,v2_duration_discrimination,discrim_jsons/Discrim250_randls_33_rotated.json,http://54.235.29.9/FacialAge/BNav_EC2/DepthDuration/v2_depth_discrimination_MTurk/v2_DepthDiscrim_HTML.html#372,372.0,1536.0,739.0,1536.0,864.0,9-6-2022,-2.383062970372063,14-9-10,-2.469639366184571,depth_discrimination_stimuli/001584_2014-06-20_11-07-43_260595134347_rgbf000002-resize_1/001584_2014-06-20_11-07-43_260595134347_rgbf000002-resize_1-target.png,depth_discrimination_stimuli/003621_2014-05-23_18-06-08_094959634447_rgbf000101-resize_1/003621_2014-05-23_18-06-08_094959634447_rgbf000101-resize_1-target.png,250.0,3.53,0.4535,depth_discrimination_stimuli/001584_2014-06-20_11-07-43_260595134347_rgbf000002-resize_1/001584_2014-06-20_11-07-43_260595134347_rgbf000002-resize_1-target.png,3.9835,1.0,454.0,1011.0,250.0,988.0,251.0,499.0,,715570.0,-2.414838785271917,Man
4314,503864.0,ATJ92FYQX176Z,DepthScenes,v2_duration_discrimination,discrim_jsons/Discrim250_randls_33_rotated.json,http://54.235.29.9/FacialAge/BNav_EC2/DepthDuration/v2_depth_discrimination_MTurk/v2_DepthDiscrim_HTML.html#372,372.0,1536.0,739.0,1536.0,864.0,9-6-2022,-2.1136821750759234,14-9-10,15.0,depth_discrimination_stimuli/002639_2014-06-24_14-51-37_094959634447_rgbf000074-resize_4/002639_2014-06-24_14-51-37_094959634447_rgbf000074-resize_4-target.png,depth_discrimination_stimuli/003292_2014-05-14_21-53-49_094959634447_rgbf000100-resize_2/003292_2014-05-14_21-53-49_094959634447_rgbf000100-resize_2-target.png,250.0,4.0375,0.5559999999999996,depth_discrimination_stimuli/003292_2014-05-14_21-53-49_094959634447_rgbf000100-resize_2/003292_2014-05-14_21-53-49_094959634447_rgbf000100-resize_2-target.png,3.4815,0.0,530.0,1009.0,246.0,996.0,250.0,512.0,,715570.0,-2.414838785271917,Man
4316,503864.0,ATJ92FYQX176Z,DepthScenes,v2_duration_discrimination,discrim_jsons/Discrim250_randls_33_rotated.json,http://54.235.29.9/FacialAge/BNav_EC2/DepthDuration/v2_depth_discrimination_MTurk/v2_DepthDiscrim_HTML.html#372,372.0,1536.0,739.0,1536.0,864.0,9-6-2022,-2.5461092412092,14-9-10,17.0,depth_discrimination_stimuli/002995_2014-06-15_12-31-26_094959634447_rgbf000150-resize_1/002995_2014-06-15_12-31-26_094959634447_rgbf000150-resize_1-target.png,depth_discrimination_stimuli/002748_2014-06-22_19-07-22_094959634447_rgbf000078-resize_1/002748_2014-06-22_19-07-22_094959634447_rgbf000078-resize_1-target.png,250.0,3.8360000000000003,0.8344999999999994,depth_discrimination_stimuli/002995_2014-06-15_12-31-26_094959634447_rgbf000150-resize_1/002995_2014-06-15_12-31-26_094959634447_rgbf000150-resize_1-target.png,4.6705,1.0,408.0,1006.0,250.0,1006.0,245.0,496.0,,715570.0,-2.414838785271917,Man
4317,503864.0,ATJ92FYQX176Z,DepthScenes,v2_duration_discrimination,discrim_jsons/Discrim250_randls_33_rotated.json,http://54.235.29.9/FacialAge/BNav_EC2/DepthDuration/v2_depth_discrimination_MTurk/v2_DepthDiscrim_HTML.html#372,372.0,1536.0,739.0,1536.0,864.0,9-6-2022,-1.631632330861779,14-9-10,18.0,depth_discrimination_stimuli/000483_2014-06-09_20-41-45_260595134347_rgbf000116-resize_4/000483_2014-06-09_20-41-45_260595134347_rgbf000116-resize_4-target.png,depth_discrimination_stimuli/000469_2014-06-09_19-42-10_260595134347_rgbf000081-resize_1/000469_2014-06-09_19-42-10_260595134347_rgbf000081-resize_1-target.png,250.0,1.337,0.31499999999999995,depth_discrimination_stimuli/000483_2014-06-09_20-41-45_260595134347_rgbf000116-resize_4/000483_2014-06-09_20-41-45_260595134347_rgbf000116-resize_4-target.png,1.652,1.0,666.0,1012.0,247.0,997.0,250.0,499.0,,715570.0,-2.414838785271917,Man
4318,503864.0,ATJ92FYQX176Z,DepthScenes,v2_duration_discrimination,discrim_jsons/Discrim250_randls_33_rotated.json,http://54.235.29.9/FacialAge/BNav_EC2/DepthDuration/v2_depth_discrimination_MTurk/v2_DepthDiscrim_HTML.html#372,372.0,1536.0,739.0,1536.0,864.0,9-6-2022,-1.4685860600246419,14-9-10,19.0,depth_discrimination_stimuli/000734_2014-06-08_17-39-11_260595134347_rgbf000128-resize_2/000734_2014-06-08_17-39-11_260595134347_rgbf000128-resize_2-target.png,depth_discrimination_stimuli/000739_2014-06-08_18-45-58_260595134347_rgbf000068-resize_1/000739_2014-06-08_18-45-58_260595134347_rgbf000068-resize_1-target.png,250.0,4.098,0.5640000000000001,depth_discrimination_stimuli/000739_2014-06-08_18-45-58_260595134347_rgbf000068-resize_1/000739_2014-06-08_18-45-58_260595134347_rgbf000068-resize_1-target.png,3.534,0.0,712.0,1001.0,263.0,995.0,246.0,497.0,,715570.0,-2.414838785271917,Man
4319,503864.0,ATJ92FYQX176Z,DepthScenes,v2_duration_discrimination,discrim_jsons/Discrim250_randls_33_rotated.json,http://54.235.29.9/FacialAge/BNav_EC2/DepthDuration/v2_depth_discrimination_MTurk/v2_DepthDiscrim_HTML.html#372,372.0,1536.0,739.0,1536.0,864.0,9-6-2022,-2.3688850337775293,14-9-10,20.0,depth_discrimination_stimuli/000457_2014-06-08_16-52-43_260595134347_rgbf000199-resize_1/000457_2014-06-08_16-52-43_260595134347_rgbf000199-resize_1-target.png,depth_discrimination_stimuli/000929_2014-06-09_16-33-19_260595134347_rgbf000139-resize_0/000929_2014-06-09_16-33-19_260595134347_rgbf000139-resize_0-target.png,250.0,3.6489999999999996,0.7809999999999993,depth_discrimination_stimuli/000929_2014-06-09_16-33-19_260595134347_rgbf000139-resize_0/000929_2014-06-09_16-33-19_260595134347_rgbf000139-resize_0-target.png,2.8680000000000003,1.0,458.0,1008.0,250.0,997.0,248.0,503.0,,715570.0,-2.414838785271917,Man
4320,503864.0,ATJ92FYQX176Z,DepthScenes,v2_duration_discrimination,discrim_jsons/Discrim250_randls_33_rotated.json,http://54.235.29.9/FacialAge/BNav_EC2/DepthDuration/v2_depth_discrimination_MTurk/v2_DepthDiscrim_HTML.html#372,372.0,1536.0,739.0,1536.0,864.0,9-6-2022,2.0262753105279074,14-9-10,21.0,depth_discrimination_stimuli/002323_2014-06-28_20-01-54_260595134347_rgbf000051-resize_4/002323_2014-06-28_20-01-54_260595134347_rgbf000051-resize_4-target.png,depth_discrimination_stimuli/000917_2014-06-09_22-45-29_260595134347_rgbf000149-resize_3/000917_2014-06-09_22-45-29_260595134347_rgbf000149-resize_3-target.png,250.0,3.7310000000000003,0.45549999999999935,depth_discrimination_stimuli/002323_2014-06-28_20-01-54_260595134347_rgbf000051-resize_4/002323_2014-06-28_20-01-54_260595134347_rgbf000051-resize_4-target.png,4.1865,0.0,1698.0,1002.0,263.0,993.0,250.0,501.0,,715570.0,-2.414838785271917,Man
4321,503864.0,ATJ92FYQX176Z,DepthScenes,v2_duration_discrimination,discrim_jsons/Discrim250_randls_33_rotated.json,http://54.235.29.9/FacialAge/BNav_EC2/DepthDuration/v2_depth_discrimination_MTurk/v2_DepthDiscrim_HTML.html#372,372.0,1536.0,739.0,1536.0,864.0,9-6-2022,-2.0038031664682876,14-9-10,22.0,depth_discrimination_stimuli/003228_2014-05-14_13-42-35_094959634447_rgbf000101-resize_1/003228_2014-05-14_13-42-35_094959634447_rgbf000101-resize_1-target.png,depth_discrimination_stimuli/002600_2014-06-24_14-27-04_094959634447_rgbf000074-resize_2/002600_2014-06-24_14-27-04_094959634447_rgbf000074-resize_2-target.png,250.0,1.9680000000000002,0.7894999999999996,depth_discrimination_stimuli/003228_2014-05-14_13-42-35_094959634447_rgbf000101-resize_1/003228_2014-05-14_13-42-35_094959634447_rgbf000101-resize_1-target.png,2.7575,0.0,561.0,1009.0,246.0,997.0,250.0,498.0,,715570.0,-2.414838785271917,Man
4322,503864.0,ATJ92FYQX176Z,DepthScenes,v2_duration_discrimination,discrim_jsons/Discrim250_randls_33_rotated.json,http://54.235.29.9/FacialAge/BNav_EC2/DepthDuration/v2_depth_discrimination_MTurk/v2_DepthDiscrim_HTML.html#372,372.0,1536.0,739.0,1536.0,864.0,9-6-2022,-2.2519170568726268,14-9-10,23.0,depth_discrimination_stimuli/001450_2014-06-19_17-02-03_260595134347_rgbf000203-resize_4/001450_2014-06-19_17-02-03_260595134347_rgbf000203-resize_4-target.png,depth_discrimination_stimuli/001449_2014-06-19_17-01-27_260595134347_rgbf000116-resize_2/001449_2014-06-19_17-01-27_260595134347_rgbf000116-resize_2-target.png,250.0,4.0106666666667,0.5586666666667002,depth_discrimination_stimuli/001449_2014-06-19_17-01-27_260595134347_rgbf000116-resize_2/001449_2014-06-19_17-01-27_260595134347_rgbf000116-resize_2-target.png,3.452,0.0,491.0,1003.0,250.0,1011.0,-1.5497724722935855,499.0,,715570.0,-2.414838785271917,Man
4323,503864.0,ATJ92FYQX176Z,DepthScenes,v2_duration_discrimination,discrim_jsons/Discrim250_randls_33_rotated.json,http://54.235.29.9/FacialAge/BNav_EC2/DepthDuration/v2_depth_discrimination_MTurk/v2_DepthDiscrim_HTML.html#372,372.0,1536.0,739.0,1536.0,864.0,9-6-2022,-2.152671500710891,14-9-10,24.0,depth_discrimination_stimuli/003129_2014-05-12_10-48-10_094959634447_rgbf000100-resize_0/003129_2014-05-12_10-48-10_094959634447_rgbf000100-resize_0-target.png,depth_discrimination_stimuli/000414_2014-06-04_19-49-13_260595134347_rgbf000044-resize_0/000414_2014-06-04_19-49-13_260595134347_rgbf000044-resize_0-target.png,250.0,4.9305,0.6015000000000006,depth_discrimination_stimuli/000414_2014-06-04_19-49-13_260595134347_rgbf000044-resize_0/000414_2014-06-04_19-49-13_260595134347_rgbf000044-resize_0-target.png,4.329,0.0,519.0,1016.0,235.0,1013.0,250.0,496.0,,715570.0,-2.414838785271917,Man
4324,503864.0,ATJ92FYQX176Z,DepthScenes,v2_duration_discrimination,discrim_jsons/Discrim250_randls_33_rotated.json,http://54.235.29.9/FacialAge/BNav_EC2/DepthDuration/v2_depth_discrimination_MTurk/v2_DepthDiscrim_HTML.html#372,372.0,1536.0,739.0,1536.0,864.0,9-6-2022,-3.995296171892425,14-9-10,25.0,depth_discrimination_stimuli/001815_2014-06-26_20-52-55_260595134347_rgbf000020-resize_0/001815_2014-06-26_20-52-55_260595134347_rgbf000020-resize_0-target.png,depth_discrimination_stimuli/001808_2014-06-26_20-50-58_260595134347_rgbf000029-resize_1/001808_2014-06-26_20-50-58_260595134347_rgbf000029-resize_1-target.png,250.0,3.3865,0.8624999999999998,depth_discrimination_stimuli/001815_2014-06-26_20-52-55_260595134347_rgbf000020-resize_0/001815_2014-06-26_20-52-55_260595134347_rgbf000020-resize_0-target.png,4.249,1.0,-0.8569365564693111,1003.0,-1.5497724722935855,1012.0,-1.5497724722935855,498.0,,715570.0,-2.414838785271917,Man
4326,503864.0,ATJ92FYQX176Z,DepthScenes,v2_duration_discrimination,discrim_jsons/Discrim250_randls_33_rotated.json,http://54.235.29.9/FacialAge/BNav_EC2/DepthDuration/v2_depth_discrimination_MTurk/v2_DepthDiscrim_HTML.html#372,372.0,1536.0,739.0,1536.0,864.0,9-6-2022,0.3461898240756678,14-9-10,27.0,depth_discrimination_stimuli/000691_2014-06-08_13-08-50_260595134347_rgbf000132-resize_3/000691_2014-06-08_13-08-50_260595134347_rgbf000132-resize_3-target.png,depth_discrimination_stimuli/002213_2014-06-28_18-37-58_260595134347_rgbf000055-resize_1/002213_2014-06-28_18-37-58_260595134347_rgbf000055-resize_1-target.png,250.0,4.1530000000000005,0.5330000000000004,depth_discrimination_stimuli/002213_2014-06-28_18-37-58_260595134347_rgbf000055-resize_1/002213_2014-06-28_18-37-58_260595134347_rgbf000055-resize_1-target.png,3.62,1.0,1224.0,1014.0,247.0,995.0,247.0,498.0,,715570.0,-2.414838785271917,Man
4327,503864.0,ATJ92FYQX176Z,DepthScenes,v2_duration_discrimination,discrim_jsons/Discrim250_randls_33_rotated.json,http://54.235.29.9/FacialAge/BNav_EC2/DepthDuration/v2_depth_discrimination_MTurk/v2_DepthDiscrim_HTML.html#372,372.0,1536.0,739.0,1536.0,864.0,9-6-2022,-2.0463369762518884,14-9-10,-2.414838785271917,depth_discrimination_stimuli/001136_2014-06-17_15-19-41_260595134347_rgbf000076-resize_3/001136_2014-06-17_15-19-41_260595134347_rgbf000076-resize_3-target.png,depth_discrimination_stimuli/001164_2014-06-17_15-35-46_260595134347_rgbf000085-resize_3/001164_2014-06-17_15-35-46_260595134347_rgbf000085-resize_3-target.png,250.0,1.8655,0.48850000000000016,depth_discrimination_stimuli/001136_2014-06-17_15-19-41_260595134347_rgbf000076-resize_3/001136_2014-06-17_15-19-41_260595134347_rgbf000076-resize_3-target.png,2.354,1.0,549.0,1013.0,250.0,987.0,250.0,513.0,,715570.0,-2.414838785271917,Man
4328,503864.0,ATJ92FYQX176Z,DepthScenes,v2_duration_discrimination,discrim_jsons/Discrim250_randls_33_rotated.json,http://54.235.29.9/FacialAge/BNav_EC2/DepthDuration/v2_depth_discrimination_MTurk/v2_DepthDiscrim_HTML.html#372,372.0,1536.0,739.0,1536.0,864.0,9-6-2022,-2.4397747167501977,14-9-10,29.0,depth_discrimination_stimuli/002949_2014-06-26_15-57-42_094959634447_rgbf000079-resize_1/002949_2014-06-26_15-57-42_094959634447_rgbf000079-resize_1-target.png,depth_discrimination_stimuli/000522_2014-06-08_13-35-06_260595134347_rgbf000244-resize_1/000522_2014-06-08_13-35-06_260595134347_rgbf000244-resize_1-target.png,250.0,1.8915,0.4800000000000002,depth_discrimination_stimuli/002949_2014-06-26_15-57-42_094959634447_rgbf000079-resize_1/002949_2014-06-26_15-57-42_094959634447_rgbf000079-resize_1-target.png,2.3715,1.0,438.0,1002.0,248.0,1011.0,247.0,496.0,,715570.0,-2.414838785271917,Man
4329,503864.0,ATJ92FYQX176Z,DepthScenes,v2_duration_discrimination,discrim_jsons/Discrim250_randls_33_rotated.json,http://54.235.29.9/FacialAge/BNav_EC2/DepthDuration/v2_depth_discrimination_MTurk/v2_DepthDiscrim_HTML.html#372,372.0,1536.0,739.0,1536.0,864.0,9-6-2022,-0.8305789132706268,14-9-10,30.0,depth_discrimination_stimuli/002444_2014-06-28_20-32-08_260595134347_rgbf000027-resize_0/002444_2014-06-28_20-32-08_260595134347_rgbf000027-resize_0-target.png,depth_discrimination_stimuli/000436_2014-06-09_22-25-11_260595134347_rgbf000137-resize_1/000436_2014-06-09_22-25-11_260595134347_rgbf000137-resize_1-target.png,250.0,4.388999999999999,0.31849999999999934,depth_discrimination_stimuli/000436_2014-06-09_22-25-11_260595134347_rgbf000137-resize_1/000436_2014-06-09_22-25-11_260595134347_rgbf000137-resize_1-target.png,4.0705,1.0,892.0,1002.0,262.0,993.0,248.0,499.0,,715570.0,-2.414838785271917,Man
4330,503864.0,ATJ92FYQX176Z,DepthScenes,v2_duration_discrimination,discrim_jsons/Discrim250_randls_33_rotated.json,http://54.235.29.9/FacialAge/BNav_EC2/DepthDuration/v2_depth_discrimination_MTurk/v2_DepthDiscrim_HTML.html#372,372.0,1536.0,739.0,1536.0,864.0,9-6-2022,-1.3870629246060733,14-9-10,31.0,depth_discrimination_stimuli/001052_2014-06-08_18-24-54_260595134347_rgbf000130-resize_1/001052_2014-06-08_18-24-54_260595134347_rgbf000130-resize_1-target.png,depth_discrimination_stimuli/002988_2014-06-15_12-24-20_094959634447_rgbf000150-resize_1/002988_2014-06-15_12-24-20_094959634447_rgbf000150-resize_1-target.png,250.0,4.1045,0.6624999999999996,depth_discrimination_stimuli/001052_2014-06-08_18-24-54_260595134347_rgbf000130-resize_1/001052_2014-06-08_18-24-54_260595134347_rgbf000130-resize_1-target.png,4.7669999999999995,1.0,735.0,1007.0,-1.5497724722935855,997.0,-1.5497724722935855,500.0,,715570.0,-2.414838785271917,Man
4331,503864.0,ATJ92FYQX176Z,DepthScenes,v2_duration_discrimination,discrim_jsons/Discrim250_randls_33_rotated.json,http://54.235.29.9/FacialAge/BNav_EC2/DepthDuration/v2_depth_discrimination_MTurk/v2_DepthDiscrim_HTML.html#372,372.0,1536.0,739.0,1536.0,864.0,9-6-2022,-0.9191910169864622,14-9-10,32.0,depth_discrimination_stimuli/000709_2014-06-08_13-51-55_260595134347_rgbf000068-resize_3/000709_2014-06-08_13-51-55_260595134347_rgbf000068-resize_3-target.png,depth_discrimination_stimuli/002057_2014-06-24_21-00-13_260595134347_rgbf000120-resize_1/002057_2014-06-24_21-00-13_260595134347_rgbf000120-resize_1-target.png,250.0,1.8030000000000002,1.164,depth_discrimination_stimuli/000709_2014-06-08_13-51-55_260595134347_rgbf000068-resize_3/000709_2014-06-08_13-51-55_260595134347_rgbf000068-resize_3-target.png,2.967,1.0,867.0,1011.0,248.0,995.0,-1.5497724722935855,498.0,,715570.0,-2.414838785271917,Man
4332,503864.0,ATJ92FYQX176Z,DepthScenes,v2_duration_discrimination,discrim_jsons/Discrim250_randls_33_rotated.json,http://54.235.29.9/FacialAge/BNav_EC2/DepthDuration/v2_depth_discrimination_MTurk/v2_DepthDiscrim_HTML.html#372,372.0,1536.0,739.0,1536.0,864.0,9-6-2022,-0.9900806999591305,14-9-10,33.0,depth_discrimination_stimuli/003587_2014-05-23_16-48-02_094959634447_rgbf002384-resize_2/003587_2014-05-23_16-48-02_094959634447_rgbf002384-resize_2-target.png,depth_discrimination_stimuli/001167_2014-06-17_15-38-07_260595134347_rgbf000108-resize_0/001167_2014-06-17_15-38-07_260595134347_rgbf000108-resize_0-target.png,250.0,1.357,0.49350000000000005,depth_discrimination_stimuli/003587_2014-05-23_16-48-02_094959634447_rgbf002384-resize_2/003587_2014-05-23_16-48-02_094959634447_rgbf002384-resize_2-target.png,1.8505,0.0,847.0,1005.0,251.0,1009.0,247.0,501.0,,715570.0,-2.414838785271917,Man
4333,503864.0,ATJ92FYQX176Z,DepthScenes,v2_duration_discrimination,discrim_jsons/Discrim250_randls_33_rotated.json,http://54.235.29.9/FacialAge/BNav_EC2/DepthDuration/v2_depth_discrimination_MTurk/v2_DepthDiscrim_HTML.html#372,372.0,1536.0,739.0,1536.0,864.0,9-6-2022,-2.0108921347655544,14-9-10,34.0,depth_discrimination_stimuli/001447_2014-06-19_17-00-32_260595134347_rgbf000082-resize_5/001447_2014-06-19_17-00-32_260595134347_rgbf000082-resize_5-target.png,depth_discrimination_stimuli/000447_2014-06-08_16-15-46_260595134347_rgbf000130-resize_1/000447_2014-06-08_16-15-46_260595134347_rgbf000130-resize_1-target.png,250.0,4.13775,0.3412500000000005,depth_discrimination_stimuli/001447_2014-06-19_17-00-32_260595134347_rgbf000082-resize_5/001447_2014-06-19_17-00-32_260595134347_rgbf000082-resize_5-target.png,4.479,0.0,559.0,1007.0,-1.5497724722935855,994.0,264.0,497.0,,715570.0,-2.414838785271917,Man
4335,503864.0,ATJ92FYQX176Z,DepthScenes,v2_duration_discrimination,discrim_jsons/Discrim250_randls_33_rotated.json,http://54.235.29.9/FacialAge/BNav_EC2/DepthDuration/v2_depth_discrimination_MTurk/v2_DepthDiscrim_HTML.html#372,372.0,1536.0,739.0,1536.0,864.0,9-6-2022,-1.8336679273338836,14-9-10,36.0,depth_discrimination_stimuli/000780_2014-06-08_22-28-29_260595134347_rgbf000126-resize_1/000780_2014-06-08_22-28-29_260595134347_rgbf000126-resize_1-target.png,depth_discrimination_stimuli/002445_2014-06-28_20-32-16_260595134347_rgbf000029-resize_4/002445_2014-06-28_20-32-16_260595134347_rgbf000029-resize_4-target.png,250.0,3.3825,0.851,depth_discrimination_stimuli/002445_2014-06-28_20-32-16_260595134347_rgbf000029-resize_4/002445_2014-06-28_20-32-16_260595134347_rgbf000029-resize_4-target.png,2.5315,0.0,609.0,1004.0,250.0,997.0,264.0,497.0,,715570.0,-2.414838785271917,Man
4336,503864.0,ATJ92FYQX176Z,DepthScenes,v2_duration_discrimination,discrim_jsons/Discrim250_randls_33_rotated.json,http://54.235.29.9/FacialAge/BNav_EC2/DepthDuration/v2_depth_discrimination_MTurk/v2_DepthDiscrim_HTML.html#372,372.0,1536.0,739.0,1536.0,864.0,9-6-2022,-3.995296171892425,14-9-10,37.0,depth_discrimination_stimuli/002750_2014-06-22_19-08-03_094959634447_rgbf000094-resize_4/002750_2014-06-22_19-08-03_094959634447_rgbf000094-resize_4-target.png,depth_discrimination_stimuli/002549_2014-06-24_13-41-39_094959634447_rgbf000022-resize_3/002549_2014-06-24_13-41-39_094959634447_rgbf000022-resize_3-target.png,250.0,2.354,0.8780000000000001,depth_discrimination_stimuli/002549_2014-06-24_13-41-39_094959634447_rgbf000022-resize_3/002549_2014-06-24_13-41-39_094959634447_rgbf000022-resize_3-target.png,1.476,1.0,-0.8569365564693111,1001.0,248.0,1014.0,247.0,497.0,,715570.0,-2.414838785271917,Man
4337,503864.0,ATJ92FYQX176Z,DepthScenes,v2_duration_discrimination,discrim_jsons/Discrim250_randls_33_rotated.json,http://54.235.29.9/FacialAge/BNav_EC2/DepthDuration/v2_depth_discrimination_MTurk/v2_DepthDiscrim_HTML.html#372,372.0,1536.0,739.0,1536.0,864.0,9-6-2022,-1.2878173684443375,14-9-10,38.0,depth_discrimination_stimuli/002344_2014-06-28_20-06-29_260595134347_rgbf000030-resize_1/002344_2014-06-28_20-06-29_260595134347_rgbf000030-resize_1-target.png,depth_discrimination_stimuli/002725_2014-06-22_11-47-51_094959634447_rgbf000070-resize_1/002725_2014-06-22_11-47-51_094959634447_rgbf000070-resize_1-target.png,250.0,1.5795,0.6154999999999999,depth_discrimination_stimuli/002344_2014-06-28_20-06-29_260595134347_rgbf000030-resize_1/002344_2014-06-28_20-06-29_260595134347_rgbf000030-resize_1-target.png,2.195,0.0,763.0,1013.0,247.0,996.0,251.0,499.0,,715570.0,-2.414838785271917,Man
4338,503864.0,ATJ92FYQX176Z,DepthScenes,v2_duration_discrimination,discrim_jsons/Discrim250_randls_33_rotated.json,http://54.235.29.9/FacialAge/BNav_EC2/DepthDuration/v2_depth_discrimination_MTurk/v2_DepthDiscrim_HTML.html#372,372.0,1536.0,739.0,1536.0,864.0,9-6-2022,-1.7237889187262478,14-9-10,39.0,depth_discrimination_stimuli/003490_2014-05-21_15-50-11_094959634447_rgbf000101-resize_3/003490_2014-05-21_15-50-11_094959634447_rgbf000101-resize_3-target.png,depth_discrimination_stimuli/001175_2014-06-17_15-45-55_260595134347_rgbf000129-resize_4/001175_2014-06-17_15-45-55_260595134347_rgbf000129-resize_4-target.png,250.0,3.6445,0.6105,depth_discrimination_stimuli/003490_2014-05-21_15-50-11_094959634447_rgbf000101-resize_3/003490_2014-05-21_15-50-11_094959634447_rgbf000101-resize_3-target.png,4.255,0.0,640.0,1015.0,-1.5497724722935855,994.0,247.0,501.0,,715570.0,-2.414838785271917,Man
4339,503864.0,ATJ92FYQX176Z,DepthScenes,v2_duration_discrimination,discrim_jsons/Discrim250_randls_33_rotated.json,http://54.235.29.9/FacialAge/BNav_EC2/DepthDuration/v2_depth_discrimination_MTurk/v2_DepthDiscrim_HTML.html#372,372.0,1536.0,739.0,1536.0,864.0,9-6-2022,-2.687888607154537,14-9-10,40.0,depth_discrimination_stimuli/001392_2014-06-19_16-07-59_260595134347_rgbf000046-resize_1/001392_2014-06-19_16-07-59_260595134347_rgbf000046-resize_1-target.png,depth_discrimination_stimuli/001570_2014-06-20_17-21-09_260595134347_rgbf000135-resize_4/001570_2014-06-20_17-21-09_260595134347_rgbf000135-resize_4-target.png,250.0,4.135,0.33199999999999985,depth_discrimination_stimuli/001392_2014-06-19_16-07-59_260595134347_rgbf000046-resize_1/001392_2014-06-19_16-07-59_260595134347_rgbf000046-resize_1-target.png,4.467,1.0,368.0,1014.0,248.0,992.0,248.0,498.0,,715570.0,-2.414838785271917,Man
4340,503864.0,ATJ92FYQX176Z,DepthScenes,v2_duration_discrimination,discrim_jsons/Discrim250_randls_33_rotated.json,http://54.235.29.9/FacialAge/BNav_EC2/DepthDuration/v2_depth_discrimination_MTurk/v2_DepthDiscrim_HTML.html#372,372.0,1536.0,739.0,1536.0,864.0,9-6-2022,-2.092415270184123,14-9-10,41.0,depth_discrimination_stimuli/000854_2014-06-09_19-43-13_260595134347_rgbf000066-resize_0/000854_2014-06-09_19-43-13_260595134347_rgbf000066-resize_0-target.png,depth_discrimination_stimuli/000758_2014-06-08_22-05-08_260595134347_rgbf000085-resize_0/000758_2014-06-08_22-05-08_260595134347_rgbf000085-resize_0-target.png,250.0,3.068,0.31300000000000017,depth_discrimination_stimuli/000854_2014-06-09_19-43-13_260595134347_rgbf000066-resize_0/000854_2014-06-09_19-43-13_260595134347_rgbf000066-resize_0-target.png,3.3810000000000002,0.0,536.0,1005.0,247.0,1012.0,236.0,511.0,,715570.0,-2.414838785271917,Man
4341,503864.0,ATJ92FYQX176Z,DepthScenes,v2_duration_discrimination,discrim_jsons/Discrim250_randls_33_rotated.json,http://54.235.29.9/FacialAge/BNav_EC2/DepthDuration/v2_depth_discrimination_MTurk/v2_DepthDiscrim_HTML.html#372,372.0,1536.0,739.0,1536.0,864.0,9-6-2022,-2.4397747167501977,14-9-10,-2.3600382043592623,depth_discrimination_stimuli/000549_2014-06-08_22-10-24_260595134347_rgbf000247-resize_3/000549_2014-06-08_22-10-24_260595134347_rgbf000247-resize_3-target.png,depth_discrimination_stimuli/001055_2014-06-08_18-45-35_260595134347_rgbf000111-resize_4/001055_2014-06-08_18-45-35_260595134347_rgbf000111-resize_4-target.png,250.0,1.841,0.5880000000000003,depth_discrimination_stimuli/000549_2014-06-08_22-10-24_260595134347_rgbf000247-resize_3/000549_2014-06-08_22-10-24_260595134347_rgbf000247-resize_3-target.png,2.4290000000000003,0.0,438.0,1008.0,250.0,998.0,247.0,512.0,,715570.0,-2.414838785271917,Man
4342,503864.0,ATJ92FYQX176Z,DepthScenes,v2_duration_discrimination,discrim_jsons/Discrim250_randls_33_rotated.json,http://54.235.29.9/FacialAge/BNav_EC2/DepthDuration/v2_depth_discrimination_MTurk/v2_DepthDiscrim_HTML.html#372,372.0,1536.0,739.0,1536.0,864.0,9-6-2022,-1.7202444345776144,14-9-10,43.0,depth_discrimination_stimuli/000556_2014-06-09_22-42-56_260595134347_rgbf000214-resize_1/000556_2014-06-09_22-42-56_260595134347_rgbf000214-resize_1-target.png,depth_discrimination_stimuli/001158_2014-06-17_15-32-16_260595134347_rgbf000138-resize_2/001158_2014-06-17_15-32-16_260595134347_rgbf000138-resize_2-target.png,250.0,4.8415,0.3099999999999996,depth_discrimination_stimuli/001158_2014-06-17_15-32-16_260595134347_rgbf000138-resize_2/001158_2014-06-17_15-32-16_260595134347_rgbf000138-resize_2-target.png,4.5315,1.0,641.0,1014.0,247.0,994.0,246.0,500.0,,715570.0,-2.414838785271917,Man
4343,503864.0,ATJ92FYQX176Z,DepthScenes,v2_duration_discrimination,discrim_jsons/Discrim250_randls_33_rotated.json,http://54.235.29.9/FacialAge/BNav_EC2/DepthDuration/v2_depth_discrimination_MTurk/v2_DepthDiscrim_HTML.html#372,372.0,1536.0,739.0,1536.0,864.0,9-6-2022,-2.5461092412092,14-9-10,44.0,depth_discrimination_stimuli/003338_2014-05-20_11-01-23_094959634447_rgbf000051-resize_6/003338_2014-05-20_11-01-23_094959634447_rgbf000051-resize_6-target.png,depth_discrimination_stimuli/002509_2014-06-24_13-19-22_094959634447_rgbf000077-resize_0/002509_2014-06-24_13-19-22_094959634447_rgbf000077-resize_0-target.png,250.0,1.693,0.38650000000000007,depth_discrimination_stimuli/002509_2014-06-24_13-19-22_094959634447_rgbf000077-resize_0/002509_2014-06-24_13-19-22_094959634447_rgbf000077-resize_0-target.png,1.3065,1.0,408.0,1005.0,251.0,995.0,248.0,515.0,,715570.0,-2.414838785271917,Man
4344,503864.0,ATJ92FYQX176Z,DepthScenes,v2_duration_discrimination,discrim_jsons/Discrim250_randls_33_rotated.json,http://54.235.29.9/FacialAge/BNav_EC2/DepthDuration/v2_depth_discrimination_MTurk/v2_DepthDiscrim_HTML.html#372,372.0,1536.0,739.0,1536.0,864.0,9-6-2022,-2.3547070971829958,14-9-10,45.0,depth_discrimination_stimuli/000665_2014-06-09_20-42-35_260595134347_rgbf000110-resize_1/000665_2014-06-09_20-42-35_260595134347_rgbf000110-resize_1-target.png,depth_discrimination_stimuli/001150_2014-06-17_15-27-34_260595134347_rgbf000108-resize_2/001150_2014-06-17_15-27-34_260595134347_rgbf000108-resize_2-target.png,250.0,3.057,0.9754999999999998,depth_discrimination_stimuli/000665_2014-06-09_20-42-35_260595134347_rgbf000110-resize_1/000665_2014-06-09_20-42-35_260595134347_rgbf000110-resize_1-target.png,4.0325,0.0,462.0,1004.0,-1.5497724722935855,997.0,262.0,495.0,,715570.0,-2.414838785271917,Man
