subjID,experimentName,versionName,sequenceName,url,selected_row,windowWidth,windowHeight,screenWidth,screenHeight,startDate,startTime,trial,stimulus_0,stimulus_1,duration,actual_depth_0,actual_depth_1,discrim_choice,trial_RT,log_fixation,log_sceneDuration1,log_mask1,log_sceneDuration2,log_mask2,unitSelection,meanDepth_rating,navigability_rating,rated_stimulus,rating_RT,experimentTime,totalTime,age
857994,DepthScenes,v2_duration_discrimination,discrim_jsons/shuffled_g0_rotated_dr.json,http://54.211.221.249/DepthDuration/v2_depth_discrimination_MTurk/v2_DepthDiscrim_HTML.html#2,2,2560,1287,2560,1440,8-2-2021,8-55-38,1,depth_discrimination_stimuli/002444_2014-06-28_20-32-08_260595134347_rgbf000027-resize_0/002444_2014-06-28_20-32-08_260595134347_rgbf000027-resize_0-target.png,depth_discrimination_stimuli/002103_2014-06-25_20-00-40_260595134347_rgbf000049-resize_0/002103_2014-06-25_20-00-40_260595134347_rgbf000049-resize_0-target.png,1000,4.389,4.105,1,2181,515,986,1004,1003,502,,,,,,1669219,1794070,35
857994,DepthScenes,v2_duration_discrimination,discrim_jsons/shuffled_g0_rotated_dr.json,http://54.211.221.249/DepthDuration/v2_depth_discrimination_MTurk/v2_DepthDiscrim_HTML.html#2,2,2560,1287,2560,1440,8-2-2021,8-55-38,2,depth_discrimination_stimuli/000943_2014-06-09_19-31-07_260595134347_rgbf000128-resize_1/000943_2014-06-09_19-31-07_260595134347_rgbf000128-resize_1-target.png,depth_discrimination_stimuli/001532_2014-06-20_16-50-41_260595134347_rgbf000081-resize_4/001532_2014-06-20_16-50-41_260595134347_rgbf000081-resize_4-target.png,250,1.9765,1.5758333333333,1,1817,512,246,1003,254,501,,,,,,1669219,1794070,35
857994,DepthScenes,v2_duration_discrimination,discrim_jsons/shuffled_g0_rotated_dr.json,http://54.211.221.249/DepthDuration/v2_depth_discrimination_MTurk/v2_DepthDiscrim_HTML.html#2,2,2560,1287,2560,1440,8-2-2021,8-55-38,3,depth_discrimination_stimuli/000742_2014-06-08_18-48-09_260595134347_rgbf000164-resize_4/000742_2014-06-08_18-48-09_260595134347_rgbf000164-resize_4-target.png,depth_discrimination_stimuli/003083_2014-06-15_15-21-03_094959634447_rgbf000063-resize_1/003083_2014-06-15_15-21-03_094959634447_rgbf000063-resize_1-target.png,1000,4.632,4.1405,0,2750,506,1004,1004,989,501,,,,,,1669219,1794070,35
857994,DepthScenes,v2_duration_discrimination,discrim_jsons/shuffled_g0_rotated_dr.json,http://54.211.221.249/DepthDuration/v2_depth_discrimination_MTurk/v2_DepthDiscrim_HTML.html#2,2,2560,1287,2560,1440,8-2-2021,8-55-38,4,depth_discrimination_stimuli/001011_2014-06-08_23-18-54_260595134347_rgbf000044-resize_4/001011_2014-06-08_23-18-54_260595134347_rgbf000044-resize_4-target.png,depth_discrimination_stimuli/002043_2014-06-24_20-29-38_260595134347_rgbf000039-resize_4/002043_2014-06-24_20-29-38_260595134347_rgbf000039-resize_4-target.png,1000,2.473,2.8435,1,2717,511,1002,988,1000,502,,,,,,1669219,1794070,35
857994,DepthScenes,v2_duration_discrimination,discrim_jsons/shuffled_g0_rotated_dr.json,http://54.211.221.249/DepthDuration/v2_depth_discrimination_MTurk/v2_DepthDiscrim_HTML.html#2,2,2560,1287,2560,1440,8-2-2021,8-55-38,5,depth_discrimination_stimuli/000953_2014-06-08_11-42-19_260595134347_rgbf000083-resize_0/000953_2014-06-08_11-42-19_260595134347_rgbf000083-resize_0-target.png,depth_discrimination_stimuli/000787_2014-06-08_22-33-53_260595134347_rgbf000175-resize_1/000787_2014-06-08_22-33-53_260595134347_rgbf000175-resize_1-target.png,250,1.369,4.784,1,1663,505,247,1004,253,503,,,,,,1669219,1794070,35
857994,DepthScenes,v2_duration_discrimination,discrim_jsons/shuffled_g0_rotated_dr.json,http://54.211.221.249/DepthDuration/v2_depth_discrimination_MTurk/v2_DepthDiscrim_HTML.html#2,2,2560,1287,2560,1440,8-2-2021,8-55-38,6,depth_discrimination_stimuli/000109_2014-05-14_23-41-52_260595134347_rgbf000035-resize_9/000109_2014-05-14_23-41-52_260595134347_rgbf000035-resize_9-target.png,depth_discrimination_stimuli/001618_2014-06-20_11-37-31_260595134347_rgbf000027-resize_3/001618_2014-06-20_11-37-31_260595134347_rgbf000027-resize_3-target.png,1000,1.3545,1.8725,1,2538,511,1019,972,1002,502,,,,,,1669219,1794070,35
857994,DepthScenes,v2_duration_discrimination,discrim_jsons/shuffled_g0_rotated_dr.json,http://54.211.221.249/DepthDuration/v2_depth_discrimination_MTurk/v2_DepthDiscrim_HTML.html#2,2,2560,1287,2560,1440,8-2-2021,8-55-38,7,depth_discrimination_stimuli/000502_2014-06-08_23-02-32_260595134347_rgbf000063-resize_4/000502_2014-06-08_23-02-32_260595134347_rgbf000063-resize_4-target.png,depth_discrimination_stimuli/001092_2014-06-15_17-34-58_260595134347_rgbf000171-resize_3/001092_2014-06-15_17-34-58_260595134347_rgbf000171-resize_3-target.png,250,2.431,2.6935,0,1752,501,254,1004,248,502,,,,,,1669219,1794070,35
857994,DepthScenes,v2_duration_discrimination,discrim_jsons/shuffled_g0_rotated_dr.json,http://54.211.221.249/DepthDuration/v2_depth_discrimination_MTurk/v2_DepthDiscrim_HTML.html#2,2,2560,1287,2560,1440,8-2-2021,8-55-38,8,depth_discrimination_stimuli/000454_2014-06-08_16-37-28_260595134347_rgbf000048-resize_2/000454_2014-06-08_16-37-28_260595134347_rgbf000048-resize_2-target.png,depth_discrimination_stimuli/000375_2014-06-08_11-17-29_260595134347_rgbf000133-resize_2/000375_2014-06-08_11-17-29_260595134347_rgbf000133-resize_2-target.png,1000,1.213,4.718,0,1968,514,987,1005,1005,502,,,,,,1669219,1794070,35
857994,DepthScenes,v2_duration_discrimination,discrim_jsons/shuffled_g0_rotated_dr.json,http://54.211.221.249/DepthDuration/v2_depth_discrimination_MTurk/v2_DepthDiscrim_HTML.html#2,2,2560,1287,2560,1440,8-2-2021,8-55-38,9,depth_discrimination_stimuli/000869_2014-06-09_20-50-18_260595134347_rgbf000060-resize_3/000869_2014-06-09_20-50-18_260595134347_rgbf000060-resize_3-target.png,depth_discrimination_stimuli/000800_2014-06-08_22-42-09_260595134347_rgbf000095-resize_3/000800_2014-06-08_22-42-09_260595134347_rgbf000095-resize_3-target.png,250,2.266,2.8,0,1435,511,247,1001,254,487,,,,,,1669219,1794070,35
857994,DepthScenes,v2_duration_discrimination,discrim_jsons/shuffled_g0_rotated_dr.json,http://54.211.221.249/DepthDuration/v2_depth_discrimination_MTurk/v2_DepthDiscrim_HTML.html#2,2,2560,1287,2560,1440,8-2-2021,8-55-38,10,depth_discrimination_stimuli/001056_2014-06-08_18-46-44_260595134347_rgbf000068-resize_0/001056_2014-06-08_18-46-44_260595134347_rgbf000068-resize_0-target.png,depth_discrimination_stimuli/000749_2014-06-08_21-55-06_260595134347_rgbf000070-resize_2/000749_2014-06-08_21-55-06_260595134347_rgbf000070-resize_2-target.png,250,2.6625,2.331,1,1817,507,246,1005,253,502,,,,,,1669219,1794070,35
857994,DepthScenes,v2_duration_discrimination,discrim_jsons/shuffled_g0_rotated_dr.json,http://54.211.221.249/DepthDuration/v2_depth_discrimination_MTurk/v2_DepthDiscrim_HTML.html#2,2,2560,1287,2560,1440,8-2-2021,8-55-38,11,depth_discrimination_stimuli/001055_2014-06-08_18-45-35_260595134347_rgbf000111-resize_4/001055_2014-06-08_18-45-35_260595134347_rgbf000111-resize_4-target.png,depth_discrimination_stimuli/000929_2014-06-09_16-33-19_260595134347_rgbf000139-resize_0/000929_2014-06-09_16-33-19_260595134347_rgbf000139-resize_0-target.png,250,2.429,2.868,0,1388,505,254,1003,248,501,,,,,,1669219,1794070,35
857994,DepthScenes,v2_duration_discrimination,discrim_jsons/shuffled_g0_rotated_dr.json,http://54.211.221.249/DepthDuration/v2_depth_discrimination_MTurk/v2_DepthDiscrim_HTML.html#2,2,2560,1287,2560,1440,8-2-2021,8-55-38,12,depth_discrimination_stimuli/000470_2014-06-09_19-42-40_260595134347_rgbf000094-resize_1/000470_2014-06-09_19-42-40_260595134347_rgbf000094-resize_1-target.png,depth_discrimination_stimuli/002953_2014-06-08_17-32-18_094959634447_rgbf000059-resize_5/002953_2014-06-08_17-32-18_094959634447_rgbf000059-resize_5-target.png,1000,1.831,1.551,0,1974,503,1000,1005,1003,501,,,,,,1669219,1794070,35
857994,DepthScenes,v2_duration_discrimination,discrim_jsons/shuffled_g0_rotated_dr.json,http://54.211.221.249/DepthDuration/v2_depth_discrimination_MTurk/v2_DepthDiscrim_HTML.html#2,2,2560,1287,2560,1440,8-2-2021,8-55-38,13,depth_discrimination_stimuli/002905_2014-06-03_18-04-43_094959634447_rgbf000151-resize_2/002905_2014-06-03_18-04-43_094959634447_rgbf000151-resize_2-target.png,depth_discrimination_stimuli/002340_2014-06-28_20-05-46_260595134347_rgbf000113-resize_0/002340_2014-06-28_20-05-46_260595134347_rgbf000113-resize_0-target.png,250,2.0295,2.4735,0,2045,512,238,1002,247,501,,,,,,1669219,1794070,35
857994,DepthScenes,v2_duration_discrimination,discrim_jsons/shuffled_g0_rotated_dr.json,http://54.211.221.249/DepthDuration/v2_depth_discrimination_MTurk/v2_DepthDiscrim_HTML.html#2,2,2560,1287,2560,1440,8-2-2021,8-55-38,14,depth_discrimination_stimuli/002039_2014-06-24_20-22-38_260595134347_rgbf000084-resize_1/002039_2014-06-24_20-22-38_260595134347_rgbf000084-resize_1-target.png,depth_discrimination_stimuli/000691_2014-06-08_13-08-50_260595134347_rgbf000132-resize_3/000691_2014-06-08_13-08-50_260595134347_rgbf000132-resize_3-target.png,250,4.408,4.153,1,1624,509,253,989,263,502,,,,,,1669219,1794070,35
857994,DepthScenes,v2_duration_discrimination,discrim_jsons/shuffled_g0_rotated_dr.json,http://54.211.221.249/DepthDuration/v2_depth_discrimination_MTurk/v2_DepthDiscrim_HTML.html#2,2,2560,1287,2560,1440,8-2-2021,8-55-38,15,depth_discrimination_stimuli/001164_2014-06-17_15-35-46_260595134347_rgbf000085-resize_3/001164_2014-06-17_15-35-46_260595134347_rgbf000085-resize_3-target.png,depth_discrimination_stimuli/002118_2014-06-25_20-32-08_260595134347_rgbf000078-resize_1/002118_2014-06-25_20-32-08_260595134347_rgbf000078-resize_1-target.png,250,2.354,2.646,0,1407,514,247,1002,237,501,,,,,,1669219,1794070,35
857994,DepthScenes,v2_duration_discrimination,discrim_jsons/shuffled_g0_rotated_dr.json,http://54.211.221.249/DepthDuration/v2_depth_discrimination_MTurk/v2_DepthDiscrim_HTML.html#2,2,2560,1287,2560,1440,8-2-2021,8-55-38,16,depth_discrimination_stimuli/000569_2014-06-09_22-51-47_260595134347_rgbf000141-resize_3/000569_2014-06-09_22-51-47_260595134347_rgbf000141-resize_3-target.png,depth_discrimination_stimuli/000868_2014-06-09_20-49-52_260595134347_rgbf000064-resize_4/000868_2014-06-09_20-49-52_260595134347_rgbf000064-resize_4-target.png,250,4.512,1.2815,1,1419,519,232,1002,247,502,,,,,,1669219,1794070,35
857994,DepthScenes,v2_duration_discrimination,discrim_jsons/shuffled_g0_rotated_dr.json,http://54.211.221.249/DepthDuration/v2_depth_discrimination_MTurk/v2_DepthDiscrim_HTML.html#2,2,2560,1287,2560,1440,8-2-2021,8-55-38,17,depth_discrimination_stimuli/000709_2014-06-08_13-51-55_260595134347_rgbf000068-resize_3/000709_2014-06-08_13-51-55_260595134347_rgbf000068-resize_3-target.png,depth_discrimination_stimuli/003587_2014-05-23_16-48-02_094959634447_rgbf002384-resize_2/003587_2014-05-23_16-48-02_094959634447_rgbf002384-resize_2-target.png,250,1.803,1.357,1,1523,503,253,1005,248,502,,,,,,1669219,1794070,35
857994,DepthScenes,v2_duration_discrimination,discrim_jsons/shuffled_g0_rotated_dr.json,http://54.211.221.249/DepthDuration/v2_depth_discrimination_MTurk/v2_DepthDiscrim_HTML.html#2,2,2560,1287,2560,1440,8-2-2021,8-55-38,18,depth_discrimination_stimuli/000409_2014-06-04_19-23-33_260595134347_rgbf000067-resize_0/000409_2014-06-04_19-23-33_260595134347_rgbf000067-resize_0-target.png,depth_discrimination_stimuli/000493_2014-06-09_21-01-18_260595134347_rgbf000196-resize_3/000493_2014-06-09_21-01-18_260595134347_rgbf000196-resize_3-target.png,1000,3.7335,3.44,0,2402,512,988,1001,1002,502,,,,,,1669219,1794070,35
857994,DepthScenes,v2_duration_discrimination,discrim_jsons/shuffled_g0_rotated_dr.json,http://54.211.221.249/DepthDuration/v2_depth_discrimination_MTurk/v2_DepthDiscrim_HTML.html#2,2,2560,1287,2560,1440,8-2-2021,8-55-38,19,depth_discrimination_stimuli/002675_2014-06-13_16-08-49_094959634447_rgbf000151-resize_2/002675_2014-06-13_16-08-49_094959634447_rgbf000151-resize_2-target.png,depth_discrimination_stimuli/001222_2014-06-17_16-24-06_260595134347_rgbf000073-resize_0/001222_2014-06-17_16-24-06_260595134347_rgbf000073-resize_0-target.png,1000,4.5065,1.4385,1,2166,507,1004,1003,986,503,,,,,,1669219,1794070,35
857994,DepthScenes,v2_duration_discrimination,discrim_jsons/shuffled_g0_rotated_dr.json,http://54.211.221.249/DepthDuration/v2_depth_discrimination_MTurk/v2_DepthDiscrim_HTML.html#2,2,2560,1287,2560,1440,8-2-2021,8-55-38,20,depth_discrimination_stimuli/001016_2014-06-09_16-16-10_260595134347_rgbf000112-resize_5/001016_2014-06-09_16-16-10_260595134347_rgbf000112-resize_5-target.png,depth_discrimination_stimuli/002199_2014-06-28_18-33-56_260595134347_rgbf000074-resize_0/002199_2014-06-28_18-33-56_260595134347_rgbf000074-resize_0-target.png,1000,1.6565,1.996,1,2011,503,1004,1003,1004,486,,,,,,1669219,1794070,35
857994,DepthScenes,v2_duration_discrimination,discrim_jsons/shuffled_g0_rotated_dr.json,http://54.211.221.249/DepthDuration/v2_depth_discrimination_MTurk/v2_DepthDiscrim_HTML.html#2,2,2560,1287,2560,1440,8-2-2021,8-55-38,21,depth_discrimination_stimuli/000542_2014-06-08_18-27-08_260595134347_rgbf000118-resize_1/000542_2014-06-08_18-27-08_260595134347_rgbf000118-resize_1-target.png,depth_discrimination_stimuli/003292_2014-05-14_21-53-49_094959634447_rgbf000100-resize_2/003292_2014-05-14_21-53-49_094959634447_rgbf000100-resize_2-target.png,250,3,3.4815,1,1849,519,232,1001,269,480,,,,,,1669219,1794070,35
857994,DepthScenes,v2_duration_discrimination,discrim_jsons/shuffled_g0_rotated_dr.json,http://54.211.221.249/DepthDuration/v2_depth_discrimination_MTurk/v2_DepthDiscrim_HTML.html#2,2,2560,1287,2560,1440,8-2-2021,8-55-38,22,depth_discrimination_stimuli/000866_2014-06-09_20-45-42_260595134347_rgbf000139-resize_1/000866_2014-06-09_20-45-42_260595134347_rgbf000139-resize_1-target.png,depth_discrimination_stimuli/003490_2014-05-21_15-50-11_094959634447_rgbf000101-resize_3/003490_2014-05-21_15-50-11_094959634447_rgbf000101-resize_3-target.png,250,3.2155,3.6445,0,1769,503,254,1005,246,502,,,,,,1669219,1794070,35
857994,DepthScenes,v2_duration_discrimination,discrim_jsons/shuffled_g0_rotated_dr.json,http://54.211.221.249/DepthDuration/v2_depth_discrimination_MTurk/v2_DepthDiscrim_HTML.html#2,2,2560,1287,2560,1440,8-2-2021,8-55-38,23,depth_discrimination_stimuli/002414_2014-06-28_20-24-58_260595134347_rgbf000067-resize_4/002414_2014-06-28_20-24-58_260595134347_rgbf000067-resize_4-target.png,depth_discrimination_stimuli/001450_2014-06-19_17-02-03_260595134347_rgbf000203-resize_4/001450_2014-06-19_17-02-03_260595134347_rgbf000203-resize_4-target.png,1000,4.363,4.0106666666667,0,2304,508,1002,1001,1004,502,,,,,,1669219,1794070,35
857994,DepthScenes,v2_duration_discrimination,discrim_jsons/shuffled_g0_rotated_dr.json,http://54.211.221.249/DepthDuration/v2_depth_discrimination_MTurk/v2_DepthDiscrim_HTML.html#2,2,2560,1287,2560,1440,8-2-2021,8-55-38,24,depth_discrimination_stimuli/001498_2014-06-19_17-45-14_260595134347_rgbf000129-resize_4/001498_2014-06-19_17-45-14_260595134347_rgbf000129-resize_4-target.png,depth_discrimination_stimuli/003125_2014-05-12_10-39-22_094959634447_rgbf000100-resize_0/003125_2014-05-12_10-39-22_094959634447_rgbf000100-resize_0-target.png,1000,1.4075,4.8655,0,2148,503,1003,1004,1004,502,,,,,,1669219,1794070,35
857994,DepthScenes,v2_duration_discrimination,discrim_jsons/shuffled_g0_rotated_dr.json,http://54.211.221.249/DepthDuration/v2_depth_discrimination_MTurk/v2_DepthDiscrim_HTML.html#2,2,2560,1287,2560,1440,8-2-2021,8-55-38,25,depth_discrimination_stimuli/002509_2014-06-24_13-19-22_094959634447_rgbf000077-resize_0/002509_2014-06-24_13-19-22_094959634447_rgbf000077-resize_0-target.png,depth_discrimination_stimuli/000549_2014-06-08_22-10-24_260595134347_rgbf000247-resize_3/000549_2014-06-08_22-10-24_260595134347_rgbf000247-resize_3-target.png,250,1.3065,1.841,1,1609,508,254,1003,247,501,,,,,,1669219,1794070,35
857994,DepthScenes,v2_duration_discrimination,discrim_jsons/shuffled_g0_rotated_dr.json,http://54.211.221.249/DepthDuration/v2_depth_discrimination_MTurk/v2_DepthDiscrim_HTML.html#2,2,2560,1287,2560,1440,8-2-2021,8-55-38,26,depth_discrimination_stimuli/001148_2014-06-17_15-26-42_260595134347_rgbf000129-resize_0/001148_2014-06-17_15-26-42_260595134347_rgbf000129-resize_0-target.png,depth_discrimination_stimuli/000556_2014-06-09_22-42-56_260595134347_rgbf000214-resize_1/000556_2014-06-09_22-42-56_260595134347_rgbf000214-resize_1-target.png,250,4.368,4.8415,0,2037,514,248,1004,237,503,,,,,,1669219,1794070,35
857994,DepthScenes,v2_duration_discrimination,discrim_jsons/shuffled_g0_rotated_dr.json,http://54.211.221.249/DepthDuration/v2_depth_discrimination_MTurk/v2_DepthDiscrim_HTML.html#2,2,2560,1287,2560,1440,8-2-2021,8-55-38,27,depth_discrimination_stimuli/001136_2014-06-17_15-19-41_260595134347_rgbf000076-resize_3/001136_2014-06-17_15-19-41_260595134347_rgbf000076-resize_3-target.png,depth_discrimination_stimuli/002549_2014-06-24_13-41-39_094959634447_rgbf000022-resize_3/002549_2014-06-24_13-41-39_094959634447_rgbf000022-resize_3-target.png,250,1.8655,1.476,1,1215,506,247,1001,254,502,,,,,,1669219,1794070,35
857994,DepthScenes,v2_duration_discrimination,discrim_jsons/shuffled_g0_rotated_dr.json,http://54.211.221.249/DepthDuration/v2_depth_discrimination_MTurk/v2_DepthDiscrim_HTML.html#2,2,2560,1287,2560,1440,8-2-2021,8-55-38,28,depth_discrimination_stimuli/002072_2014-06-24_21-48-06_260595134347_rgbf000115-resize_0/002072_2014-06-24_21-48-06_260595134347_rgbf000115-resize_0-target.png,depth_discrimination_stimuli/001012_2014-06-08_23-19-38_260595134347_rgbf000057-resize_0/001012_2014-06-08_23-19-38_260595134347_rgbf000057-resize_0-target.png,250,4.702,1.38325,1,1384,506,254,1005,247,503,,,,,,1669219,1794070,35
857994,DepthScenes,v2_duration_discrimination,discrim_jsons/shuffled_g0_rotated_dr.json,http://54.211.221.249/DepthDuration/v2_depth_discrimination_MTurk/v2_DepthDiscrim_HTML.html#2,2,2560,1287,2560,1440,8-2-2021,8-55-38,29,depth_discrimination_stimuli/001584_2014-06-20_11-07-43_260595134347_rgbf000002-resize_1/001584_2014-06-20_11-07-43_260595134347_rgbf000002-resize_1-target.png,depth_discrimination_stimuli/002805_2014-06-22_19-54-03_094959634447_rgbf000079-resize_1/002805_2014-06-22_19-54-03_094959634447_rgbf000079-resize_1-target.png,1000,3.53,3.144,0,2350,506,1002,1000,1003,501,,,,,,1669219,1794070,35
857994,DepthScenes,v2_duration_discrimination,discrim_jsons/shuffled_g0_rotated_dr.json,http://54.211.221.249/DepthDuration/v2_depth_discrimination_MTurk/v2_DepthDiscrim_HTML.html#2,2,2560,1287,2560,1440,8-2-2021,8-55-38,30,depth_discrimination_stimuli/002949_2014-06-26_15-57-42_094959634447_rgbf000079-resize_1/002949_2014-06-26_15-57-42_094959634447_rgbf000079-resize_1-target.png,depth_discrimination_stimuli/003495_2014-05-21_16-01-51_094959634447_rgbf000100-resize_3/003495_2014-05-21_16-01-51_094959634447_rgbf000100-resize_3-target.png,1000,1.8915,1.6255,1,2079,504,1004,1004,988,502,,,,,,1669219,1794070,35
857994,DepthScenes,v2_duration_discrimination,discrim_jsons/shuffled_g0_rotated_dr.json,http://54.211.221.249/DepthDuration/v2_depth_discrimination_MTurk/v2_DepthDiscrim_HTML.html#2,2,2560,1287,2560,1440,8-2-2021,8-55-38,31,depth_discrimination_stimuli/000137_2014-05-20_17-04-49_260595134347_rgbf000120-resize_1/000137_2014-05-20_17-04-49_260595134347_rgbf000120-resize_1-target.png,depth_discrimination_stimuli/003423_2014-05-21_10-23-26_094959634447_rgbf002665-resize_2/003423_2014-05-21_10-23-26_094959634447_rgbf002665-resize_2-target.png,1000,3.786,3.2575,0,2268,514,1001,987,1003,501,,,,,,1669219,1794070,35
857994,DepthScenes,v2_duration_discrimination,discrim_jsons/shuffled_g0_rotated_dr.json,http://54.211.221.249/DepthDuration/v2_depth_discrimination_MTurk/v2_DepthDiscrim_HTML.html#2,2,2560,1287,2560,1440,8-2-2021,8-55-38,32,depth_discrimination_stimuli/001235_2014-06-17_16-37-36_260595134347_rgbf000084-resize_4/001235_2014-06-17_16-37-36_260595134347_rgbf000084-resize_4-target.png,depth_discrimination_stimuli/001197_2014-06-17_16-01-50_260595134347_rgbf000103-resize_4/001197_2014-06-17_16-01-50_260595134347_rgbf000103-resize_4-target.png,1000,3.6605,3.4025,1,2377,503,1003,1003,1003,501,,,,,,1669219,1794070,35
857994,DepthScenes,v2_duration_discrimination,discrim_jsons/shuffled_g0_rotated_dr.json,http://54.211.221.249/DepthDuration/v2_depth_discrimination_MTurk/v2_DepthDiscrim_HTML.html#2,2,2560,1287,2560,1440,8-2-2021,8-55-38,33,depth_discrimination_stimuli/001133_2014-06-17_14-49-16_260595134347_rgbf000100-resize_0/001133_2014-06-17_14-49-16_260595134347_rgbf000100-resize_0-target.png,depth_discrimination_stimuli/002467_2014-06-28_20-38-07_260595134347_rgbf000026-resize_2/002467_2014-06-28_20-38-07_260595134347_rgbf000026-resize_2-target.png,1000,4.2115,4.742,0,2732,514,987,1004,1002,502,,,,,,1669219,1794070,35
857994,DepthScenes,v2_duration_discrimination,discrim_jsons/shuffled_g0_rotated_dr.json,http://54.211.221.249/DepthDuration/v2_depth_discrimination_MTurk/v2_DepthDiscrim_HTML.html#2,2,2560,1287,2560,1440,8-2-2021,8-55-38,34,depth_discrimination_stimuli/002748_2014-06-22_19-07-22_094959634447_rgbf000078-resize_1/002748_2014-06-22_19-07-22_094959634447_rgbf000078-resize_1-target.png,depth_discrimination_stimuli/001808_2014-06-26_20-50-58_260595134347_rgbf000029-resize_1/001808_2014-06-26_20-50-58_260595134347_rgbf000029-resize_1-target.png,1000,4.6705,4.249,1,2066,509,1003,989,1001,501,,,,,,1669219,1794070,35
857994,DepthScenes,v2_duration_discrimination,discrim_jsons/shuffled_g0_rotated_dr.json,http://54.211.221.249/DepthDuration/v2_depth_discrimination_MTurk/v2_DepthDiscrim_HTML.html#2,2,2560,1287,2560,1440,8-2-2021,8-55-38,35,depth_discrimination_stimuli/003395_2014-05-20_15-39-18_094959634447_rgbf000101-resize_0/003395_2014-05-20_15-39-18_094959634447_rgbf000101-resize_0-target.png,depth_discrimination_stimuli/001540_2014-06-20_17-01-05_260595134347_rgbf000086-resize_2/001540_2014-06-20_17-01-05_260595134347_rgbf000086-resize_2-target.png,1000,4.835,1.459,1,2090,509,1003,988,1004,502,,,,,,1669219,1794070,35
857994,DepthScenes,v2_duration_discrimination,discrim_jsons/shuffled_g0_rotated_dr.json,http://54.211.221.249/DepthDuration/v2_depth_discrimination_MTurk/v2_DepthDiscrim_HTML.html#2,2,2560,1287,2560,1440,8-2-2021,8-55-38,36,depth_discrimination_stimuli/001170_2014-06-17_15-43-44_260595134347_rgbf000096-resize_6/001170_2014-06-17_15-43-44_260595134347_rgbf000096-resize_6-target.png,depth_discrimination_stimuli/002364_2014-06-28_20-11-05_260595134347_rgbf000042-resize_0/002364_2014-06-28_20-11-05_260595134347_rgbf000042-resize_0-target.png,250,1.191,4.682,0,1535,516,247,988,254,502,,,,,,1669219,1794070,35
857994,DepthScenes,v2_duration_discrimination,discrim_jsons/shuffled_g0_rotated_dr.json,http://54.211.221.249/DepthDuration/v2_depth_discrimination_MTurk/v2_DepthDiscrim_HTML.html#2,2,2560,1287,2560,1440,8-2-2021,8-55-38,37,depth_discrimination_stimuli/002678_2014-06-13_16-15-32_094959634447_rgbf000151-resize_6/002678_2014-06-13_16-15-32_094959634447_rgbf000151-resize_6-target.png,depth_discrimination_stimuli/000927_2014-06-09_16-32-30_260595134347_rgbf000123-resize_3/000927_2014-06-09_16-32-30_260595134347_rgbf000123-resize_3-target.png,1000,2.183,2.6785,1,1965,503,1003,1004,1002,500,,,,,,1669219,1794070,35
857994,DepthScenes,v2_duration_discrimination,discrim_jsons/shuffled_g0_rotated_dr.json,http://54.211.221.249/DepthDuration/v2_depth_discrimination_MTurk/v2_DepthDiscrim_HTML.html#2,2,2560,1287,2560,1440,8-2-2021,8-55-38,38,depth_discrimination_stimuli/003081_2014-06-15_15-19-16_094959634447_rgbf000150-resize_1/003081_2014-06-15_15-19-16_094959634447_rgbf000150-resize_1-target.png,depth_discrimination_stimuli/002660_2014-06-13_15-44-18_094959634447_rgbf001878-resize_2/002660_2014-06-13_15-44-18_094959634447_rgbf001878-resize_2-target.png,250,3.9125,3.576,1,1631,510,254,1003,247,501,,,,,,1669219,1794070,35
857994,DepthScenes,v2_duration_discrimination,discrim_jsons/shuffled_g0_rotated_dr.json,http://54.211.221.249/DepthDuration/v2_depth_discrimination_MTurk/v2_DepthDiscrim_HTML.html#2,2,2560,1287,2560,1440,8-2-2021,8-55-38,39,depth_discrimination_stimuli/001181_2014-06-17_15-50-57_260595134347_rgbf000106-resize_4/001181_2014-06-17_15-50-57_260595134347_rgbf000106-resize_4-target.png,depth_discrimination_stimuli/001158_2014-06-17_15-32-16_260595134347_rgbf000138-resize_2/001158_2014-06-17_15-32-16_260595134347_rgbf000138-resize_2-target.png,1000,4.149,4.5315,0,2096,506,1004,1004,986,502,,,,,,1669219,1794070,35
857994,DepthScenes,v2_duration_discrimination,discrim_jsons/shuffled_g0_rotated_dr.json,http://54.211.221.249/DepthDuration/v2_depth_discrimination_MTurk/v2_DepthDiscrim_HTML.html#2,2,2560,1287,2560,1440,8-2-2021,8-55-38,40,depth_discrimination_stimuli/001032_2014-06-08_13-23-17_260595134347_rgbf000021-resize_3/001032_2014-06-08_13-23-17_260595134347_rgbf000021-resize_3-target.png,depth_discrimination_stimuli/002323_2014-06-28_20-01-54_260595134347_rgbf000051-resize_4/002323_2014-06-28_20-01-54_260595134347_rgbf000051-resize_4-target.png,1000,3.2725,3.731,0,2134,509,1005,987,1004,501,,,,,,1669219,1794070,35
857994,DepthScenes,v2_duration_discrimination,discrim_jsons/shuffled_g0_rotated_dr.json,http://54.211.221.249/DepthDuration/v2_depth_discrimination_MTurk/v2_DepthDiscrim_HTML.html#2,2,2560,1287,2560,1440,8-2-2021,8-55-38,40,,,,,,,2134,509,1005,987,1004,501,,,,,,1669219,1794070,35
857994,DepthScenes,v2_duration_discrimination,discrim_jsons/shuffled_g0_rotated_dr.json,http://54.211.221.249/DepthDuration/v2_depth_discrimination_MTurk/v2_DepthDiscrim_HTML.html#2,2,2560,1287,2560,1440,8-2-2021,8-55-38,42,,,,,,,2134,509,1005,987,1004,501,,2,4,depth_discrimination_stimuli/001806_2014-06-26_20-50-20_260595134347_rgbf000091-resize_1/001806_2014-06-26_20-50-20_260595134347_rgbf000091-resize-original.jpg,12522,1669219,1794070,35
857994,DepthScenes,v2_duration_discrimination,discrim_jsons/shuffled_g0_rotated_dr.json,http://54.211.221.249/DepthDuration/v2_depth_discrimination_MTurk/v2_DepthDiscrim_HTML.html#2,2,2560,1287,2560,1440,8-2-2021,8-55-38,43,,,,,,,2134,509,1005,987,1004,501,,1,5,depth_discrimination_stimuli/000906_2014-06-08_13-35-43_260595134347_rgbf000155-resize_1/000906_2014-06-08_13-35-43_260595134347_rgbf000155-resize-original.jpg,7955,1669219,1794070,35
857994,DepthScenes,v2_duration_discrimination,discrim_jsons/shuffled_g0_rotated_dr.json,http://54.211.221.249/DepthDuration/v2_depth_discrimination_MTurk/v2_DepthDiscrim_HTML.html#2,2,2560,1287,2560,1440,8-2-2021,8-55-38,44,,,,,,,2134,509,1005,987,1004,501,,1,5,depth_discrimination_stimuli/003587_2014-05-23_16-48-02_094959634447_rgbf002384-resize_2/003587_2014-05-23_16-48-02_094959634447_rgbf002384-resize-original.jpg,4970,1669219,1794070,35
857994,DepthScenes,v2_duration_discrimination,discrim_jsons/shuffled_g0_rotated_dr.json,http://54.211.221.249/DepthDuration/v2_depth_discrimination_MTurk/v2_DepthDiscrim_HTML.html#2,2,2560,1287,2560,1440,8-2-2021,8-55-38,45,,,,,,,2134,509,1005,987,1004,501,,2,4,depth_discrimination_stimuli/001011_2014-06-08_23-18-54_260595134347_rgbf000044-resize_4/001011_2014-06-08_23-18-54_260595134347_rgbf000044-resize-original.jpg,6755,1669219,1794070,35
857994,DepthScenes,v2_duration_discrimination,discrim_jsons/shuffled_g0_rotated_dr.json,http://54.211.221.249/DepthDuration/v2_depth_discrimination_MTurk/v2_DepthDiscrim_HTML.html#2,2,2560,1287,2560,1440,8-2-2021,8-55-38,46,,,,,,,2134,509,1005,987,1004,501,,2,4,depth_discrimination_stimuli/001235_2014-06-17_16-37-36_260595134347_rgbf000084-resize_4/001235_2014-06-17_16-37-36_260595134347_rgbf000084-resize-original.jpg,7673,1669219,1794070,35
857994,DepthScenes,v2_duration_discrimination,discrim_jsons/shuffled_g0_rotated_dr.json,http://54.211.221.249/DepthDuration/v2_depth_discrimination_MTurk/v2_DepthDiscrim_HTML.html#2,2,2560,1287,2560,1440,8-2-2021,8-55-38,47,,,,,,,2134,509,1005,987,1004,501,,1,4,depth_discrimination_stimuli/002549_2014-06-24_13-41-39_094959634447_rgbf000022-resize_3/002549_2014-06-24_13-41-39_094959634447_rgbf000022-resize-original.jpg,8368,1669219,1794070,35
857994,DepthScenes,v2_duration_discrimination,discrim_jsons/shuffled_g0_rotated_dr.json,http://54.211.221.249/DepthDuration/v2_depth_discrimination_MTurk/v2_DepthDiscrim_HTML.html#2,2,2560,1287,2560,1440,8-2-2021,8-55-38,48,,,,,,,2134,509,1005,987,1004,501,,1,4,depth_discrimination_stimuli/001571_2014-06-20_17-21-32_260595134347_rgbf000089-resize_1/001571_2014-06-20_17-21-32_260595134347_rgbf000089-resize-original.jpg,10566,1669219,1794070,35
857994,DepthScenes,v2_duration_discrimination,discrim_jsons/shuffled_g0_rotated_dr.json,http://54.211.221.249/DepthDuration/v2_depth_discrimination_MTurk/v2_DepthDiscrim_HTML.html#2,2,2560,1287,2560,1440,8-2-2021,8-55-38,49,,,,,,,2134,509,1005,987,1004,501,,2,4,depth_discrimination_stimuli/000409_2014-06-04_19-23-33_260595134347_rgbf000067-resize_0/000409_2014-06-04_19-23-33_260595134347_rgbf000067-resize-original.jpg,11671,1669219,1794070,35
857994,DepthScenes,v2_duration_discrimination,discrim_jsons/shuffled_g0_rotated_dr.json,http://54.211.221.249/DepthDuration/v2_depth_discrimination_MTurk/v2_DepthDiscrim_HTML.html#2,2,2560,1287,2560,1440,8-2-2021,8-55-38,50,,,,,,,2134,509,1005,987,1004,501,,2,3,depth_discrimination_stimuli/000740_2014-06-08_18-46-23_260595134347_rgbf000049-resize_6/000740_2014-06-08_18-46-23_260595134347_rgbf000049-resize-original.jpg,7390,1669219,1794070,35
857994,DepthScenes,v2_duration_discrimination,discrim_jsons/shuffled_g0_rotated_dr.json,http://54.211.221.249/DepthDuration/v2_depth_discrimination_MTurk/v2_DepthDiscrim_HTML.html#2,2,2560,1287,2560,1440,8-2-2021,8-55-38,51,,,,,,,2134,509,1005,987,1004,501,,1,4,depth_discrimination_stimuli/002057_2014-06-24_21-00-13_260595134347_rgbf000120-resize_1/002057_2014-06-24_21-00-13_260595134347_rgbf000120-resize-original.jpg,6178,1669219,1794070,35
857994,DepthScenes,v2_duration_discrimination,discrim_jsons/shuffled_g0_rotated_dr.json,http://54.211.221.249/DepthDuration/v2_depth_discrimination_MTurk/v2_DepthDiscrim_HTML.html#2,2,2560,1287,2560,1440,8-2-2021,8-55-38,52,,,,,,,2134,509,1005,987,1004,501,,1,4,depth_discrimination_stimuli/000753_2014-06-08_21-57-44_260595134347_rgbf000123-resize_3/000753_2014-06-08_21-57-44_260595134347_rgbf000123-resize-original.jpg,4934,1669219,1794070,35
857994,DepthScenes,v2_duration_discrimination,discrim_jsons/shuffled_g0_rotated_dr.json,http://54.211.221.249/DepthDuration/v2_depth_discrimination_MTurk/v2_DepthDiscrim_HTML.html#2,2,2560,1287,2560,1440,8-2-2021,8-55-38,53,,,,,,,2134,509,1005,987,1004,501,,2,4,depth_discrimination_stimuli/000758_2014-06-08_22-05-08_260595134347_rgbf000085-resize_0/000758_2014-06-08_22-05-08_260595134347_rgbf000085-resize-original.jpg,4886,1669219,1794070,35
857994,DepthScenes,v2_duration_discrimination,discrim_jsons/shuffled_g0_rotated_dr.json,http://54.211.221.249/DepthDuration/v2_depth_discrimination_MTurk/v2_DepthDiscrim_HTML.html#2,2,2560,1287,2560,1440,8-2-2021,8-55-38,54,,,,,,,2134,509,1005,987,1004,501,,2,3,scene_property_catch_stimuli/sun_bpzzatthlcapxzol.jpg,9824,1669219,1794070,35
857994,DepthScenes,v2_duration_discrimination,discrim_jsons/shuffled_g0_rotated_dr.json,http://54.211.221.249/DepthDuration/v2_depth_discrimination_MTurk/v2_DepthDiscrim_HTML.html#2,2,2560,1287,2560,1440,8-2-2021,8-55-38,55,,,,,,,2134,509,1005,987,1004,501,,3,3,depth_discrimination_stimuli/001133_2014-06-17_14-49-16_260595134347_rgbf000100-resize_0/001133_2014-06-17_14-49-16_260595134347_rgbf000100-resize-original.jpg,6764,1669219,1794070,35
857994,DepthScenes,v2_duration_discrimination,discrim_jsons/shuffled_g0_rotated_dr.json,http://54.211.221.249/DepthDuration/v2_depth_discrimination_MTurk/v2_DepthDiscrim_HTML.html#2,2,2560,1287,2560,1440,8-2-2021,8-55-38,56,,,,,,,2134,509,1005,987,1004,501,,3,2,depth_discrimination_stimuli/002468_2014-06-28_20-38-39_260595134347_rgbf000045-resize_1/002468_2014-06-28_20-38-39_260595134347_rgbf000045-resize-original.jpg,8441,1669219,1794070,35
857994,DepthScenes,v2_duration_discrimination,discrim_jsons/shuffled_g0_rotated_dr.json,http://54.211.221.249/DepthDuration/v2_depth_discrimination_MTurk/v2_DepthDiscrim_HTML.html#2,2,2560,1287,2560,1440,8-2-2021,8-55-38,57,,,,,,,2134,509,1005,987,1004,501,,3,3,scene_property_catch_stimuli/sun_aatxlublfjchvvzu.jpg,9784,1669219,1794070,35
857994,DepthScenes,v2_duration_discrimination,discrim_jsons/shuffled_g0_rotated_dr.json,http://54.211.221.249/DepthDuration/v2_depth_discrimination_MTurk/v2_DepthDiscrim_HTML.html#2,2,2560,1287,2560,1440,8-2-2021,8-55-38,58,,,,,,,2134,509,1005,987,1004,501,,1,4,depth_discrimination_stimuli/000869_2014-06-09_20-50-18_260595134347_rgbf000060-resize_3/000869_2014-06-09_20-50-18_260595134347_rgbf000060-resize-original.jpg,4468,1669219,1794070,35
857994,DepthScenes,v2_duration_discrimination,discrim_jsons/shuffled_g0_rotated_dr.json,http://54.211.221.249/DepthDuration/v2_depth_discrimination_MTurk/v2_DepthDiscrim_HTML.html#2,2,2560,1287,2560,1440,8-2-2021,8-55-38,59,,,,,,,2134,509,1005,987,1004,501,,2,4,depth_discrimination_stimuli/001197_2014-06-17_16-01-50_260595134347_rgbf000103-resize_4/001197_2014-06-17_16-01-50_260595134347_rgbf000103-resize-original.jpg,9277,1669219,1794070,35
857994,DepthScenes,v2_duration_discrimination,discrim_jsons/shuffled_g0_rotated_dr.json,http://54.211.221.249/DepthDuration/v2_depth_discrimination_MTurk/v2_DepthDiscrim_HTML.html#2,2,2560,1287,2560,1440,8-2-2021,8-55-38,60,,,,,,,2134,509,1005,987,1004,501,,1,5,depth_discrimination_stimuli/000469_2014-06-09_19-42-10_260595134347_rgbf000081-resize_1/000469_2014-06-09_19-42-10_260595134347_rgbf000081-resize-original.jpg,4753,1669219,1794070,35
857994,DepthScenes,v2_duration_discrimination,discrim_jsons/shuffled_g0_rotated_dr.json,http://54.211.221.249/DepthDuration/v2_depth_discrimination_MTurk/v2_DepthDiscrim_HTML.html#2,2,2560,1287,2560,1440,8-2-2021,8-55-38,61,,,,,,,2134,509,1005,987,1004,501,,1,5,depth_discrimination_stimuli/001584_2014-06-20_11-07-43_260595134347_rgbf000002-resize_1/001584_2014-06-20_11-07-43_260595134347_rgbf000002-resize-original.jpg,3309,1669219,1794070,35
857994,DepthScenes,v2_duration_discrimination,discrim_jsons/shuffled_g0_rotated_dr.json,http://54.211.221.249/DepthDuration/v2_depth_discrimination_MTurk/v2_DepthDiscrim_HTML.html#2,2,2560,1287,2560,1440,8-2-2021,8-55-38,62,,,,,,,2134,509,1005,987,1004,501,,3,3,depth_discrimination_stimuli/000830_2014-06-04_19-49-31_260595134347_rgbf000096-resize_2/000830_2014-06-04_19-49-31_260595134347_rgbf000096-resize-original.jpg,6344,1669219,1794070,35
857994,DepthScenes,v2_duration_discrimination,discrim_jsons/shuffled_g0_rotated_dr.json,http://54.211.221.249/DepthDuration/v2_depth_discrimination_MTurk/v2_DepthDiscrim_HTML.html#2,2,2560,1287,2560,1440,8-2-2021,8-55-38,63,,,,,,,2134,509,1005,987,1004,501,,3,3,depth_discrimination_stimuli/002545_2014-06-24_13-38-53_094959634447_rgbf000080-resize_4/002545_2014-06-24_13-38-53_094959634447_rgbf000080-resize-original.jpg,8743,1669219,1794070,35
857994,DepthScenes,v2_duration_discrimination,discrim_jsons/shuffled_g0_rotated_dr.json,http://54.211.221.249/DepthDuration/v2_depth_discrimination_MTurk/v2_DepthDiscrim_HTML.html#2,2,2560,1287,2560,1440,8-2-2021,8-55-38,64,,,,,,,2134,509,1005,987,1004,501,,1,4,depth_discrimination_stimuli/000854_2014-06-09_19-43-13_260595134347_rgbf000066-resize_0/000854_2014-06-09_19-43-13_260595134347_rgbf000066-resize-original.jpg,7611,1669219,1794070,35
857994,DepthScenes,v2_duration_discrimination,discrim_jsons/shuffled_g0_rotated_dr.json,http://54.211.221.249/DepthDuration/v2_depth_discrimination_MTurk/v2_DepthDiscrim_HTML.html#2,2,2560,1287,2560,1440,8-2-2021,8-55-38,65,,,,,,,2134,509,1005,987,1004,501,,2,4,depth_discrimination_stimuli/000368_2014-06-09_15-53-01_260595134347_rgbf000155-resize_2/000368_2014-06-09_15-53-01_260595134347_rgbf000155-resize-original.jpg,5376,1669219,1794070,35
857994,DepthScenes,v2_duration_discrimination,discrim_jsons/shuffled_g0_rotated_dr.json,http://54.211.221.249/DepthDuration/v2_depth_discrimination_MTurk/v2_DepthDiscrim_HTML.html#2,2,2560,1287,2560,1440,8-2-2021,8-55-38,66,,,,,,,2134,509,1005,987,1004,501,,2,2,depth_discrimination_stimuli/002213_2014-06-28_18-37-58_260595134347_rgbf000055-resize_1/002213_2014-06-28_18-37-58_260595134347_rgbf000055-resize-original.jpg,7843,1669219,1794070,35
857994,DepthScenes,v2_duration_discrimination,discrim_jsons/shuffled_g0_rotated_dr.json,http://54.211.221.249/DepthDuration/v2_depth_discrimination_MTurk/v2_DepthDiscrim_HTML.html#2,2,2560,1287,2560,1440,8-2-2021,8-55-38,67,,,,,,,2134,509,1005,987,1004,501,,3,2,depth_discrimination_stimuli/002375_2014-06-28_20-13-44_260595134347_rgbf000032-resize_1/002375_2014-06-28_20-13-44_260595134347_rgbf000032-resize-original.jpg,5518,1669219,1794070,35
857994,DepthScenes,v2_duration_discrimination,discrim_jsons/shuffled_g0_rotated_dr.json,http://54.211.221.249/DepthDuration/v2_depth_discrimination_MTurk/v2_DepthDiscrim_HTML.html#2,2,2560,1287,2560,1440,8-2-2021,8-55-38,68,,,,,,,2134,509,1005,987,1004,501,,3,2,depth_discrimination_stimuli/002995_2014-06-15_12-31-26_094959634447_rgbf000150-resize_1/002995_2014-06-15_12-31-26_094959634447_rgbf000150-resize-original.jpg,5201,1669219,1794070,35
857994,DepthScenes,v2_duration_discrimination,discrim_jsons/shuffled_g0_rotated_dr.json,http://54.211.221.249/DepthDuration/v2_depth_discrimination_MTurk/v2_DepthDiscrim_HTML.html#2,2,2560,1287,2560,1440,8-2-2021,8-55-38,69,,,,,,,2134,509,1005,987,1004,501,,1,2,depth_discrimination_stimuli/000739_2014-06-08_18-45-58_260595134347_rgbf000068-resize_1/000739_2014-06-08_18-45-58_260595134347_rgbf000068-resize-original.jpg,4464,1669219,1794070,35
857994,DepthScenes,v2_duration_discrimination,discrim_jsons/shuffled_g0_rotated_dr.json,http://54.211.221.249/DepthDuration/v2_depth_discrimination_MTurk/v2_DepthDiscrim_HTML.html#2,2,2560,1287,2560,1440,8-2-2021,8-55-38,70,,,,,,,2134,509,1005,987,1004,501,,2,4,depth_discrimination_stimuli/001188_2014-06-17_15-54-10_260595134347_rgbf000090-resize_2/001188_2014-06-17_15-54-10_260595134347_rgbf000090-resize-original.jpg,6426,1669219,1794070,35
857994,DepthScenes,v2_duration_discrimination,discrim_jsons/shuffled_g0_rotated_dr.json,http://54.211.221.249/DepthDuration/v2_depth_discrimination_MTurk/v2_DepthDiscrim_HTML.html#2,2,2560,1287,2560,1440,8-2-2021,8-55-38,71,,,,,,,2134,509,1005,987,1004,501,,2,3,depth_discrimination_stimuli/002136_2014-06-25_21-18-03_260595134347_rgbf000109-resize_3/002136_2014-06-25_21-18-03_260595134347_rgbf000109-resize-original.jpg,7403,1669219,1794070,35
857994,DepthScenes,v2_duration_discrimination,discrim_jsons/shuffled_g0_rotated_dr.json,http://54.211.221.249/DepthDuration/v2_depth_discrimination_MTurk/v2_DepthDiscrim_HTML.html#2,2,2560,1287,2560,1440,8-2-2021,8-55-38,72,,,,,,,2134,509,1005,987,1004,501,,1,4,depth_discrimination_stimuli/001132_2014-06-17_14-48-54_260595134347_rgbf000100-resize_2/001132_2014-06-17_14-48-54_260595134347_rgbf000100-resize-original.jpg,7652,1669219,1794070,35
857994,DepthScenes,v2_duration_discrimination,discrim_jsons/shuffled_g0_rotated_dr.json,http://54.211.221.249/DepthDuration/v2_depth_discrimination_MTurk/v2_DepthDiscrim_HTML.html#2,2,2560,1287,2560,1440,8-2-2021,8-55-38,73,,,,,,,2134,509,1005,987,1004,501,,3,3,depth_discrimination_stimuli/001447_2014-06-19_17-00-32_260595134347_rgbf000082-resize_5/001447_2014-06-19_17-00-32_260595134347_rgbf000082-resize-original.jpg,9128,1669219,1794070,35
857994,DepthScenes,v2_duration_discrimination,discrim_jsons/shuffled_g0_rotated_dr.json,http://54.211.221.249/DepthDuration/v2_depth_discrimination_MTurk/v2_DepthDiscrim_HTML.html#2,2,2560,1287,2560,1440,8-2-2021,8-55-38,74,,,,,,,2134,509,1005,987,1004,501,,3,3,depth_discrimination_stimuli/000735_2014-06-08_18-23-50_260595134347_rgbf000163-resize_2/000735_2014-06-08_18-23-50_260595134347_rgbf000163-resize-original.jpg,8365,1669219,1794070,35
857994,DepthScenes,v2_duration_discrimination,discrim_jsons/shuffled_g0_rotated_dr.json,http://54.211.221.249/DepthDuration/v2_depth_discrimination_MTurk/v2_DepthDiscrim_HTML.html#2,2,2560,1287,2560,1440,8-2-2021,8-55-38,75,,,,,,,2134,509,1005,987,1004,501,,2,4,depth_discrimination_stimuli/000691_2014-06-08_13-08-50_260595134347_rgbf000132-resize_3/000691_2014-06-08_13-08-50_260595134347_rgbf000132-resize-original.jpg,4233,1669219,1794070,35
857994,DepthScenes,v2_duration_discrimination,discrim_jsons/shuffled_g0_rotated_dr.json,http://54.211.221.249/DepthDuration/v2_depth_discrimination_MTurk/v2_DepthDiscrim_HTML.html#2,2,2560,1287,2560,1440,8-2-2021,8-55-38,76,,,,,,,2134,509,1005,987,1004,501,,1,5,depth_discrimination_stimuli/001617_2014-06-20_11-35-32_260595134347_rgbf000066-resize_1/001617_2014-06-20_11-35-32_260595134347_rgbf000066-resize-original.jpg,4128,1669219,1794070,35
857994,DepthScenes,v2_duration_discrimination,discrim_jsons/shuffled_g0_rotated_dr.json,http://54.211.221.249/DepthDuration/v2_depth_discrimination_MTurk/v2_DepthDiscrim_HTML.html#2,2,2560,1287,2560,1440,8-2-2021,8-55-38,77,,,,,,,2134,509,1005,987,1004,501,,3,4,depth_discrimination_stimuli/001815_2014-06-26_20-52-55_260595134347_rgbf000020-resize_0/001815_2014-06-26_20-52-55_260595134347_rgbf000020-resize-original.jpg,7160,1669219,1794070,35
857994,DepthScenes,v2_duration_discrimination,discrim_jsons/shuffled_g0_rotated_dr.json,http://54.211.221.249/DepthDuration/v2_depth_discrimination_MTurk/v2_DepthDiscrim_HTML.html#2,2,2560,1287,2560,1440,8-2-2021,8-55-38,78,,,,,,,2134,509,1005,987,1004,501,,2,4,depth_discrimination_stimuli/002568_2014-06-24_13-59-21_094959634447_rgbf000062-resize_4/002568_2014-06-24_13-59-21_094959634447_rgbf000062-resize-original.jpg,4736,1669219,1794070,35
857994,DepthScenes,v2_duration_discrimination,discrim_jsons/shuffled_g0_rotated_dr.json,http://54.211.221.249/DepthDuration/v2_depth_discrimination_MTurk/v2_DepthDiscrim_HTML.html#2,2,2560,1287,2560,1440,8-2-2021,8-55-38,79,,,,,,,2134,509,1005,987,1004,501,,3,2,depth_discrimination_stimuli/002657_2014-06-13_15-29-54_094959634447_rgbf000150-resize_1/002657_2014-06-13_15-29-54_094959634447_rgbf000150-resize-original.jpg,9197,1669219,1794070,35
857994,DepthScenes,v2_duration_discrimination,discrim_jsons/shuffled_g0_rotated_dr.json,http://54.211.221.249/DepthDuration/v2_depth_discrimination_MTurk/v2_DepthDiscrim_HTML.html#2,2,2560,1287,2560,1440,8-2-2021,8-55-38,80,,,,,,,2134,509,1005,987,1004,501,,1,3,depth_discrimination_stimuli/001167_2014-06-17_15-38-07_260595134347_rgbf000108-resize_0/001167_2014-06-17_15-38-07_260595134347_rgbf000108-resize-original.jpg,6090,1669219,1794070,35
857994,DepthScenes,v2_duration_discrimination,discrim_jsons/shuffled_g0_rotated_dr.json,http://54.211.221.249/DepthDuration/v2_depth_discrimination_MTurk/v2_DepthDiscrim_HTML.html#2,2,2560,1287,2560,1440,8-2-2021,8-55-38,81,,,,,,,2134,509,1005,987,1004,501,,1,4,depth_discrimination_stimuli/001532_2014-06-20_16-50-41_260595134347_rgbf000081-resize_4/001532_2014-06-20_16-50-41_260595134347_rgbf000081-resize-original.jpg,4518,1669219,1794070,35
857994,DepthScenes,v2_duration_discrimination,discrim_jsons/shuffled_g0_rotated_dr.json,http://54.211.221.249/DepthDuration/v2_depth_discrimination_MTurk/v2_DepthDiscrim_HTML.html#2,2,2560,1287,2560,1440,8-2-2021,8-55-38,82,,,,,,,2134,509,1005,987,1004,501,,1,4,depth_discrimination_stimuli/001148_2014-06-17_15-26-42_260595134347_rgbf000129-resize_0/001148_2014-06-17_15-26-42_260595134347_rgbf000129-resize-original.jpg,3737,1669219,1794070,35
857994,DepthScenes,v2_duration_discrimination,discrim_jsons/shuffled_g0_rotated_dr.json,http://54.211.221.249/DepthDuration/v2_depth_discrimination_MTurk/v2_DepthDiscrim_HTML.html#2,2,2560,1287,2560,1440,8-2-2021,8-55-38,83,,,,,,,2134,509,1005,987,1004,501,,3,3,depth_discrimination_stimuli/000749_2014-06-08_21-55-06_260595134347_rgbf000070-resize_2/000749_2014-06-08_21-55-06_260595134347_rgbf000070-resize-original.jpg,5790,1669219,1794070,35
857994,DepthScenes,v2_duration_discrimination,discrim_jsons/shuffled_g0_rotated_dr.json,http://54.211.221.249/DepthDuration/v2_depth_discrimination_MTurk/v2_DepthDiscrim_HTML.html#2,2,2560,1287,2560,1440,8-2-2021,8-55-38,84,,,,,,,2134,509,1005,987,1004,501,,2,3,depth_discrimination_stimuli/002425_2014-06-28_20-27-29_260595134347_rgbf000031-resize_8/002425_2014-06-28_20-27-29_260595134347_rgbf000031-resize-original.jpg,6219,1669219,1794070,35
857994,DepthScenes,v2_duration_discrimination,discrim_jsons/shuffled_g0_rotated_dr.json,http://54.211.221.249/DepthDuration/v2_depth_discrimination_MTurk/v2_DepthDiscrim_HTML.html#2,2,2560,1287,2560,1440,8-2-2021,8-55-38,85,,,,,,,2134,509,1005,987,1004,501,,3,2,depth_discrimination_stimuli/001032_2014-06-08_13-23-17_260595134347_rgbf000021-resize_3/001032_2014-06-08_13-23-17_260595134347_rgbf000021-resize-original.jpg,6808,1669219,1794070,35
857994,DepthScenes,v2_duration_discrimination,discrim_jsons/shuffled_g0_rotated_dr.json,http://54.211.221.249/DepthDuration/v2_depth_discrimination_MTurk/v2_DepthDiscrim_HTML.html#2,2,2560,1287,2560,1440,8-2-2021,8-55-38,86,,,,,,,2134,509,1005,987,1004,501,,3,3,depth_discrimination_stimuli/002467_2014-06-28_20-38-07_260595134347_rgbf000026-resize_2/002467_2014-06-28_20-38-07_260595134347_rgbf000026-resize-original.jpg,6846,1669219,1794070,35
857994,DepthScenes,v2_duration_discrimination,discrim_jsons/shuffled_g0_rotated_dr.json,http://54.211.221.249/DepthDuration/v2_depth_discrimination_MTurk/v2_DepthDiscrim_HTML.html#2,2,2560,1287,2560,1440,8-2-2021,8-55-38,87,,,,,,,2134,509,1005,987,1004,501,,3,4,depth_discrimination_stimuli/001110_2014-06-15_17-25-28_260595134347_rgbf000150-resize_1/001110_2014-06-15_17-25-28_260595134347_rgbf000150-resize-original.jpg,5797,1669219,1794070,35
857994,DepthScenes,v2_duration_discrimination,discrim_jsons/shuffled_g0_rotated_dr.json,http://54.211.221.249/DepthDuration/v2_depth_discrimination_MTurk/v2_DepthDiscrim_HTML.html#2,2,2560,1287,2560,1440,8-2-2021,8-55-38,88,,,,,,,2134,509,1005,987,1004,501,,2,2,depth_discrimination_stimuli/002964_2014-06-08_17-46-11_094959634447_rgbf000091-resize_4/002964_2014-06-08_17-46-11_094959634447_rgbf000091-resize-original.jpg,5175,1669219,1794070,35
857994,DepthScenes,v2_duration_discrimination,discrim_jsons/shuffled_g0_rotated_dr.json,http://54.211.221.249/DepthDuration/v2_depth_discrimination_MTurk/v2_DepthDiscrim_HTML.html#2,2,2560,1287,2560,1440,8-2-2021,8-55-38,89,,,,,,,2134,509,1005,987,1004,501,,2,4,depth_discrimination_stimuli/003129_2014-05-12_10-48-10_094959634447_rgbf000100-resize_0/003129_2014-05-12_10-48-10_094959634447_rgbf000100-resize-original.jpg,8378,1669219,1794070,35
857994,DepthScenes,v2_duration_discrimination,discrim_jsons/shuffled_g0_rotated_dr.json,http://54.211.221.249/DepthDuration/v2_depth_discrimination_MTurk/v2_DepthDiscrim_HTML.html#2,2,2560,1287,2560,1440,8-2-2021,8-55-38,90,,,,,,,2134,509,1005,987,1004,501,,1,5,depth_discrimination_stimuli/001449_2014-06-19_17-01-27_260595134347_rgbf000116-resize_2/001449_2014-06-19_17-01-27_260595134347_rgbf000116-resize-original.jpg,8590,1669219,1794070,35
857994,DepthScenes,v2_duration_discrimination,discrim_jsons/shuffled_g0_rotated_dr.json,http://54.211.221.249/DepthDuration/v2_depth_discrimination_MTurk/v2_DepthDiscrim_HTML.html#2,2,2560,1287,2560,1440,8-2-2021,8-55-38,91,,,,,,,2134,509,1005,987,1004,501,,1,4,depth_discrimination_stimuli/001016_2014-06-09_16-16-10_260595134347_rgbf000112-resize_5/001016_2014-06-09_16-16-10_260595134347_rgbf000112-resize-original.jpg,6515,1669219,1794070,35
857994,DepthScenes,v2_duration_discrimination,discrim_jsons/shuffled_g0_rotated_dr.json,http://54.211.221.249/DepthDuration/v2_depth_discrimination_MTurk/v2_DepthDiscrim_HTML.html#2,2,2560,1287,2560,1440,8-2-2021,8-55-38,92,,,,,,,2134,509,1005,987,1004,501,,1,3,depth_discrimination_stimuli/000109_2014-05-14_23-41-52_260595134347_rgbf000035-resize_9/000109_2014-05-14_23-41-52_260595134347_rgbf000035-resize-original.jpg,8256,1669219,1794070,35
857994,DepthScenes,v2_duration_discrimination,discrim_jsons/shuffled_g0_rotated_dr.json,http://54.211.221.249/DepthDuration/v2_depth_discrimination_MTurk/v2_DepthDiscrim_HTML.html#2,2,2560,1287,2560,1440,8-2-2021,8-55-38,93,,,,,,,2134,509,1005,987,1004,501,,2,1,depth_discrimination_stimuli/000502_2014-06-08_23-02-32_260595134347_rgbf000063-resize_4/000502_2014-06-08_23-02-32_260595134347_rgbf000063-resize-original.jpg,6216,1669219,1794070,35
857994,DepthScenes,v2_duration_discrimination,discrim_jsons/shuffled_g0_rotated_dr.json,http://54.211.221.249/DepthDuration/v2_depth_discrimination_MTurk/v2_DepthDiscrim_HTML.html#2,2,2560,1287,2560,1440,8-2-2021,8-55-38,94,,,,,,,2134,509,1005,987,1004,501,,2,2,depth_discrimination_stimuli/000943_2014-06-09_19-31-07_260595134347_rgbf000128-resize_1/000943_2014-06-09_19-31-07_260595134347_rgbf000128-resize-original.jpg,10635,1669219,1794070,35
857994,DepthScenes,v2_duration_discrimination,discrim_jsons/shuffled_g0_rotated_dr.json,http://54.211.221.249/DepthDuration/v2_depth_discrimination_MTurk/v2_DepthDiscrim_HTML.html#2,2,2560,1287,2560,1440,8-2-2021,8-55-38,95,,,,,,,2134,509,1005,987,1004,501,,3,5,depth_discrimination_stimuli/001392_2014-06-19_16-07-59_260595134347_rgbf000046-resize_1/001392_2014-06-19_16-07-59_260595134347_rgbf000046-resize-original.jpg,4370,1669219,1794070,35
857994,DepthScenes,v2_duration_discrimination,discrim_jsons/shuffled_g0_rotated_dr.json,http://54.211.221.249/DepthDuration/v2_depth_discrimination_MTurk/v2_DepthDiscrim_HTML.html#2,2,2560,1287,2560,1440,8-2-2021,8-55-38,96,,,,,,,2134,509,1005,987,1004,501,,2,3,depth_discrimination_stimuli/003228_2014-05-14_13-42-35_094959634447_rgbf000101-resize_1/003228_2014-05-14_13-42-35_094959634447_rgbf000101-resize-original.jpg,6208,1669219,1794070,35
857994,DepthScenes,v2_duration_discrimination,discrim_jsons/shuffled_g0_rotated_dr.json,http://54.211.221.249/DepthDuration/v2_depth_discrimination_MTurk/v2_DepthDiscrim_HTML.html#2,2,2560,1287,2560,1440,8-2-2021,8-55-38,97,,,,,,,2134,509,1005,987,1004,501,,3,3,depth_discrimination_stimuli/002678_2014-06-13_16-15-32_094959634447_rgbf000151-resize_6/002678_2014-06-13_16-15-32_094959634447_rgbf000151-resize-original.jpg,6415,1669219,1794070,35
857994,DepthScenes,v2_duration_discrimination,discrim_jsons/shuffled_g0_rotated_dr.json,http://54.211.221.249/DepthDuration/v2_depth_discrimination_MTurk/v2_DepthDiscrim_HTML.html#2,2,2560,1287,2560,1440,8-2-2021,8-55-38,98,,,,,,,2134,509,1005,987,1004,501,,1,3,depth_discrimination_stimuli/000878_2014-06-08_22-52-45_260595134347_rgbf000045-resize_2/000878_2014-06-08_22-52-45_260595134347_rgbf000045-resize-original.jpg,6230,1669219,1794070,35
857994,DepthScenes,v2_duration_discrimination,discrim_jsons/shuffled_g0_rotated_dr.json,http://54.211.221.249/DepthDuration/v2_depth_discrimination_MTurk/v2_DepthDiscrim_HTML.html#2,2,2560,1287,2560,1440,8-2-2021,8-55-38,99,,,,,,,2134,509,1005,987,1004,501,,1,4,depth_discrimination_stimuli/002279_2014-06-28_18-55-32_260595134347_rgbf000040-resize_5/002279_2014-06-28_18-55-32_260595134347_rgbf000040-resize-original.jpg,4752,1669219,1794070,35
857994,DepthScenes,v2_duration_discrimination,discrim_jsons/shuffled_g0_rotated_dr.json,http://54.211.221.249/DepthDuration/v2_depth_discrimination_MTurk/v2_DepthDiscrim_HTML.html#2,2,2560,1287,2560,1440,8-2-2021,8-55-38,100,,,,,,,2134,509,1005,987,1004,501,,1,4,depth_discrimination_stimuli/002139_2014-06-25_21-19-37_260595134347_rgbf000124-resize_2/002139_2014-06-25_21-19-37_260595134347_rgbf000124-resize-original.jpg,11463,1669219,1794070,35
857994,DepthScenes,v2_duration_discrimination,discrim_jsons/shuffled_g0_rotated_dr.json,http://54.211.221.249/DepthDuration/v2_depth_discrimination_MTurk/v2_DepthDiscrim_HTML.html#2,2,2560,1287,2560,1440,8-2-2021,8-55-38,101,,,,,,,2134,509,1005,987,1004,501,,3,3,depth_discrimination_stimuli/002445_2014-06-28_20-32-16_260595134347_rgbf000029-resize_4/002445_2014-06-28_20-32-16_260595134347_rgbf000029-resize-original.jpg,11505,1669219,1794070,35
857994,DepthScenes,v2_duration_discrimination,discrim_jsons/shuffled_g0_rotated_dr.json,http://54.211.221.249/DepthDuration/v2_depth_discrimination_MTurk/v2_DepthDiscrim_HTML.html#2,2,2560,1287,2560,1440,8-2-2021,8-55-38,102,,,,,,,2134,509,1005,987,1004,501,,1,5,depth_discrimination_stimuli/000636_2014-06-08_16-39-02_260595134347_rgbf000108-resize_4/000636_2014-06-08_16-39-02_260595134347_rgbf000108-resize-original.jpg,3617,1669219,1794070,35
857994,DepthScenes,v2_duration_discrimination,discrim_jsons/shuffled_g0_rotated_dr.json,http://54.211.221.249/DepthDuration/v2_depth_discrimination_MTurk/v2_DepthDiscrim_HTML.html#2,2,2560,1287,2560,1440,8-2-2021,8-55-38,103,,,,,,,2134,509,1005,987,1004,501,,2,4,depth_discrimination_stimuli/000191_2014-05-12_17-07-38_260595134347_rgbf000199-resize_0/000191_2014-05-12_17-07-38_260595134347_rgbf000199-resize-original.jpg,4969,1669219,1794070,35
857994,DepthScenes,v2_duration_discrimination,discrim_jsons/shuffled_g0_rotated_dr.json,http://54.211.221.249/DepthDuration/v2_depth_discrimination_MTurk/v2_DepthDiscrim_HTML.html#2,2,2560,1287,2560,1440,8-2-2021,8-55-38,104,,,,,,,2134,509,1005,987,1004,501,,2,4,depth_discrimination_stimuli/002444_2014-06-28_20-32-08_260595134347_rgbf000027-resize_0/002444_2014-06-28_20-32-08_260595134347_rgbf000027-resize-original.jpg,4646,1669219,1794070,35
857994,DepthScenes,v2_duration_discrimination,discrim_jsons/shuffled_g0_rotated_dr.json,http://54.211.221.249/DepthDuration/v2_depth_discrimination_MTurk/v2_DepthDiscrim_HTML.html#2,2,2560,1287,2560,1440,8-2-2021,8-55-38,105,,,,,,,2134,509,1005,987,1004,501,,2,4,depth_discrimination_stimuli/000556_2014-06-09_22-42-56_260595134347_rgbf000214-resize_1/000556_2014-06-09_22-42-56_260595134347_rgbf000214-resize-original.jpg,11904,1669219,1794070,35
857994,DepthScenes,v2_duration_discrimination,discrim_jsons/shuffled_g0_rotated_dr.json,http://54.211.221.249/DepthDuration/v2_depth_discrimination_MTurk/v2_DepthDiscrim_HTML.html#2,2,2560,1287,2560,1440,8-2-2021,8-55-38,106,,,,,,,2134,509,1005,987,1004,501,,1,4,depth_discrimination_stimuli/002805_2014-06-22_19-54-03_094959634447_rgbf000079-resize_1/002805_2014-06-22_19-54-03_094959634447_rgbf000079-resize-original.jpg,9038,1669219,1794070,35
857994,DepthScenes,v2_duration_discrimination,discrim_jsons/shuffled_g0_rotated_dr.json,http://54.211.221.249/DepthDuration/v2_depth_discrimination_MTurk/v2_DepthDiscrim_HTML.html#2,2,2560,1287,2560,1440,8-2-2021,8-55-38,107,,,,,,,2134,509,1005,987,1004,501,,1,4,depth_discrimination_stimuli/003048_2014-06-15_13-49-43_094959634447_rgbf000150-resize_1/003048_2014-06-15_13-49-43_094959634447_rgbf000150-resize-original.jpg,3711,1669219,1794070,35
857994,DepthScenes,v2_duration_discrimination,discrim_jsons/shuffled_g0_rotated_dr.json,http://54.211.221.249/DepthDuration/v2_depth_discrimination_MTurk/v2_DepthDiscrim_HTML.html#2,2,2560,1287,2560,1440,8-2-2021,8-55-38,108,,,,,,,2134,509,1005,987,1004,501,,2,3,depth_discrimination_stimuli/000773_2014-06-08_22-24-54_260595134347_rgbf000093-resize_1/000773_2014-06-08_22-24-54_260595134347_rgbf000093-resize-original.jpg,5605,1669219,1794070,35
857994,DepthScenes,v2_duration_discrimination,discrim_jsons/shuffled_g0_rotated_dr.json,http://54.211.221.249/DepthDuration/v2_depth_discrimination_MTurk/v2_DepthDiscrim_HTML.html#2,2,2560,1287,2560,1440,8-2-2021,8-55-38,109,,,,,,,2134,509,1005,987,1004,501,,3,3,depth_discrimination_stimuli/002344_2014-06-28_20-06-29_260595134347_rgbf000030-resize_1/002344_2014-06-28_20-06-29_260595134347_rgbf000030-resize-original.jpg,6552,1669219,1794070,35
857994,DepthScenes,v2_duration_discrimination,discrim_jsons/shuffled_g0_rotated_dr.json,http://54.211.221.249/DepthDuration/v2_depth_discrimination_MTurk/v2_DepthDiscrim_HTML.html#2,2,2560,1287,2560,1440,8-2-2021,8-55-38,110,,,,,,,2134,509,1005,987,1004,501,,3,3,depth_discrimination_stimuli/002414_2014-06-28_20-24-58_260595134347_rgbf000067-resize_4/002414_2014-06-28_20-24-58_260595134347_rgbf000067-resize-original.jpg,8740,1669219,1794070,35
857994,DepthScenes,v2_duration_discrimination,discrim_jsons/shuffled_g0_rotated_dr.json,http://54.211.221.249/DepthDuration/v2_depth_discrimination_MTurk/v2_DepthDiscrim_HTML.html#2,2,2560,1287,2560,1440,8-2-2021,8-55-38,111,,,,,,,2134,509,1005,987,1004,501,,2,3,depth_discrimination_stimuli/001650_2014-06-20_12-09-00_260595134347_rgbf000087-resize_3/001650_2014-06-20_12-09-00_260595134347_rgbf000087-resize-original.jpg,12759,1669219,1794070,35
857994,DepthScenes,v2_duration_discrimination,discrim_jsons/shuffled_g0_rotated_dr.json,http://54.211.221.249/DepthDuration/v2_depth_discrimination_MTurk/v2_DepthDiscrim_HTML.html#2,2,2560,1287,2560,1440,8-2-2021,8-55-38,112,,,,,,,2134,509,1005,987,1004,501,,2,2,depth_discrimination_stimuli/002987_2014-06-08_18-48-20_094959634447_rgbf000022-resize_0/002987_2014-06-08_18-48-20_094959634447_rgbf000022-resize-original.jpg,5252,1669219,1794070,35
857994,DepthScenes,v2_duration_discrimination,discrim_jsons/shuffled_g0_rotated_dr.json,http://54.211.221.249/DepthDuration/v2_depth_discrimination_MTurk/v2_DepthDiscrim_HTML.html#2,2,2560,1287,2560,1440,8-2-2021,8-55-38,113,,,,,,,2134,509,1005,987,1004,501,,2,3,depth_discrimination_stimuli/002750_2014-06-22_19-08-03_094959634447_rgbf000094-resize_4/002750_2014-06-22_19-08-03_094959634447_rgbf000094-resize-original.jpg,6059,1669219,1794070,35
857994,DepthScenes,v2_duration_discrimination,discrim_jsons/shuffled_g0_rotated_dr.json,http://54.211.221.249/DepthDuration/v2_depth_discrimination_MTurk/v2_DepthDiscrim_HTML.html#2,2,2560,1287,2560,1440,8-2-2021,8-55-38,114,,,,,,,2134,509,1005,987,1004,501,,3,2,depth_discrimination_stimuli/000549_2014-06-08_22-10-24_260595134347_rgbf000247-resize_3/000549_2014-06-08_22-10-24_260595134347_rgbf000247-resize-original.jpg,7681,1669219,1794070,35
857994,DepthScenes,v2_duration_discrimination,discrim_jsons/shuffled_g0_rotated_dr.json,http://54.211.221.249/DepthDuration/v2_depth_discrimination_MTurk/v2_DepthDiscrim_HTML.html#2,2,2560,1287,2560,1440,8-2-2021,8-55-38,115,,,,,,,2134,509,1005,987,1004,501,,1,4,depth_discrimination_stimuli/000810_2014-06-08_17-20-01_260595134347_rgbf000105-resize_0/000810_2014-06-08_17-20-01_260595134347_rgbf000105-resize-original.jpg,16600,1669219,1794070,35
857994,DepthScenes,v2_duration_discrimination,discrim_jsons/shuffled_g0_rotated_dr.json,http://54.211.221.249/DepthDuration/v2_depth_discrimination_MTurk/v2_DepthDiscrim_HTML.html#2,2,2560,1287,2560,1440,8-2-2021,8-55-38,116,,,,,,,2134,509,1005,987,1004,501,,2,4,depth_discrimination_stimuli/001150_2014-06-17_15-27-34_260595134347_rgbf000108-resize_2/001150_2014-06-17_15-27-34_260595134347_rgbf000108-resize-original.jpg,5560,1669219,1794070,35
857994,DepthScenes,v2_duration_discrimination,discrim_jsons/shuffled_g0_rotated_dr.json,http://54.211.221.249/DepthDuration/v2_depth_discrimination_MTurk/v2_DepthDiscrim_HTML.html#2,2,2560,1287,2560,1440,8-2-2021,8-55-38,117,,,,,,,2134,509,1005,987,1004,501,,2,3,depth_discrimination_stimuli/000137_2014-05-20_17-04-49_260595134347_rgbf000120-resize_1/000137_2014-05-20_17-04-49_260595134347_rgbf000120-resize-original.jpg,6913,1669219,1794070,35
857994,DepthScenes,v2_duration_discrimination,discrim_jsons/shuffled_g0_rotated_dr.json,http://54.211.221.249/DepthDuration/v2_depth_discrimination_MTurk/v2_DepthDiscrim_HTML.html#2,2,2560,1287,2560,1440,8-2-2021,8-55-38,118,,,,,,,2134,509,1005,987,1004,501,,2,2,depth_discrimination_stimuli/000506_2014-06-08_23-21-00_260595134347_rgbf000070-resize_7/000506_2014-06-08_23-21-00_260595134347_rgbf000070-resize-original.jpg,14900,1669219,1794070,35
857994,DepthScenes,v2_duration_discrimination,discrim_jsons/shuffled_g0_rotated_dr.json,http://54.211.221.249/DepthDuration/v2_depth_discrimination_MTurk/v2_DepthDiscrim_HTML.html#2,2,2560,1287,2560,1440,8-2-2021,8-55-38,119,,,,,,,2134,509,1005,987,1004,501,,1,5,depth_discrimination_stimuli/002103_2014-06-25_20-00-40_260595134347_rgbf000049-resize_0/002103_2014-06-25_20-00-40_260595134347_rgbf000049-resize-original.jpg,4339,1669219,1794070,35
857994,DepthScenes,v2_duration_discrimination,discrim_jsons/shuffled_g0_rotated_dr.json,http://54.211.221.249/DepthDuration/v2_depth_discrimination_MTurk/v2_DepthDiscrim_HTML.html#2,2,2560,1287,2560,1440,8-2-2021,8-55-38,120,,,,,,,2134,509,1005,987,1004,501,,2,2,depth_discrimination_stimuli/001164_2014-06-17_15-35-46_260595134347_rgbf000085-resize_3/001164_2014-06-17_15-35-46_260595134347_rgbf000085-resize-original.jpg,5457,1669219,1794070,35
857994,DepthScenes,v2_duration_discrimination,discrim_jsons/shuffled_g0_rotated_dr.json,http://54.211.221.249/DepthDuration/v2_depth_discrimination_MTurk/v2_DepthDiscrim_HTML.html#2,2,2560,1287,2560,1440,8-2-2021,8-55-38,121,,,,,,,2134,509,1005,987,1004,501,,2,2,depth_discrimination_stimuli/002637_2014-06-24_14-51-13_094959634447_rgbf000066-resize_4/002637_2014-06-24_14-51-13_094959634447_rgbf000066-resize-original.jpg,7841,1669219,1794070,35
857994,DepthScenes,v2_duration_discrimination,discrim_jsons/shuffled_g0_rotated_dr.json,http://54.211.221.249/DepthDuration/v2_depth_discrimination_MTurk/v2_DepthDiscrim_HTML.html#2,2,2560,1287,2560,1440,8-2-2021,8-55-38,122,,,,,,,2134,509,1005,987,1004,501,,1,5,depth_discrimination_stimuli/001244_2014-06-17_16-47-45_260595134347_rgbf000030-resize_4/001244_2014-06-17_16-47-45_260595134347_rgbf000030-resize-original.jpg,8456,1669219,1794070,35
857994,DepthScenes,v2_duration_discrimination,discrim_jsons/shuffled_g0_rotated_dr.json,http://54.211.221.249/DepthDuration/v2_depth_discrimination_MTurk/v2_DepthDiscrim_HTML.html#2,2,2560,1287,2560,1440,8-2-2021,8-55-38,123,,,,,,,2134,509,1005,987,1004,501,,2,3,depth_discrimination_stimuli/003423_2014-05-21_10-23-26_094959634447_rgbf002665-resize_2/003423_2014-05-21_10-23-26_094959634447_rgbf002665-resize-original.jpg,10309,1669219,1794070,35
857994,DepthScenes,v2_duration_discrimination,discrim_jsons/shuffled_g0_rotated_dr.json,http://54.211.221.249/DepthDuration/v2_depth_discrimination_MTurk/v2_DepthDiscrim_HTML.html#2,2,2560,1287,2560,1440,8-2-2021,8-55-38,124,,,,,,,2134,509,1005,987,1004,501,,2,4,depth_discrimination_stimuli/000009_2014-05-26_14-32-05_260595134347_rgbf000034-resize_3/000009_2014-05-26_14-32-05_260595134347_rgbf000034-resize-original.jpg,5477,1669219,1794070,35
857994,DepthScenes,v2_duration_discrimination,discrim_jsons/shuffled_g0_rotated_dr.json,http://54.211.221.249/DepthDuration/v2_depth_discrimination_MTurk/v2_DepthDiscrim_HTML.html#2,2,2560,1287,2560,1440,8-2-2021,8-55-38,125,,,,,,,2134,509,1005,987,1004,501,,1,2,depth_discrimination_stimuli/003070_2014-06-15_14-58-27_094959634447_rgbf000150-resize_3/003070_2014-06-15_14-58-27_094959634447_rgbf000150-resize-original.jpg,7859,1669219,1794070,35
857994,DepthScenes,v2_duration_discrimination,discrim_jsons/shuffled_g0_rotated_dr.json,http://54.211.221.249/DepthDuration/v2_depth_discrimination_MTurk/v2_DepthDiscrim_HTML.html#2,2,2560,1287,2560,1440,8-2-2021,8-55-38,126,,,,,,,2134,509,1005,987,1004,501,,1,2,depth_discrimination_stimuli/000800_2014-06-08_22-42-09_260595134347_rgbf000095-resize_3/000800_2014-06-08_22-42-09_260595134347_rgbf000095-resize-original.jpg,3411,1669219,1794070,35
857994,DepthScenes,v2_duration_discrimination,discrim_jsons/shuffled_g0_rotated_dr.json,http://54.211.221.249/DepthDuration/v2_depth_discrimination_MTurk/v2_DepthDiscrim_HTML.html#2,2,2560,1287,2560,1440,8-2-2021,8-55-38,127,,,,,,,2134,509,1005,987,1004,501,,2,3,depth_discrimination_stimuli/002153_2014-06-25_21-27-18_260595134347_rgbf000038-resize_5/002153_2014-06-25_21-27-18_260595134347_rgbf000038-resize-original.jpg,7163,1669219,1794070,35
857994,DepthScenes,v2_duration_discrimination,discrim_jsons/shuffled_g0_rotated_dr.json,http://54.211.221.249/DepthDuration/v2_depth_discrimination_MTurk/v2_DepthDiscrim_HTML.html#2,2,2560,1287,2560,1440,8-2-2021,8-55-38,128,,,,,,,2134,509,1005,987,1004,501,,2,3,depth_discrimination_stimuli/003069_2014-06-15_14-57-50_094959634447_rgbf000150-resize_4/003069_2014-06-15_14-57-50_094959634447_rgbf000150-resize-original.jpg,7613,1669219,1794070,35
857994,DepthScenes,v2_duration_discrimination,discrim_jsons/shuffled_g0_rotated_dr.json,http://54.211.221.249/DepthDuration/v2_depth_discrimination_MTurk/v2_DepthDiscrim_HTML.html#2,2,2560,1287,2560,1440,8-2-2021,8-55-38,129,,,,,,,2134,509,1005,987,1004,501,,3,3,depth_discrimination_stimuli/002460_2014-06-28_20-35-43_260595134347_rgbf000028-resize_4/002460_2014-06-28_20-35-43_260595134347_rgbf000028-resize-original.jpg,10374,1669219,1794070,35
857994,DepthScenes,v2_duration_discrimination,discrim_jsons/shuffled_g0_rotated_dr.json,http://54.211.221.249/DepthDuration/v2_depth_discrimination_MTurk/v2_DepthDiscrim_HTML.html#2,2,2560,1287,2560,1440,8-2-2021,8-55-38,130,,,,,,,2134,509,1005,987,1004,501,,2,3,depth_discrimination_stimuli/000635_2014-06-08_16-38-42_260595134347_rgbf000106-resize_1/000635_2014-06-08_16-38-42_260595134347_rgbf000106-resize-original.jpg,81916,1669219,1794070,35
857994,DepthScenes,v2_duration_discrimination,discrim_jsons/shuffled_g0_rotated_dr.json,http://54.211.221.249/DepthDuration/v2_depth_discrimination_MTurk/v2_DepthDiscrim_HTML.html#2,2,2560,1287,2560,1440,8-2-2021,8-55-38,131,,,,,,,2134,509,1005,987,1004,501,,2,4,depth_discrimination_stimuli/000788_2014-06-08_22-34-36_260595134347_rgbf000131-resize_1/000788_2014-06-08_22-34-36_260595134347_rgbf000131-resize-original.jpg,60121,1669219,1794070,35
857994,DepthScenes,v2_duration_discrimination,discrim_jsons/shuffled_g0_rotated_dr.json,http://54.211.221.249/DepthDuration/v2_depth_discrimination_MTurk/v2_DepthDiscrim_HTML.html#2,2,2560,1287,2560,1440,8-2-2021,8-55-38,132,,,,,,,2134,509,1005,987,1004,501,,1,1,depth_discrimination_stimuli/001066_2014-06-08_22-03-20_260595134347_rgbf000066-resize_4/001066_2014-06-08_22-03-20_260595134347_rgbf000066-resize-original.jpg,5605,1669219,1794070,35
857994,DepthScenes,v2_duration_discrimination,discrim_jsons/shuffled_g0_rotated_dr.json,http://54.211.221.249/DepthDuration/v2_depth_discrimination_MTurk/v2_DepthDiscrim_HTML.html#2,2,2560,1287,2560,1440,8-2-2021,8-55-38,133,,,,,,,2134,509,1005,987,1004,501,,1,3,depth_discrimination_stimuli/001450_2014-06-19_17-02-03_260595134347_rgbf000203-resize_4/001450_2014-06-19_17-02-03_260595134347_rgbf000203-resize-original.jpg,11074,1669219,1794070,35
857994,DepthScenes,v2_duration_discrimination,discrim_jsons/shuffled_g0_rotated_dr.json,http://54.211.221.249/DepthDuration/v2_depth_discrimination_MTurk/v2_DepthDiscrim_HTML.html#2,2,2560,1287,2560,1440,8-2-2021,8-55-38,134,,,,,,,2134,509,1005,987,1004,501,,1,3,depth_discrimination_stimuli/001029_2014-06-08_13-17-57_260595134347_rgbf000065-resize_1/001029_2014-06-08_13-17-57_260595134347_rgbf000065-resize-original.jpg,3322,1669219,1794070,35
857994,DepthScenes,v2_duration_discrimination,discrim_jsons/shuffled_g0_rotated_dr.json,http://54.211.221.249/DepthDuration/v2_depth_discrimination_MTurk/v2_DepthDiscrim_HTML.html#2,2,2560,1287,2560,1440,8-2-2021,8-55-38,135,,,,,,,2134,509,1005,987,1004,501,,1,4,depth_discrimination_stimuli/003288_2014-05-14_21-50-30_094959634447_rgbf000028-resize_3/003288_2014-05-14_21-50-30_094959634447_rgbf000028-resize-original.jpg,6035,1669219,1794070,35
857994,DepthScenes,v2_duration_discrimination,discrim_jsons/shuffled_g0_rotated_dr.json,http://54.211.221.249/DepthDuration/v2_depth_discrimination_MTurk/v2_DepthDiscrim_HTML.html#2,2,2560,1287,2560,1440,8-2-2021,8-55-38,136,,,,,,,2134,509,1005,987,1004,501,,2,4,depth_discrimination_stimuli/000414_2014-06-04_19-49-13_260595134347_rgbf000044-resize_0/000414_2014-06-04_19-49-13_260595134347_rgbf000044-resize-original.jpg,3942,1669219,1794070,35
857994,DepthScenes,v2_duration_discrimination,discrim_jsons/shuffled_g0_rotated_dr.json,http://54.211.221.249/DepthDuration/v2_depth_discrimination_MTurk/v2_DepthDiscrim_HTML.html#2,2,2560,1287,2560,1440,8-2-2021,8-55-38,137,,,,,,,2134,509,1005,987,1004,501,,1,5,depth_discrimination_stimuli/002784_2014-06-22_19-26-30_094959634447_rgbf000083-resize_3/002784_2014-06-22_19-26-30_094959634447_rgbf000083-resize-original.jpg,5118,1669219,1794070,35
857994,DepthScenes,v2_duration_discrimination,discrim_jsons/shuffled_g0_rotated_dr.json,http://54.211.221.249/DepthDuration/v2_depth_discrimination_MTurk/v2_DepthDiscrim_HTML.html#2,2,2560,1287,2560,1440,8-2-2021,8-55-38,138,,,,,,,2134,509,1005,987,1004,501,,1,4,depth_discrimination_stimuli/002209_2014-06-28_18-36-10_260595134347_rgbf000051-resize_1/002209_2014-06-28_18-36-10_260595134347_rgbf000051-resize-original.jpg,5077,1669219,1794070,35
857994,DepthScenes,v2_duration_discrimination,discrim_jsons/shuffled_g0_rotated_dr.json,http://54.211.221.249/DepthDuration/v2_depth_discrimination_MTurk/v2_DepthDiscrim_HTML.html#2,2,2560,1287,2560,1440,8-2-2021,8-55-38,139,,,,,,,2134,509,1005,987,1004,501,,2,4,depth_discrimination_stimuli/001810_2014-06-26_20-51-35_260595134347_rgbf000040-resize_3/001810_2014-06-26_20-51-35_260595134347_rgbf000040-resize-original.jpg,5304,1669219,1794070,35
857994,DepthScenes,v2_duration_discrimination,discrim_jsons/shuffled_g0_rotated_dr.json,http://54.211.221.249/DepthDuration/v2_depth_discrimination_MTurk/v2_DepthDiscrim_HTML.html#2,2,2560,1287,2560,1440,8-2-2021,8-55-38,140,,,,,,,2134,509,1005,987,1004,501,,2,5,depth_discrimination_stimuli/002570_2014-06-24_13-59-54_094959634447_rgbf000059-resize_0/002570_2014-06-24_13-59-54_094959634447_rgbf000059-resize-original.jpg,10395,1669219,1794070,35
857994,DepthScenes,v2_duration_discrimination,discrim_jsons/shuffled_g0_rotated_dr.json,http://54.211.221.249/DepthDuration/v2_depth_discrimination_MTurk/v2_DepthDiscrim_HTML.html#2,2,2560,1287,2560,1440,8-2-2021,8-55-38,141,,,,,,,2134,509,1005,987,1004,501,,2,4,depth_discrimination_stimuli/001214_2014-06-17_16-13-55_260595134347_rgbf000111-resize_0/001214_2014-06-17_16-13-55_260595134347_rgbf000111-resize-original.jpg,3970,1669219,1794070,35
857994,DepthScenes,v2_duration_discrimination,discrim_jsons/shuffled_g0_rotated_dr.json,http://54.211.221.249/DepthDuration/v2_depth_discrimination_MTurk/v2_DepthDiscrim_HTML.html#2,2,2560,1287,2560,1440,8-2-2021,8-55-38,142,,,,,,,2134,509,1005,987,1004,501,,2,2,depth_discrimination_stimuli/002509_2014-06-24_13-19-22_094959634447_rgbf000077-resize_0/002509_2014-06-24_13-19-22_094959634447_rgbf000077-resize-original.jpg,7002,1669219,1794070,35
857994,DepthScenes,v2_duration_discrimination,discrim_jsons/shuffled_g0_rotated_dr.json,http://54.211.221.249/DepthDuration/v2_depth_discrimination_MTurk/v2_DepthDiscrim_HTML.html#2,2,2560,1287,2560,1440,8-2-2021,8-55-38,143,,,,,,,2134,509,1005,987,1004,501,,1,4,depth_discrimination_stimuli/001175_2014-06-17_15-45-55_260595134347_rgbf000129-resize_4/001175_2014-06-17_15-45-55_260595134347_rgbf000129-resize-original.jpg,12850,1669219,1794070,35
857994,DepthScenes,v2_duration_discrimination,discrim_jsons/shuffled_g0_rotated_dr.json,http://54.211.221.249/DepthDuration/v2_depth_discrimination_MTurk/v2_DepthDiscrim_HTML.html#2,2,2560,1287,2560,1440,8-2-2021,8-55-38,144,,,,,,,2134,509,1005,987,1004,501,,2,5,depth_discrimination_stimuli/002600_2014-06-24_14-27-04_094959634447_rgbf000074-resize_2/002600_2014-06-24_14-27-04_094959634447_rgbf000074-resize-original.jpg,3595,1669219,1794070,35
857994,DepthScenes,v2_duration_discrimination,discrim_jsons/shuffled_g0_rotated_dr.json,http://54.211.221.249/DepthDuration/v2_depth_discrimination_MTurk/v2_DepthDiscrim_HTML.html#2,2,2560,1287,2560,1440,8-2-2021,8-55-38,145,,,,,,,2134,509,1005,987,1004,501,,1,1,depth_discrimination_stimuli/002340_2014-06-28_20-05-46_260595134347_rgbf000113-resize_0/002340_2014-06-28_20-05-46_260595134347_rgbf000113-resize-original.jpg,6527,1669219,1794070,35
857994,DepthScenes,v2_duration_discrimination,discrim_jsons/shuffled_g0_rotated_dr.json,http://54.211.221.249/DepthDuration/v2_depth_discrimination_MTurk/v2_DepthDiscrim_HTML.html#2,2,2560,1287,2560,1440,8-2-2021,8-55-38,146,,,,,,,2134,509,1005,987,1004,501,,2,4,depth_discrimination_stimuli/001181_2014-06-17_15-50-57_260595134347_rgbf000106-resize_4/001181_2014-06-17_15-50-57_260595134347_rgbf000106-resize-original.jpg,7614,1669219,1794070,35
857994,DepthScenes,v2_duration_discrimination,discrim_jsons/shuffled_g0_rotated_dr.json,http://54.211.221.249/DepthDuration/v2_depth_discrimination_MTurk/v2_DepthDiscrim_HTML.html#2,2,2560,1287,2560,1440,8-2-2021,8-55-38,147,,,,,,,2134,509,1005,987,1004,501,,2,4,depth_discrimination_stimuli/002748_2014-06-22_19-07-22_094959634447_rgbf000078-resize_1/002748_2014-06-22_19-07-22_094959634447_rgbf000078-resize-original.jpg,5093,1669219,1794070,35
857994,DepthScenes,v2_duration_discrimination,discrim_jsons/shuffled_g0_rotated_dr.json,http://54.211.221.249/DepthDuration/v2_depth_discrimination_MTurk/v2_DepthDiscrim_HTML.html#2,2,2560,1287,2560,1440,8-2-2021,8-55-38,148,,,,,,,2134,509,1005,987,1004,501,,2,4,depth_discrimination_stimuli/000736_2014-06-08_18-24-15_260595134347_rgbf000206-resize_3/000736_2014-06-08_18-24-15_260595134347_rgbf000206-resize-original.jpg,4925,1669219,1794070,35
857994,DepthScenes,v2_duration_discrimination,discrim_jsons/shuffled_g0_rotated_dr.json,http://54.211.221.249/DepthDuration/v2_depth_discrimination_MTurk/v2_DepthDiscrim_HTML.html#2,2,2560,1287,2560,1440,8-2-2021,8-55-38,149,,,,,,,2134,509,1005,987,1004,501,,1,5,depth_discrimination_stimuli/000927_2014-06-09_16-32-30_260595134347_rgbf000123-resize_3/000927_2014-06-09_16-32-30_260595134347_rgbf000123-resize-original.jpg,3224,1669219,1794070,35
857994,DepthScenes,v2_duration_discrimination,discrim_jsons/shuffled_g0_rotated_dr.json,http://54.211.221.249/DepthDuration/v2_depth_discrimination_MTurk/v2_DepthDiscrim_HTML.html#2,2,2560,1287,2560,1440,8-2-2021,8-55-38,150,,,,,,,2134,509,1005,987,1004,501,,2,3,depth_discrimination_stimuli/003079_2014-06-15_15-18-20_094959634447_rgbf000152-resize_8/003079_2014-06-15_15-18-20_094959634447_rgbf000152-resize-original.jpg,4620,1669219,1794070,35
857994,DepthScenes,v2_duration_discrimination,discrim_jsons/shuffled_g0_rotated_dr.json,http://54.211.221.249/DepthDuration/v2_depth_discrimination_MTurk/v2_DepthDiscrim_HTML.html#2,2,2560,1287,2560,1440,8-2-2021,8-55-38,151,,,,,,,2134,509,1005,987,1004,501,,2,2,depth_discrimination_stimuli/002989_2014-06-15_12-25-03_094959634447_rgbf000150-resize_3/002989_2014-06-15_12-25-03_094959634447_rgbf000150-resize-original.jpg,15305,1669219,1794070,35
857994,DepthScenes,v2_duration_discrimination,discrim_jsons/shuffled_g0_rotated_dr.json,http://54.211.221.249/DepthDuration/v2_depth_discrimination_MTurk/v2_DepthDiscrim_HTML.html#2,2,2560,1287,2560,1440,8-2-2021,8-55-38,152,,,,,,,2134,509,1005,987,1004,501,,1,2,depth_discrimination_stimuli/001056_2014-06-08_18-46-44_260595134347_rgbf000068-resize_0/001056_2014-06-08_18-46-44_260595134347_rgbf000068-resize-original.jpg,3418,1669219,1794070,35
857994,DepthScenes,v2_duration_discrimination,discrim_jsons/shuffled_g0_rotated_dr.json,http://54.211.221.249/DepthDuration/v2_depth_discrimination_MTurk/v2_DepthDiscrim_HTML.html#2,2,2560,1287,2560,1440,8-2-2021,8-55-38,153,,,,,,,2134,509,1005,987,1004,501,,1,2,depth_discrimination_stimuli/002788_2014-06-22_19-36-03_094959634447_rgbf000088-resize_2/002788_2014-06-22_19-36-03_094959634447_rgbf000088-resize-original.jpg,9118,1669219,1794070,35
857994,DepthScenes,v2_duration_discrimination,discrim_jsons/shuffled_g0_rotated_dr.json,http://54.211.221.249/DepthDuration/v2_depth_discrimination_MTurk/v2_DepthDiscrim_HTML.html#2,2,2560,1287,2560,1440,8-2-2021,8-55-38,154,,,,,,,2134,509,1005,987,1004,501,,2,3,depth_discrimination_stimuli/002700_2014-06-22_11-27-02_094959634447_rgbf000124-resize_3/002700_2014-06-22_11-27-02_094959634447_rgbf000124-resize-original.jpg,6868,1669219,1794070,35
857994,DepthScenes,v2_duration_discrimination,discrim_jsons/shuffled_g0_rotated_dr.json,http://54.211.221.249/DepthDuration/v2_depth_discrimination_MTurk/v2_DepthDiscrim_HTML.html#2,2,2560,1287,2560,1440,8-2-2021,8-55-38,155,,,,,,,2134,509,1005,987,1004,501,,2,4,depth_discrimination_stimuli/001570_2014-06-20_17-21-09_260595134347_rgbf000135-resize_4/001570_2014-06-20_17-21-09_260595134347_rgbf000135-resize-original.jpg,4912,1669219,1794070,35
857994,DepthScenes,v2_duration_discrimination,discrim_jsons/shuffled_g0_rotated_dr.json,http://54.211.221.249/DepthDuration/v2_depth_discrimination_MTurk/v2_DepthDiscrim_HTML.html#2,2,2560,1287,2560,1440,8-2-2021,8-55-38,156,,,,,,,2134,509,1005,987,1004,501,,1,2,depth_discrimination_stimuli/002639_2014-06-24_14-51-37_094959634447_rgbf000074-resize_4/002639_2014-06-24_14-51-37_094959634447_rgbf000074-resize-original.jpg,4290,1669219,1794070,35
857994,DepthScenes,v2_duration_discrimination,discrim_jsons/shuffled_g0_rotated_dr.json,http://54.211.221.249/DepthDuration/v2_depth_discrimination_MTurk/v2_DepthDiscrim_HTML.html#2,2,2560,1287,2560,1440,8-2-2021,8-55-38,157,,,,,,,2134,509,1005,987,1004,501,,1,4,depth_discrimination_stimuli/001158_2014-06-17_15-32-16_260595134347_rgbf000138-resize_2/001158_2014-06-17_15-32-16_260595134347_rgbf000138-resize-original.jpg,9220,1669219,1794070,35
857994,DepthScenes,v2_duration_discrimination,discrim_jsons/shuffled_g0_rotated_dr.json,http://54.211.221.249/DepthDuration/v2_depth_discrimination_MTurk/v2_DepthDiscrim_HTML.html#2,2,2560,1287,2560,1440,8-2-2021,8-55-38,158,,,,,,,2134,509,1005,987,1004,501,,2,3,depth_discrimination_stimuli/000486_2014-06-09_20-47-20_260595134347_rgbf000143-resize_2/000486_2014-06-09_20-47-20_260595134347_rgbf000143-resize-original.jpg,7338,1669219,1794070,35
857994,DepthScenes,v2_duration_discrimination,discrim_jsons/shuffled_g0_rotated_dr.json,http://54.211.221.249/DepthDuration/v2_depth_discrimination_MTurk/v2_DepthDiscrim_HTML.html#2,2,2560,1287,2560,1440,8-2-2021,8-55-38,159,,,,,,,2134,509,1005,987,1004,501,,1,4,depth_discrimination_stimuli/002875_2014-06-01_15-19-00_094959634447_rgbf000151-resize_1/002875_2014-06-01_15-19-00_094959634447_rgbf000151-resize-original.jpg,4123,1669219,1794070,35
857994,DepthScenes,v2_duration_discrimination,discrim_jsons/shuffled_g0_rotated_dr.json,http://54.211.221.249/DepthDuration/v2_depth_discrimination_MTurk/v2_DepthDiscrim_HTML.html#2,2,2560,1287,2560,1440,8-2-2021,8-55-38,160,,,,,,,2134,509,1005,987,1004,501,,2,3,depth_discrimination_stimuli/002660_2014-06-13_15-44-18_094959634447_rgbf001878-resize_2/002660_2014-06-13_15-44-18_094959634447_rgbf001878-resize-original.jpg,5064,1669219,1794070,35
857994,DepthScenes,v2_duration_discrimination,discrim_jsons/shuffled_g0_rotated_dr.json,http://54.211.221.249/DepthDuration/v2_depth_discrimination_MTurk/v2_DepthDiscrim_HTML.html#2,2,2560,1287,2560,1440,8-2-2021,8-55-38,161,,,,,,,2134,509,1005,987,1004,501,,2,3,depth_discrimination_stimuli/000677_2014-06-08_23-10-32_260595134347_rgbf000158-resize_6/000677_2014-06-08_23-10-32_260595134347_rgbf000158-resize-original.jpg,6532,1669219,1794070,35
857994,DepthScenes,v2_duration_discrimination,discrim_jsons/shuffled_g0_rotated_dr.json,http://54.211.221.249/DepthDuration/v2_depth_discrimination_MTurk/v2_DepthDiscrim_HTML.html#2,2,2560,1287,2560,1440,8-2-2021,8-55-38,162,,,,,,,2134,509,1005,987,1004,501,,2,4,depth_discrimination_stimuli/000457_2014-06-08_16-52-43_260595134347_rgbf000199-resize_1/000457_2014-06-08_16-52-43_260595134347_rgbf000199-resize-original.jpg,3676,1669219,1794070,35
857994,DepthScenes,v2_duration_discrimination,discrim_jsons/shuffled_g0_rotated_dr.json,http://54.211.221.249/DepthDuration/v2_depth_discrimination_MTurk/v2_DepthDiscrim_HTML.html#2,2,2560,1287,2560,1440,8-2-2021,8-55-38,163,,,,,,,2134,509,1005,987,1004,501,,1,3,depth_discrimination_stimuli/001136_2014-06-17_15-19-41_260595134347_rgbf000076-resize_3/001136_2014-06-17_15-19-41_260595134347_rgbf000076-resize-original.jpg,11403,1669219,1794070,35
857994,DepthScenes,v2_duration_discrimination,discrim_jsons/shuffled_g0_rotated_dr.json,http://54.211.221.249/DepthDuration/v2_depth_discrimination_MTurk/v2_DepthDiscrim_HTML.html#2,2,2560,1287,2560,1440,8-2-2021,8-55-38,164,,,,,,,2134,509,1005,987,1004,501,,1,3,depth_discrimination_stimuli/000709_2014-06-08_13-51-55_260595134347_rgbf000068-resize_3/000709_2014-06-08_13-51-55_260595134347_rgbf000068-resize-original.jpg,4312,1669219,1794070,35
857994,DepthScenes,v2_duration_discrimination,discrim_jsons/shuffled_g0_rotated_dr.json,http://54.211.221.249/DepthDuration/v2_depth_discrimination_MTurk/v2_DepthDiscrim_HTML.html#2,2,2560,1287,2560,1440,8-2-2021,8-55-38,165,,,,,,,2134,509,1005,987,1004,501,,2,3,depth_discrimination_stimuli/001417_2014-06-19_16-25-36_260595134347_rgbf000115-resize_5/001417_2014-06-19_16-25-36_260595134347_rgbf000115-resize-original.jpg,4792,1669219,1794070,35
857994,DepthScenes,v2_duration_discrimination,discrim_jsons/shuffled_g0_rotated_dr.json,http://54.211.221.249/DepthDuration/v2_depth_discrimination_MTurk/v2_DepthDiscrim_HTML.html#2,2,2560,1287,2560,1440,8-2-2021,8-55-38,166,,,,,,,2134,509,1005,987,1004,501,,2,3,depth_discrimination_stimuli/002305_2014-06-28_19-56-50_260595134347_rgbf000102-resize_7/002305_2014-06-28_19-56-50_260595134347_rgbf000102-resize-original.jpg,84838,1669219,1794070,35
857994,DepthScenes,v2_duration_discrimination,discrim_jsons/shuffled_g0_rotated_dr.json,http://54.211.221.249/DepthDuration/v2_depth_discrimination_MTurk/v2_DepthDiscrim_HTML.html#2,2,2560,1287,2560,1440,8-2-2021,8-55-38,167,,,,,,,2134,509,1005,987,1004,501,,1,4,depth_discrimination_stimuli/001100_2014-06-15_17-46-26_260595134347_rgbf000225-resize_2/001100_2014-06-15_17-46-26_260595134347_rgbf000225-resize-original.jpg,5296,1669219,1794070,35
857994,DepthScenes,v2_duration_discrimination,discrim_jsons/shuffled_g0_rotated_dr.json,http://54.211.221.249/DepthDuration/v2_depth_discrimination_MTurk/v2_DepthDiscrim_HTML.html#2,2,2560,1287,2560,1440,8-2-2021,8-55-38,168,,,,,,,2134,509,1005,987,1004,501,,2,4,depth_discrimination_stimuli/001808_2014-06-26_20-50-58_260595134347_rgbf000029-resize_1/001808_2014-06-26_20-50-58_260595134347_rgbf000029-resize-original.jpg,3676,1669219,1794070,35
857994,DepthScenes,v2_duration_discrimination,discrim_jsons/shuffled_g0_rotated_dr.json,http://54.211.221.249/DepthDuration/v2_depth_discrimination_MTurk/v2_DepthDiscrim_HTML.html#2,2,2560,1287,2560,1440,8-2-2021,8-55-38,169,,,,,,,2134,509,1005,987,1004,501,,2,3,depth_discrimination_stimuli/000692_2014-06-08_13-09-42_260595134347_rgbf000199-resize_2/000692_2014-06-08_13-09-42_260595134347_rgbf000199-resize-original.jpg,3019,1669219,1794070,35
857994,DepthScenes,v2_duration_discrimination,discrim_jsons/shuffled_g0_rotated_dr.json,http://54.211.221.249/DepthDuration/v2_depth_discrimination_MTurk/v2_DepthDiscrim_HTML.html#2,2,2560,1287,2560,1440,8-2-2021,8-55-38,170,,,,,,,2134,509,1005,987,1004,501,,1,2,depth_discrimination_stimuli/003621_2014-05-23_18-06-08_094959634447_rgbf000101-resize_1/003621_2014-05-23_18-06-08_094959634447_rgbf000101-resize-original.jpg,3656,1669219,1794070,35
857994,DepthScenes,v2_duration_discrimination,discrim_jsons/shuffled_g0_rotated_dr.json,http://54.211.221.249/DepthDuration/v2_depth_discrimination_MTurk/v2_DepthDiscrim_HTML.html#2,2,2560,1287,2560,1440,8-2-2021,8-55-38,171,,,,,,,2134,509,1005,987,1004,501,,1,2,scene_property_catch_stimuli/000675_2014-06-08_22-59-18_260595134347_rgbf000096-resize.jpg,3934,1669219,1794070,35
857994,DepthScenes,v2_duration_discrimination,discrim_jsons/shuffled_g0_rotated_dr.json,http://54.211.221.249/DepthDuration/v2_depth_discrimination_MTurk/v2_DepthDiscrim_HTML.html#2,2,2560,1287,2560,1440,8-2-2021,8-55-38,172,,,,,,,2134,509,1005,987,1004,501,,3,5,depth_discrimination_stimuli/000103_2014-05-14_22-01-17_260595134347_rgbf000152-resize_5/000103_2014-05-14_22-01-17_260595134347_rgbf000152-resize-original.jpg,4263,1669219,1794070,35
857994,DepthScenes,v2_duration_discrimination,discrim_jsons/shuffled_g0_rotated_dr.json,http://54.211.221.249/DepthDuration/v2_depth_discrimination_MTurk/v2_DepthDiscrim_HTML.html#2,2,2560,1287,2560,1440,8-2-2021,8-55-38,173,,,,,,,2134,509,1005,987,1004,501,,2,4,depth_discrimination_stimuli/002199_2014-06-28_18-33-56_260595134347_rgbf000074-resize_0/002199_2014-06-28_18-33-56_260595134347_rgbf000074-resize-original.jpg,7152,1669219,1794070,35
857994,DepthScenes,v2_duration_discrimination,discrim_jsons/shuffled_g0_rotated_dr.json,http://54.211.221.249/DepthDuration/v2_depth_discrimination_MTurk/v2_DepthDiscrim_HTML.html#2,2,2560,1287,2560,1440,8-2-2021,8-55-38,174,,,,,,,2134,509,1005,987,1004,501,,2,2,depth_discrimination_stimuli/000929_2014-06-09_16-33-19_260595134347_rgbf000139-resize_0/000929_2014-06-09_16-33-19_260595134347_rgbf000139-resize-original.jpg,4248,1669219,1794070,35
857994,DepthScenes,v2_duration_discrimination,discrim_jsons/shuffled_g0_rotated_dr.json,http://54.211.221.249/DepthDuration/v2_depth_discrimination_MTurk/v2_DepthDiscrim_HTML.html#2,2,2560,1287,2560,1440,8-2-2021,8-55-38,175,,,,,,,2134,509,1005,987,1004,501,,1,2,depth_discrimination_stimuli/002272_2014-06-28_18-53-56_260595134347_rgbf000067-resize_2/002272_2014-06-28_18-53-56_260595134347_rgbf000067-resize-original.jpg,3466,1669219,1794070,35
857994,DepthScenes,v2_duration_discrimination,discrim_jsons/shuffled_g0_rotated_dr.json,http://54.211.221.249/DepthDuration/v2_depth_discrimination_MTurk/v2_DepthDiscrim_HTML.html#2,2,2560,1287,2560,1440,8-2-2021,8-55-38,176,,,,,,,2134,509,1005,987,1004,501,,2,1,depth_discrimination_stimuli/000522_2014-06-08_13-35-06_260595134347_rgbf000244-resize_1/000522_2014-06-08_13-35-06_260595134347_rgbf000244-resize-original.jpg,3802,1669219,1794070,35
857994,DepthScenes,v2_duration_discrimination,discrim_jsons/shuffled_g0_rotated_dr.json,http://54.211.221.249/DepthDuration/v2_depth_discrimination_MTurk/v2_DepthDiscrim_HTML.html#2,2,2560,1287,2560,1440,8-2-2021,8-55-38,177,,,,,,,2134,509,1005,987,1004,501,,2,2,depth_discrimination_stimuli/002131_2014-06-25_21-12-01_260595134347_rgbf000083-resize_0/002131_2014-06-25_21-12-01_260595134347_rgbf000083-resize-original.jpg,5588,1669219,1794070,35
857994,DepthScenes,v2_duration_discrimination,discrim_jsons/shuffled_g0_rotated_dr.json,http://54.211.221.249/DepthDuration/v2_depth_discrimination_MTurk/v2_DepthDiscrim_HTML.html#2,2,2560,1287,2560,1440,8-2-2021,8-55-38,178,,,,,,,2134,509,1005,987,1004,501,,2,1,depth_discrimination_stimuli/000665_2014-06-09_20-42-35_260595134347_rgbf000110-resize_1/000665_2014-06-09_20-42-35_260595134347_rgbf000110-resize-original.jpg,4080,1669219,1794070,35
857994,DepthScenes,v2_duration_discrimination,discrim_jsons/shuffled_g0_rotated_dr.json,http://54.211.221.249/DepthDuration/v2_depth_discrimination_MTurk/v2_DepthDiscrim_HTML.html#2,2,2560,1287,2560,1440,8-2-2021,8-55-38,179,,,,,,,2134,509,1005,987,1004,501,,2,1,depth_discrimination_stimuli/002953_2014-06-08_17-32-18_094959634447_rgbf000059-resize_5/002953_2014-06-08_17-32-18_094959634447_rgbf000059-resize-original.jpg,13252,1669219,1794070,35
857994,DepthScenes,v2_duration_discrimination,discrim_jsons/shuffled_g0_rotated_dr.json,http://54.211.221.249/DepthDuration/v2_depth_discrimination_MTurk/v2_DepthDiscrim_HTML.html#2,2,2560,1287,2560,1440,8-2-2021,8-55-38,180,,,,,,,2134,509,1005,987,1004,501,,2,3,depth_discrimination_stimuli/001092_2014-06-15_17-34-58_260595134347_rgbf000171-resize_3/001092_2014-06-15_17-34-58_260595134347_rgbf000171-resize-original.jpg,3450,1669219,1794070,35
857994,DepthScenes,v2_duration_discrimination,discrim_jsons/shuffled_g0_rotated_dr.json,http://54.211.221.249/DepthDuration/v2_depth_discrimination_MTurk/v2_DepthDiscrim_HTML.html#2,2,2560,1287,2560,1440,8-2-2021,8-55-38,181,,,,,,,2134,509,1005,987,1004,501,,2,3,depth_discrimination_stimuli/000436_2014-06-09_22-25-11_260595134347_rgbf000137-resize_1/000436_2014-06-09_22-25-11_260595134347_rgbf000137-resize-original.jpg,3611,1669219,1794070,35
857994,DepthScenes,v2_duration_discrimination,discrim_jsons/shuffled_g0_rotated_dr.json,http://54.211.221.249/DepthDuration/v2_depth_discrimination_MTurk/v2_DepthDiscrim_HTML.html#2,2,2560,1287,2560,1440,8-2-2021,8-55-38,182,,,,,,,2134,509,1005,987,1004,501,,2,3,depth_discrimination_stimuli/003495_2014-05-21_16-01-51_094959634447_rgbf000100-resize_3/003495_2014-05-21_16-01-51_094959634447_rgbf000100-resize-original.jpg,9735,1669219,1794070,35
857994,DepthScenes,v2_duration_discrimination,discrim_jsons/shuffled_g0_rotated_dr.json,http://54.211.221.249/DepthDuration/v2_depth_discrimination_MTurk/v2_DepthDiscrim_HTML.html#2,2,2560,1287,2560,1440,8-2-2021,8-55-38,183,,,,,,,2134,509,1005,987,1004,501,,2,3,depth_discrimination_stimuli/000483_2014-06-09_20-41-45_260595134347_rgbf000116-resize_4/000483_2014-06-09_20-41-45_260595134347_rgbf000116-resize-original.jpg,3466,1669219,1794070,35
857994,DepthScenes,v2_duration_discrimination,discrim_jsons/shuffled_g0_rotated_dr.json,http://54.211.221.249/DepthDuration/v2_depth_discrimination_MTurk/v2_DepthDiscrim_HTML.html#2,2,2560,1287,2560,1440,8-2-2021,8-55-38,184,,,,,,,2134,509,1005,987,1004,501,,2,4,depth_discrimination_stimuli/003083_2014-06-15_15-21-03_094959634447_rgbf000063-resize_1/003083_2014-06-15_15-21-03_094959634447_rgbf000063-resize-original.jpg,4192,1669219,1794070,35
857994,DepthScenes,v2_duration_discrimination,discrim_jsons/shuffled_g0_rotated_dr.json,http://54.211.221.249/DepthDuration/v2_depth_discrimination_MTurk/v2_DepthDiscrim_HTML.html#2,2,2560,1287,2560,1440,8-2-2021,8-55-38,185,,,,,,,2134,509,1005,987,1004,501,,2,3,depth_discrimination_stimuli/000493_2014-06-09_21-01-18_260595134347_rgbf000196-resize_3/000493_2014-06-09_21-01-18_260595134347_rgbf000196-resize-original.jpg,3546,1669219,1794070,35
857994,DepthScenes,v2_duration_discrimination,discrim_jsons/shuffled_g0_rotated_dr.json,http://54.211.221.249/DepthDuration/v2_depth_discrimination_MTurk/v2_DepthDiscrim_HTML.html#2,2,2560,1287,2560,1440,8-2-2021,8-55-38,186,,,,,,,2134,509,1005,987,1004,501,,2,4,depth_discrimination_stimuli/003534_2014-05-22_15-06-10_094959634447_rgbf000102-resize_4/003534_2014-05-22_15-06-10_094959634447_rgbf000102-resize-original.jpg,3536,1669219,1794070,35
857994,DepthScenes,v2_duration_discrimination,discrim_jsons/shuffled_g0_rotated_dr.json,http://54.211.221.249/DepthDuration/v2_depth_discrimination_MTurk/v2_DepthDiscrim_HTML.html#2,2,2560,1287,2560,1440,8-2-2021,8-55-38,187,,,,,,,2134,509,1005,987,1004,501,,2,2,depth_discrimination_stimuli/003338_2014-05-20_11-01-23_094959634447_rgbf000051-resize_6/003338_2014-05-20_11-01-23_094959634447_rgbf000051-resize-original.jpg,10497,1669219,1794070,35
857994,DepthScenes,v2_duration_discrimination,discrim_jsons/shuffled_g0_rotated_dr.json,http://54.211.221.249/DepthDuration/v2_depth_discrimination_MTurk/v2_DepthDiscrim_HTML.html#2,2,2560,1287,2560,1440,8-2-2021,8-55-38,188,,,,,,,2134,509,1005,987,1004,501,,1,3,depth_discrimination_stimuli/001618_2014-06-20_11-37-31_260595134347_rgbf000027-resize_3/001618_2014-06-20_11-37-31_260595134347_rgbf000027-resize-original.jpg,5000,1669219,1794070,35
857994,DepthScenes,v2_duration_discrimination,discrim_jsons/shuffled_g0_rotated_dr.json,http://54.211.221.249/DepthDuration/v2_depth_discrimination_MTurk/v2_DepthDiscrim_HTML.html#2,2,2560,1287,2560,1440,8-2-2021,8-55-38,189,,,,,,,2134,509,1005,987,1004,501,,4,5,depth_discrimination_stimuli/002118_2014-06-25_20-32-08_260595134347_rgbf000078-resize_1/002118_2014-06-25_20-32-08_260595134347_rgbf000078-resize-original.jpg,5412,1669219,1794070,35
857994,DepthScenes,v2_duration_discrimination,discrim_jsons/shuffled_g0_rotated_dr.json,http://54.211.221.249/DepthDuration/v2_depth_discrimination_MTurk/v2_DepthDiscrim_HTML.html#2,2,2560,1287,2560,1440,8-2-2021,8-55-38,190,,,,,,,2134,509,1005,987,1004,501,,1,3,depth_discrimination_stimuli/002725_2014-06-22_11-47-51_094959634447_rgbf000070-resize_1/002725_2014-06-22_11-47-51_094959634447_rgbf000070-resize-original.jpg,5341,1669219,1794070,35
857994,DepthScenes,v2_duration_discrimination,discrim_jsons/shuffled_g0_rotated_dr.json,http://54.211.221.249/DepthDuration/v2_depth_discrimination_MTurk/v2_DepthDiscrim_HTML.html#2,2,2560,1287,2560,1440,8-2-2021,8-55-38,191,,,,,,,2134,509,1005,987,1004,501,,2,3,depth_discrimination_stimuli/001828_2014-06-26_21-40-03_260595134347_rgbf000024-resize_0/001828_2014-06-26_21-40-03_260595134347_rgbf000024-resize-original.jpg,9505,1669219,1794070,35
857994,DepthScenes,v2_duration_discrimination,discrim_jsons/shuffled_g0_rotated_dr.json,http://54.211.221.249/DepthDuration/v2_depth_discrimination_MTurk/v2_DepthDiscrim_HTML.html#2,2,2560,1287,2560,1440,8-2-2021,8-55-38,192,,,,,,,2134,509,1005,987,1004,501,,2,3,depth_discrimination_stimuli/001264_2014-06-16_16-10-23_260595134347_rgbf000109-resize_1/001264_2014-06-16_16-10-23_260595134347_rgbf000109-resize-original.jpg,5674,1669219,1794070,35
857994,DepthScenes,v2_duration_discrimination,discrim_jsons/shuffled_g0_rotated_dr.json,http://54.211.221.249/DepthDuration/v2_depth_discrimination_MTurk/v2_DepthDiscrim_HTML.html#2,2,2560,1287,2560,1440,8-2-2021,8-55-38,193,,,,,,,2134,509,1005,987,1004,501,,2,2,depth_discrimination_stimuli/002663_2014-06-13_15-50-26_094959634447_rgbf000075-resize_1/002663_2014-06-13_15-50-26_094959634447_rgbf000075-resize-original.jpg,4038,1669219,1794070,35
857994,DepthScenes,v2_duration_discrimination,discrim_jsons/shuffled_g0_rotated_dr.json,http://54.211.221.249/DepthDuration/v2_depth_discrimination_MTurk/v2_DepthDiscrim_HTML.html#2,2,2560,1287,2560,1440,8-2-2021,8-55-38,194,,,,,,,2134,509,1005,987,1004,501,,2,3,depth_discrimination_stimuli/002464_2014-06-28_20-36-57_260595134347_rgbf000029-resize_0/002464_2014-06-28_20-36-57_260595134347_rgbf000029-resize-original.jpg,5788,1669219,1794070,35
857994,DepthScenes,v2_duration_discrimination,discrim_jsons/shuffled_g0_rotated_dr.json,http://54.211.221.249/DepthDuration/v2_depth_discrimination_MTurk/v2_DepthDiscrim_HTML.html#2,2,2560,1287,2560,1440,8-2-2021,8-55-38,195,,,,,,,2134,509,1005,987,1004,501,,2,2,depth_discrimination_stimuli/000780_2014-06-08_22-28-29_260595134347_rgbf000126-resize_1/000780_2014-06-08_22-28-29_260595134347_rgbf000126-resize-original.jpg,4653,1669219,1794070,35
857994,DepthScenes,v2_duration_discrimination,discrim_jsons/shuffled_g0_rotated_dr.json,http://54.211.221.249/DepthDuration/v2_depth_discrimination_MTurk/v2_DepthDiscrim_HTML.html#2,2,2560,1287,2560,1440,8-2-2021,8-55-38,196,,,,,,,2134,509,1005,987,1004,501,,1,1,depth_discrimination_stimuli/002763_2014-06-22_19-13-10_094959634447_rgbf000075-resize_4/002763_2014-06-22_19-13-10_094959634447_rgbf000075-resize-original.jpg,4023,1669219,1794070,35
857994,DepthScenes,v2_duration_discrimination,discrim_jsons/shuffled_g0_rotated_dr.json,http://54.211.221.249/DepthDuration/v2_depth_discrimination_MTurk/v2_DepthDiscrim_HTML.html#2,2,2560,1287,2560,1440,8-2-2021,8-55-38,197,,,,,,,2134,509,1005,987,1004,501,,2,2,depth_discrimination_stimuli/000682_2014-06-08_23-14-58_260595134347_rgbf000041-resize_5/000682_2014-06-08_23-14-58_260595134347_rgbf000041-resize-original.jpg,3289,1669219,1794070,35
857994,DepthScenes,v2_duration_discrimination,discrim_jsons/shuffled_g0_rotated_dr.json,http://54.211.221.249/DepthDuration/v2_depth_discrimination_MTurk/v2_DepthDiscrim_HTML.html#2,2,2560,1287,2560,1440,8-2-2021,8-55-38,198,,,,,,,2134,509,1005,987,1004,501,,2,2,depth_discrimination_stimuli/003010_2014-06-15_12-54-35_094959634447_rgbf000112-resize_0/003010_2014-06-15_12-54-35_094959634447_rgbf000112-resize-original.jpg,3923,1669219,1794070,35
857994,DepthScenes,v2_duration_discrimination,discrim_jsons/shuffled_g0_rotated_dr.json,http://54.211.221.249/DepthDuration/v2_depth_discrimination_MTurk/v2_DepthDiscrim_HTML.html#2,2,2560,1287,2560,1440,8-2-2021,8-55-38,199,,,,,,,2134,509,1005,987,1004,501,,2,3,depth_discrimination_stimuli/003292_2014-05-14_21-53-49_094959634447_rgbf000100-resize_2/003292_2014-05-14_21-53-49_094959634447_rgbf000100-resize-original.jpg,6119,1669219,1794070,35
857994,DepthScenes,v2_duration_discrimination,discrim_jsons/shuffled_g0_rotated_dr.json,http://54.211.221.249/DepthDuration/v2_depth_discrimination_MTurk/v2_DepthDiscrim_HTML.html#2,2,2560,1287,2560,1440,8-2-2021,8-55-38,200,,,,,,,2134,509,1005,987,1004,501,,2,1,depth_discrimination_stimuli/000521_2014-06-08_13-34-35_260595134347_rgbf000191-resize_2/000521_2014-06-08_13-34-35_260595134347_rgbf000191-resize-original.jpg,4904,1669219,1794070,35
857994,DepthScenes,v2_duration_discrimination,discrim_jsons/shuffled_g0_rotated_dr.json,http://54.211.221.249/DepthDuration/v2_depth_discrimination_MTurk/v2_DepthDiscrim_HTML.html#2,2,2560,1287,2560,1440,8-2-2021,8-55-38,201,,,,,,,2134,509,1005,987,1004,501,,2,1,depth_discrimination_stimuli/000720_2014-06-08_18-37-27_260595134347_rgbf000203-resize_4/000720_2014-06-08_18-37-27_260595134347_rgbf000203-resize-original.jpg,3342,1669219,1794070,35
857994,DepthScenes,v2_duration_discrimination,discrim_jsons/shuffled_g0_rotated_dr.json,http://54.211.221.249/DepthDuration/v2_depth_discrimination_MTurk/v2_DepthDiscrim_HTML.html#2,2,2560,1287,2560,1440,8-2-2021,8-55-38,202,,,,,,,2134,509,1005,987,1004,501,,1,3,depth_discrimination_stimuli/001289_2014-06-16_16-25-52_260595134347_rgbf000067-resize_1/001289_2014-06-16_16-25-52_260595134347_rgbf000067-resize-original.jpg,3685,1669219,1794070,35
857994,DepthScenes,v2_duration_discrimination,discrim_jsons/shuffled_g0_rotated_dr.json,http://54.211.221.249/DepthDuration/v2_depth_discrimination_MTurk/v2_DepthDiscrim_HTML.html#2,2,2560,1287,2560,1440,8-2-2021,8-55-38,203,,,,,,,2134,509,1005,987,1004,501,,2,3,depth_discrimination_stimuli/002365_2014-06-28_20-11-21_260595134347_rgbf000102-resize_1/002365_2014-06-28_20-11-21_260595134347_rgbf000102-resize-original.jpg,5838,1669219,1794070,35
857994,DepthScenes,v2_duration_discrimination,discrim_jsons/shuffled_g0_rotated_dr.json,http://54.211.221.249/DepthDuration/v2_depth_discrimination_MTurk/v2_DepthDiscrim_HTML.html#2,2,2560,1287,2560,1440,8-2-2021,8-55-38,204,,,,,,,2134,509,1005,987,1004,501,,2,2,depth_discrimination_stimuli/003546_2014-05-22_15-48-53_094959634447_rgbf004816-resize_3/003546_2014-05-22_15-48-53_094959634447_rgbf004816-resize-original.jpg,4518,1669219,1794070,35
857994,DepthScenes,v2_duration_discrimination,discrim_jsons/shuffled_g0_rotated_dr.json,http://54.211.221.249/DepthDuration/v2_depth_discrimination_MTurk/v2_DepthDiscrim_HTML.html#2,2,2560,1287,2560,1440,8-2-2021,8-55-38,205,,,,,,,2134,509,1005,987,1004,501,,2,3,depth_discrimination_stimuli/001052_2014-06-08_18-24-54_260595134347_rgbf000130-resize_1/001052_2014-06-08_18-24-54_260595134347_rgbf000130-resize-original.jpg,5456,1669219,1794070,35
857994,DepthScenes,v2_duration_discrimination,discrim_jsons/shuffled_g0_rotated_dr.json,http://54.211.221.249/DepthDuration/v2_depth_discrimination_MTurk/v2_DepthDiscrim_HTML.html#2,2,2560,1287,2560,1440,8-2-2021,8-55-38,206,,,,,,,2134,509,1005,987,1004,501,,2,3,depth_discrimination_stimuli/000505_2014-06-08_23-03-23_260595134347_rgbf000091-resize_0/000505_2014-06-08_23-03-23_260595134347_rgbf000091-resize-original.jpg,4204,1669219,1794070,35
857994,DepthScenes,v2_duration_discrimination,discrim_jsons/shuffled_g0_rotated_dr.json,http://54.211.221.249/DepthDuration/v2_depth_discrimination_MTurk/v2_DepthDiscrim_HTML.html#2,2,2560,1287,2560,1440,8-2-2021,8-55-38,207,,,,,,,2134,509,1005,987,1004,501,,1,2,depth_discrimination_stimuli/001055_2014-06-08_18-45-35_260595134347_rgbf000111-resize_4/001055_2014-06-08_18-45-35_260595134347_rgbf000111-resize-original.jpg,3768,1669219,1794070,35
857994,DepthScenes,v2_duration_discrimination,discrim_jsons/shuffled_g0_rotated_dr.json,http://54.211.221.249/DepthDuration/v2_depth_discrimination_MTurk/v2_DepthDiscrim_HTML.html#2,2,2560,1287,2560,1440,8-2-2021,8-55-38,208,,,,,,,2134,509,1005,987,1004,501,,1,2,depth_discrimination_stimuli/002758_2014-06-22_19-11-20_094959634447_rgbf000128-resize_1/002758_2014-06-22_19-11-20_094959634447_rgbf000128-resize-original.jpg,4537,1669219,1794070,35
