subjID,experimentName,versionName,sequenceName,url,selected_row,windowWidth,windowHeight,screenWidth,screenHeight,startDate,startTime,trial,stimulus_0,stimulus_1,duration,actual_depth_0,actual_depth_1,discrim_choice,trial_RT,log_fixation,log_sceneDuration1,log_mask1,log_sceneDuration2,log_mask2,unitSelection,meanDepth_rating,navigability_rating,rated_stimulus,rating_RT,experimentTime,totalTime,age
858738,DepthScenes,v2_duration_discrimination,discrim_jsons/shuffled_g0_dr.json,http://54.211.221.249/DepthDuration/v2_depth_discrimination_MTurk/v2_DepthDiscrim_HTML.html#1,1,1536,754,1536,864,8-2-2021,9-52-43,1,depth_discrimination_stimuli/001618_2014-06-20_11-37-31_260595134347_rgbf000027-resize_3/001618_2014-06-20_11-37-31_260595134347_rgbf000027-resize_3-target.png,depth_discrimination_stimuli/000109_2014-05-14_23-41-52_260595134347_rgbf000035-resize_9/000109_2014-05-14_23-41-52_260595134347_rgbf000035-resize_9-target.png,1000,1.8725,1.3545,0,2047,502,999,1001,998,503,,,,,,1801543,2373195,42
858738,DepthScenes,v2_duration_discrimination,discrim_jsons/shuffled_g0_dr.json,http://54.211.221.249/DepthDuration/v2_depth_discrimination_MTurk/v2_DepthDiscrim_HTML.html#1,1,1536,754,1536,864,8-2-2021,9-52-43,2,depth_discrimination_stimuli/002103_2014-06-25_20-00-40_260595134347_rgbf000049-resize_0/002103_2014-06-25_20-00-40_260595134347_rgbf000049-resize_0-target.png,depth_discrimination_stimuli/002444_2014-06-28_20-32-08_260595134347_rgbf000027-resize_0/002444_2014-06-28_20-32-08_260595134347_rgbf000027-resize_0-target.png,1000,4.105,4.389,0,2001,510,1002,999,996,518,,,,,,1801543,2373195,42
858738,DepthScenes,v2_duration_discrimination,discrim_jsons/shuffled_g0_dr.json,http://54.211.221.249/DepthDuration/v2_depth_discrimination_MTurk/v2_DepthDiscrim_HTML.html#1,1,1536,754,1536,864,8-2-2021,9-52-43,3,depth_discrimination_stimuli/000800_2014-06-08_22-42-09_260595134347_rgbf000095-resize_3/000800_2014-06-08_22-42-09_260595134347_rgbf000095-resize_3-target.png,depth_discrimination_stimuli/000869_2014-06-09_20-50-18_260595134347_rgbf000060-resize_3/000869_2014-06-09_20-50-18_260595134347_rgbf000060-resize_3-target.png,250,2.8,2.266,1,1489,517,247,987,271,502,,,,,,1801543,2373195,42
858738,DepthScenes,v2_duration_discrimination,discrim_jsons/shuffled_g0_dr.json,http://54.211.221.249/DepthDuration/v2_depth_discrimination_MTurk/v2_DepthDiscrim_HTML.html#1,1,1536,754,1536,864,8-2-2021,9-52-43,4,depth_discrimination_stimuli/001092_2014-06-15_17-34-58_260595134347_rgbf000171-resize_3/001092_2014-06-15_17-34-58_260595134347_rgbf000171-resize_3-target.png,depth_discrimination_stimuli/000502_2014-06-08_23-02-32_260595134347_rgbf000063-resize_4/000502_2014-06-08_23-02-32_260595134347_rgbf000063-resize_4-target.png,250,2.6935,2.431,0,1544,512,247,1003,238,501,,,,,,1801543,2373195,42
858738,DepthScenes,v2_duration_discrimination,discrim_jsons/shuffled_g0_dr.json,http://54.211.221.249/DepthDuration/v2_depth_discrimination_MTurk/v2_DepthDiscrim_HTML.html#1,1,1536,754,1536,864,8-2-2021,9-52-43,5,depth_discrimination_stimuli/000953_2014-06-08_11-42-19_260595134347_rgbf000083-resize_0/000953_2014-06-08_11-42-19_260595134347_rgbf000083-resize_0-target.png,depth_discrimination_stimuli/000787_2014-06-08_22-33-53_260595134347_rgbf000175-resize_1/000787_2014-06-08_22-33-53_260595134347_rgbf000175-resize_1-target.png,250,1.369,4.784,0,1258,508,247,1001,254,501,,,,,,1801543,2373195,42
858738,DepthScenes,v2_duration_discrimination,discrim_jsons/shuffled_g0_dr.json,http://54.211.221.249/DepthDuration/v2_depth_discrimination_MTurk/v2_DepthDiscrim_HTML.html#1,1,1536,754,1536,864,8-2-2021,9-52-43,6,depth_discrimination_stimuli/003083_2014-06-15_15-21-03_094959634447_rgbf000063-resize_1/003083_2014-06-15_15-21-03_094959634447_rgbf000063-resize_1-target.png,depth_discrimination_stimuli/000742_2014-06-08_18-48-09_260595134347_rgbf000164-resize_4/000742_2014-06-08_18-48-09_260595134347_rgbf000164-resize_4-target.png,1000,4.1405,4.632,1,2029,501,999,1007,1001,502,,,,,,1801543,2373195,42
858738,DepthScenes,v2_duration_discrimination,discrim_jsons/shuffled_g0_dr.json,http://54.211.221.249/DepthDuration/v2_depth_discrimination_MTurk/v2_DepthDiscrim_HTML.html#1,1,1536,754,1536,864,8-2-2021,9-52-43,7,depth_discrimination_stimuli/000749_2014-06-08_21-55-06_260595134347_rgbf000070-resize_2/000749_2014-06-08_21-55-06_260595134347_rgbf000070-resize_2-target.png,depth_discrimination_stimuli/001056_2014-06-08_18-46-44_260595134347_rgbf000068-resize_0/001056_2014-06-08_18-46-44_260595134347_rgbf000068-resize_0-target.png,250,2.331,2.6625,0,1192,507,245,1003,254,494,,,,,,1801543,2373195,42
858738,DepthScenes,v2_duration_discrimination,discrim_jsons/shuffled_g0_dr.json,http://54.211.221.249/DepthDuration/v2_depth_discrimination_MTurk/v2_DepthDiscrim_HTML.html#1,1,1536,754,1536,864,8-2-2021,9-52-43,8,depth_discrimination_stimuli/002043_2014-06-24_20-29-38_260595134347_rgbf000039-resize_4/002043_2014-06-24_20-29-38_260595134347_rgbf000039-resize_4-target.png,depth_discrimination_stimuli/001011_2014-06-08_23-18-54_260595134347_rgbf000044-resize_4/001011_2014-06-08_23-18-54_260595134347_rgbf000044-resize_4-target.png,1000,2.8435,2.473,0,1942,502,1001,1001,996,504,,,,,,1801543,2373195,42
858738,DepthScenes,v2_duration_discrimination,discrim_jsons/shuffled_g0_dr.json,http://54.211.221.249/DepthDuration/v2_depth_discrimination_MTurk/v2_DepthDiscrim_HTML.html#1,1,1536,754,1536,864,8-2-2021,9-52-43,9,depth_discrimination_stimuli/000454_2014-06-08_16-37-28_260595134347_rgbf000048-resize_2/000454_2014-06-08_16-37-28_260595134347_rgbf000048-resize_2-target.png,depth_discrimination_stimuli/000375_2014-06-08_11-17-29_260595134347_rgbf000133-resize_2/000375_2014-06-08_11-17-29_260595134347_rgbf000133-resize_2-target.png,1000,1.213,4.718,0,1953,510,1003,1003,987,504,,,,,,1801543,2373195,42
858738,DepthScenes,v2_duration_discrimination,discrim_jsons/shuffled_g0_dr.json,http://54.211.221.249/DepthDuration/v2_depth_discrimination_MTurk/v2_DepthDiscrim_HTML.html#1,1,1536,754,1536,864,8-2-2021,9-52-43,10,depth_discrimination_stimuli/001532_2014-06-20_16-50-41_260595134347_rgbf000081-resize_4/001532_2014-06-20_16-50-41_260595134347_rgbf000081-resize_4-target.png,depth_discrimination_stimuli/000943_2014-06-09_19-31-07_260595134347_rgbf000128-resize_1/000943_2014-06-09_19-31-07_260595134347_rgbf000128-resize_1-target.png,250,1.5758333333333,1.9765,0,1135,506,247,1005,254,502,,,,,,1801543,2373195,42
858738,DepthScenes,v2_duration_discrimination,discrim_jsons/shuffled_g0_dr.json,http://54.211.221.249/DepthDuration/v2_depth_discrimination_MTurk/v2_DepthDiscrim_HTML.html#1,1,1536,754,1536,864,8-2-2021,9-52-43,11,depth_discrimination_stimuli/002340_2014-06-28_20-05-46_260595134347_rgbf000113-resize_0/002340_2014-06-28_20-05-46_260595134347_rgbf000113-resize_0-target.png,depth_discrimination_stimuli/002905_2014-06-03_18-04-43_094959634447_rgbf000151-resize_2/002905_2014-06-03_18-04-43_094959634447_rgbf000151-resize_2-target.png,250,2.4735,2.0295,1,1173,501,253,1001,247,506,,,,,,1801543,2373195,42
858738,DepthScenes,v2_duration_discrimination,discrim_jsons/shuffled_g0_dr.json,http://54.211.221.249/DepthDuration/v2_depth_discrimination_MTurk/v2_DepthDiscrim_HTML.html#1,1,1536,754,1536,864,8-2-2021,9-52-43,12,depth_discrimination_stimuli/000691_2014-06-08_13-08-50_260595134347_rgbf000132-resize_3/000691_2014-06-08_13-08-50_260595134347_rgbf000132-resize_3-target.png,depth_discrimination_stimuli/002039_2014-06-24_20-22-38_260595134347_rgbf000084-resize_1/002039_2014-06-24_20-22-38_260595134347_rgbf000084-resize_1-target.png,250,4.153,4.408,0,1403,502,248,1004,253,502,,,,,,1801543,2373195,42
858738,DepthScenes,v2_duration_discrimination,discrim_jsons/shuffled_g0_dr.json,http://54.211.221.249/DepthDuration/v2_depth_discrimination_MTurk/v2_DepthDiscrim_HTML.html#1,1,1536,754,1536,864,8-2-2021,9-52-43,13,depth_discrimination_stimuli/000569_2014-06-09_22-51-47_260595134347_rgbf000141-resize_3/000569_2014-06-09_22-51-47_260595134347_rgbf000141-resize_3-target.png,depth_discrimination_stimuli/000868_2014-06-09_20-49-52_260595134347_rgbf000064-resize_4/000868_2014-06-09_20-49-52_260595134347_rgbf000064-resize_4-target.png,250,4.512,1.2815,1,1089,502,259,990,260,491,,,,,,1801543,2373195,42
858738,DepthScenes,v2_duration_discrimination,discrim_jsons/shuffled_g0_dr.json,http://54.211.221.249/DepthDuration/v2_depth_discrimination_MTurk/v2_DepthDiscrim_HTML.html#1,1,1536,754,1536,864,8-2-2021,9-52-43,14,depth_discrimination_stimuli/003587_2014-05-23_16-48-02_094959634447_rgbf002384-resize_2/003587_2014-05-23_16-48-02_094959634447_rgbf002384-resize_2-target.png,depth_discrimination_stimuli/000709_2014-06-08_13-51-55_260595134347_rgbf000068-resize_3/000709_2014-06-08_13-51-55_260595134347_rgbf000068-resize_3-target.png,250,1.357,1.803,0,1385,508,242,1002,248,500,,,,,,1801543,2373195,42
858738,DepthScenes,v2_duration_discrimination,discrim_jsons/shuffled_g0_dr.json,http://54.211.221.249/DepthDuration/v2_depth_discrimination_MTurk/v2_DepthDiscrim_HTML.html#1,1,1536,754,1536,864,8-2-2021,9-52-43,15,depth_discrimination_stimuli/002199_2014-06-28_18-33-56_260595134347_rgbf000074-resize_0/002199_2014-06-28_18-33-56_260595134347_rgbf000074-resize_0-target.png,depth_discrimination_stimuli/001016_2014-06-09_16-16-10_260595134347_rgbf000112-resize_5/001016_2014-06-09_16-16-10_260595134347_rgbf000112-resize_5-target.png,1000,1.996,1.6565,0,2134,501,999,1000,1007,512,,,,,,1801543,2373195,42
858738,DepthScenes,v2_duration_discrimination,discrim_jsons/shuffled_g0_dr.json,http://54.211.221.249/DepthDuration/v2_depth_discrimination_MTurk/v2_DepthDiscrim_HTML.html#1,1,1536,754,1536,864,8-2-2021,9-52-43,16,depth_discrimination_stimuli/000493_2014-06-09_21-01-18_260595134347_rgbf000196-resize_3/000493_2014-06-09_21-01-18_260595134347_rgbf000196-resize_3-target.png,depth_discrimination_stimuli/000409_2014-06-04_19-23-33_260595134347_rgbf000067-resize_0/000409_2014-06-04_19-23-33_260595134347_rgbf000067-resize_0-target.png,1000,3.44,3.7335,0,1844,508,997,1005,1001,491,,,,,,1801543,2373195,42
858738,DepthScenes,v2_duration_discrimination,discrim_jsons/shuffled_g0_dr.json,http://54.211.221.249/DepthDuration/v2_depth_discrimination_MTurk/v2_DepthDiscrim_HTML.html#1,1,1536,754,1536,864,8-2-2021,9-52-43,17,depth_discrimination_stimuli/002953_2014-06-08_17-32-18_094959634447_rgbf000059-resize_5/002953_2014-06-08_17-32-18_094959634447_rgbf000059-resize_5-target.png,depth_discrimination_stimuli/000470_2014-06-09_19-42-40_260595134347_rgbf000094-resize_1/000470_2014-06-09_19-42-40_260595134347_rgbf000094-resize_1-target.png,1000,1.551,1.831,0,1907,501,1000,1015,983,510,,,,,,1801543,2373195,42
858738,DepthScenes,v2_duration_discrimination,discrim_jsons/shuffled_g0_dr.json,http://54.211.221.249/DepthDuration/v2_depth_discrimination_MTurk/v2_DepthDiscrim_HTML.html#1,1,1536,754,1536,864,8-2-2021,9-52-43,18,depth_discrimination_stimuli/000929_2014-06-09_16-33-19_260595134347_rgbf000139-resize_0/000929_2014-06-09_16-33-19_260595134347_rgbf000139-resize_0-target.png,depth_discrimination_stimuli/001055_2014-06-08_18-45-35_260595134347_rgbf000111-resize_4/001055_2014-06-08_18-45-35_260595134347_rgbf000111-resize_4-target.png,250,2.868,2.429,0,1252,504,249,1002,247,505,,,,,,1801543,2373195,42
858738,DepthScenes,v2_duration_discrimination,discrim_jsons/shuffled_g0_dr.json,http://54.211.221.249/DepthDuration/v2_depth_discrimination_MTurk/v2_DepthDiscrim_HTML.html#1,1,1536,754,1536,864,8-2-2021,9-52-43,19,depth_discrimination_stimuli/002118_2014-06-25_20-32-08_260595134347_rgbf000078-resize_1/002118_2014-06-25_20-32-08_260595134347_rgbf000078-resize_1-target.png,depth_discrimination_stimuli/001164_2014-06-17_15-35-46_260595134347_rgbf000085-resize_3/001164_2014-06-17_15-35-46_260595134347_rgbf000085-resize_3-target.png,250,2.646,2.354,1,1118,503,255,1001,246,502,,,,,,1801543,2373195,42
858738,DepthScenes,v2_duration_discrimination,discrim_jsons/shuffled_g0_dr.json,http://54.211.221.249/DepthDuration/v2_depth_discrimination_MTurk/v2_DepthDiscrim_HTML.html#1,1,1536,754,1536,864,8-2-2021,9-52-43,20,depth_discrimination_stimuli/002675_2014-06-13_16-08-49_094959634447_rgbf000151-resize_2/002675_2014-06-13_16-08-49_094959634447_rgbf000151-resize_2-target.png,depth_discrimination_stimuli/001222_2014-06-17_16-24-06_260595134347_rgbf000073-resize_0/001222_2014-06-17_16-24-06_260595134347_rgbf000073-resize_0-target.png,1000,4.5065,1.4385,1,1818,502,1004,1002,1005,501,,,,,,1801543,2373195,42
858738,DepthScenes,v2_duration_discrimination,discrim_jsons/shuffled_g0_dr.json,http://54.211.221.249/DepthDuration/v2_depth_discrimination_MTurk/v2_DepthDiscrim_HTML.html#1,1,1536,754,1536,864,8-2-2021,9-52-43,21,depth_discrimination_stimuli/000556_2014-06-09_22-42-56_260595134347_rgbf000214-resize_1/000556_2014-06-09_22-42-56_260595134347_rgbf000214-resize_1-target.png,depth_discrimination_stimuli/001148_2014-06-17_15-26-42_260595134347_rgbf000129-resize_0/001148_2014-06-17_15-26-42_260595134347_rgbf000129-resize_0-target.png,250,4.8415,4.368,1,1150,509,252,1007,237,496,,,,,,1801543,2373195,42
858738,DepthScenes,v2_duration_discrimination,discrim_jsons/shuffled_g0_dr.json,http://54.211.221.249/DepthDuration/v2_depth_discrimination_MTurk/v2_DepthDiscrim_HTML.html#1,1,1536,754,1536,864,8-2-2021,9-52-43,22,depth_discrimination_stimuli/002805_2014-06-22_19-54-03_094959634447_rgbf000079-resize_1/002805_2014-06-22_19-54-03_094959634447_rgbf000079-resize_1-target.png,depth_discrimination_stimuli/001584_2014-06-20_11-07-43_260595134347_rgbf000002-resize_1/001584_2014-06-20_11-07-43_260595134347_rgbf000002-resize_1-target.png,1000,3.144,3.53,0,1962,515,988,1007,1004,487,,,,,,1801543,2373195,42
858738,DepthScenes,v2_duration_discrimination,discrim_jsons/shuffled_g0_dr.json,http://54.211.221.249/DepthDuration/v2_depth_discrimination_MTurk/v2_DepthDiscrim_HTML.html#1,1,1536,754,1536,864,8-2-2021,9-52-43,23,depth_discrimination_stimuli/000549_2014-06-08_22-10-24_260595134347_rgbf000247-resize_3/000549_2014-06-08_22-10-24_260595134347_rgbf000247-resize_3-target.png,depth_discrimination_stimuli/002509_2014-06-24_13-19-22_094959634447_rgbf000077-resize_0/002509_2014-06-24_13-19-22_094959634447_rgbf000077-resize_0-target.png,250,1.841,1.3065,0,1293,518,247,995,245,499,,,,,,1801543,2373195,42
858738,DepthScenes,v2_duration_discrimination,discrim_jsons/shuffled_g0_dr.json,http://54.211.221.249/DepthDuration/v2_depth_discrimination_MTurk/v2_DepthDiscrim_HTML.html#1,1,1536,754,1536,864,8-2-2021,9-52-43,24,depth_discrimination_stimuli/001450_2014-06-19_17-02-03_260595134347_rgbf000203-resize_4/001450_2014-06-19_17-02-03_260595134347_rgbf000203-resize_4-target.png,depth_discrimination_stimuli/002414_2014-06-28_20-24-58_260595134347_rgbf000067-resize_4/002414_2014-06-28_20-24-58_260595134347_rgbf000067-resize_4-target.png,1000,4.0106666666667,4.363,0,1949,501,1011,989,999,505,,,,,,1801543,2373195,42
858738,DepthScenes,v2_duration_discrimination,discrim_jsons/shuffled_g0_dr.json,http://54.211.221.249/DepthDuration/v2_depth_discrimination_MTurk/v2_DepthDiscrim_HTML.html#1,1,1536,754,1536,864,8-2-2021,9-52-43,25,depth_discrimination_stimuli/003495_2014-05-21_16-01-51_094959634447_rgbf000100-resize_3/003495_2014-05-21_16-01-51_094959634447_rgbf000100-resize_3-target.png,depth_discrimination_stimuli/002949_2014-06-26_15-57-42_094959634447_rgbf000079-resize_1/002949_2014-06-26_15-57-42_094959634447_rgbf000079-resize_1-target.png,1000,1.6255,1.8915,0,2009,505,1001,1008,997,501,,,,,,1801543,2373195,42
858738,DepthScenes,v2_duration_discrimination,discrim_jsons/shuffled_g0_dr.json,http://54.211.221.249/DepthDuration/v2_depth_discrimination_MTurk/v2_DepthDiscrim_HTML.html#1,1,1536,754,1536,864,8-2-2021,9-52-43,26,depth_discrimination_stimuli/001498_2014-06-19_17-45-14_260595134347_rgbf000129-resize_4/001498_2014-06-19_17-45-14_260595134347_rgbf000129-resize_4-target.png,depth_discrimination_stimuli/003125_2014-05-12_10-39-22_094959634447_rgbf000100-resize_0/003125_2014-05-12_10-39-22_094959634447_rgbf000100-resize_0-target.png,1000,1.4075,4.8655,0,2066,527,978,997,998,509,,,,,,1801543,2373195,42
858738,DepthScenes,v2_duration_discrimination,discrim_jsons/shuffled_g0_dr.json,http://54.211.221.249/DepthDuration/v2_depth_discrimination_MTurk/v2_DepthDiscrim_HTML.html#1,1,1536,754,1536,864,8-2-2021,9-52-43,27,depth_discrimination_stimuli/002549_2014-06-24_13-41-39_094959634447_rgbf000022-resize_3/002549_2014-06-24_13-41-39_094959634447_rgbf000022-resize_3-target.png,depth_discrimination_stimuli/001136_2014-06-17_15-19-41_260595134347_rgbf000076-resize_3/001136_2014-06-17_15-19-41_260595134347_rgbf000076-resize_3-target.png,250,1.476,1.8655,0,1278,506,246,1000,248,513,,,,,,1801543,2373195,42
858738,DepthScenes,v2_duration_discrimination,discrim_jsons/shuffled_g0_dr.json,http://54.211.221.249/DepthDuration/v2_depth_discrimination_MTurk/v2_DepthDiscrim_HTML.html#1,1,1536,754,1536,864,8-2-2021,9-52-43,28,depth_discrimination_stimuli/003490_2014-05-21_15-50-11_094959634447_rgbf000101-resize_3/003490_2014-05-21_15-50-11_094959634447_rgbf000101-resize_3-target.png,depth_discrimination_stimuli/000866_2014-06-09_20-45-42_260595134347_rgbf000139-resize_1/000866_2014-06-09_20-45-42_260595134347_rgbf000139-resize_1-target.png,250,3.6445,3.2155,1,1357,515,238,998,250,500,,,,,,1801543,2373195,42
858738,DepthScenes,v2_duration_discrimination,discrim_jsons/shuffled_g0_dr.json,http://54.211.221.249/DepthDuration/v2_depth_discrimination_MTurk/v2_DepthDiscrim_HTML.html#1,1,1536,754,1536,864,8-2-2021,9-52-43,29,depth_discrimination_stimuli/003292_2014-05-14_21-53-49_094959634447_rgbf000100-resize_2/003292_2014-05-14_21-53-49_094959634447_rgbf000100-resize_2-target.png,depth_discrimination_stimuli/000542_2014-06-08_18-27-08_260595134347_rgbf000118-resize_1/000542_2014-06-08_18-27-08_260595134347_rgbf000118-resize_1-target.png,250,3.4815,3,0,1647,505,253,1002,247,503,,,,,,1801543,2373195,42
858738,DepthScenes,v2_duration_discrimination,discrim_jsons/shuffled_g0_dr.json,http://54.211.221.249/DepthDuration/v2_depth_discrimination_MTurk/v2_DepthDiscrim_HTML.html#1,1,1536,754,1536,864,8-2-2021,9-52-43,30,depth_discrimination_stimuli/002072_2014-06-24_21-48-06_260595134347_rgbf000115-resize_0/002072_2014-06-24_21-48-06_260595134347_rgbf000115-resize_0-target.png,depth_discrimination_stimuli/001012_2014-06-08_23-19-38_260595134347_rgbf000057-resize_0/001012_2014-06-08_23-19-38_260595134347_rgbf000057-resize_0-target.png,250,4.702,1.38325,1,1255,515,247,989,248,510,,,,,,1801543,2373195,42
858738,DepthScenes,v2_duration_discrimination,discrim_jsons/shuffled_g0_dr.json,http://54.211.221.249/DepthDuration/v2_depth_discrimination_MTurk/v2_DepthDiscrim_HTML.html#1,1,1536,754,1536,864,8-2-2021,9-52-43,31,depth_discrimination_stimuli/000927_2014-06-09_16-32-30_260595134347_rgbf000123-resize_3/000927_2014-06-09_16-32-30_260595134347_rgbf000123-resize_3-target.png,depth_discrimination_stimuli/002678_2014-06-13_16-15-32_094959634447_rgbf000151-resize_6/002678_2014-06-13_16-15-32_094959634447_rgbf000151-resize_6-target.png,1000,2.6785,2.183,0,1961,503,1000,998,999,500,,,,,,1801543,2373195,42
858738,DepthScenes,v2_duration_discrimination,discrim_jsons/shuffled_g0_dr.json,http://54.211.221.249/DepthDuration/v2_depth_discrimination_MTurk/v2_DepthDiscrim_HTML.html#1,1,1536,754,1536,864,8-2-2021,9-52-43,32,depth_discrimination_stimuli/002660_2014-06-13_15-44-18_094959634447_rgbf001878-resize_2/002660_2014-06-13_15-44-18_094959634447_rgbf001878-resize_2-target.png,depth_discrimination_stimuli/003081_2014-06-15_15-19-16_094959634447_rgbf000150-resize_1/003081_2014-06-15_15-19-16_094959634447_rgbf000150-resize_1-target.png,250,3.576,3.9125,1,1213,502,250,999,249,500,,,,,,1801543,2373195,42
858738,DepthScenes,v2_duration_discrimination,discrim_jsons/shuffled_g0_dr.json,http://54.211.221.249/DepthDuration/v2_depth_discrimination_MTurk/v2_DepthDiscrim_HTML.html#1,1,1536,754,1536,864,8-2-2021,9-52-43,33,depth_discrimination_stimuli/001158_2014-06-17_15-32-16_260595134347_rgbf000138-resize_2/001158_2014-06-17_15-32-16_260595134347_rgbf000138-resize_2-target.png,depth_discrimination_stimuli/001181_2014-06-17_15-50-57_260595134347_rgbf000106-resize_4/001181_2014-06-17_15-50-57_260595134347_rgbf000106-resize_4-target.png,1000,4.5315,4.149,1,1824,501,1001,1000,1008,493,,,,,,1801543,2373195,42
858738,DepthScenes,v2_duration_discrimination,discrim_jsons/shuffled_g0_dr.json,http://54.211.221.249/DepthDuration/v2_depth_discrimination_MTurk/v2_DepthDiscrim_HTML.html#1,1,1536,754,1536,864,8-2-2021,9-52-43,34,depth_discrimination_stimuli/002467_2014-06-28_20-38-07_260595134347_rgbf000026-resize_2/002467_2014-06-28_20-38-07_260595134347_rgbf000026-resize_2-target.png,depth_discrimination_stimuli/001133_2014-06-17_14-49-16_260595134347_rgbf000100-resize_0/001133_2014-06-17_14-49-16_260595134347_rgbf000100-resize_0-target.png,1000,4.742,4.2115,1,1991,502,1012,988,1006,504,,,,,,1801543,2373195,42
858738,DepthScenes,v2_duration_discrimination,discrim_jsons/shuffled_g0_dr.json,http://54.211.221.249/DepthDuration/v2_depth_discrimination_MTurk/v2_DepthDiscrim_HTML.html#1,1,1536,754,1536,864,8-2-2021,9-52-43,35,depth_discrimination_stimuli/001170_2014-06-17_15-43-44_260595134347_rgbf000096-resize_6/001170_2014-06-17_15-43-44_260595134347_rgbf000096-resize_6-target.png,depth_discrimination_stimuli/002364_2014-06-28_20-11-05_260595134347_rgbf000042-resize_0/002364_2014-06-28_20-11-05_260595134347_rgbf000042-resize_0-target.png,250,1.191,4.682,0,1349,503,253,1010,238,501,,,,,,1801543,2373195,42
858738,DepthScenes,v2_duration_discrimination,discrim_jsons/shuffled_g0_dr.json,http://54.211.221.249/DepthDuration/v2_depth_discrimination_MTurk/v2_DepthDiscrim_HTML.html#1,1,1536,754,1536,864,8-2-2021,9-52-43,36,depth_discrimination_stimuli/003423_2014-05-21_10-23-26_094959634447_rgbf002665-resize_2/003423_2014-05-21_10-23-26_094959634447_rgbf002665-resize_2-target.png,depth_discrimination_stimuli/000137_2014-05-20_17-04-49_260595134347_rgbf000120-resize_1/000137_2014-05-20_17-04-49_260595134347_rgbf000120-resize_1-target.png,1000,3.2575,3.786,1,1909,509,1004,1003,987,498,,,,,,1801543,2373195,42
858738,DepthScenes,v2_duration_discrimination,discrim_jsons/shuffled_g0_dr.json,http://54.211.221.249/DepthDuration/v2_depth_discrimination_MTurk/v2_DepthDiscrim_HTML.html#1,1,1536,754,1536,864,8-2-2021,9-52-43,37,depth_discrimination_stimuli/001197_2014-06-17_16-01-50_260595134347_rgbf000103-resize_4/001197_2014-06-17_16-01-50_260595134347_rgbf000103-resize_4-target.png,depth_discrimination_stimuli/001235_2014-06-17_16-37-36_260595134347_rgbf000084-resize_4/001235_2014-06-17_16-37-36_260595134347_rgbf000084-resize_4-target.png,1000,3.4025,3.6605,0,1893,502,999,999,1001,511,,,,,,1801543,2373195,42
858738,DepthScenes,v2_duration_discrimination,discrim_jsons/shuffled_g0_dr.json,http://54.211.221.249/DepthDuration/v2_depth_discrimination_MTurk/v2_DepthDiscrim_HTML.html#1,1,1536,754,1536,864,8-2-2021,9-52-43,38,depth_discrimination_stimuli/003395_2014-05-20_15-39-18_094959634447_rgbf000101-resize_0/003395_2014-05-20_15-39-18_094959634447_rgbf000101-resize_0-target.png,depth_discrimination_stimuli/001540_2014-06-20_17-01-05_260595134347_rgbf000086-resize_2/001540_2014-06-20_17-01-05_260595134347_rgbf000086-resize_2-target.png,1000,4.835,1.459,1,1921,504,1004,1008,1002,500,,,,,,1801543,2373195,42
858738,DepthScenes,v2_duration_discrimination,discrim_jsons/shuffled_g0_dr.json,http://54.211.221.249/DepthDuration/v2_depth_discrimination_MTurk/v2_DepthDiscrim_HTML.html#1,1,1536,754,1536,864,8-2-2021,9-52-43,39,depth_discrimination_stimuli/001808_2014-06-26_20-50-58_260595134347_rgbf000029-resize_1/001808_2014-06-26_20-50-58_260595134347_rgbf000029-resize_1-target.png,depth_discrimination_stimuli/002748_2014-06-22_19-07-22_094959634447_rgbf000078-resize_1/002748_2014-06-22_19-07-22_094959634447_rgbf000078-resize_1-target.png,1000,4.249,4.6705,0,2274,500,1006,1000,1003,491,,,,,,1801543,2373195,42
858738,DepthScenes,v2_duration_discrimination,discrim_jsons/shuffled_g0_dr.json,http://54.211.221.249/DepthDuration/v2_depth_discrimination_MTurk/v2_DepthDiscrim_HTML.html#1,1,1536,754,1536,864,8-2-2021,9-52-43,40,depth_discrimination_stimuli/002323_2014-06-28_20-01-54_260595134347_rgbf000051-resize_4/002323_2014-06-28_20-01-54_260595134347_rgbf000051-resize_4-target.png,depth_discrimination_stimuli/001032_2014-06-08_13-23-17_260595134347_rgbf000021-resize_3/001032_2014-06-08_13-23-17_260595134347_rgbf000021-resize_3-target.png,1000,3.731,3.2725,1,1894,514,998,1002,999,501,,,,,,1801543,2373195,42
858738,DepthScenes,v2_duration_discrimination,discrim_jsons/shuffled_g0_dr.json,http://54.211.221.249/DepthDuration/v2_depth_discrimination_MTurk/v2_DepthDiscrim_HTML.html#1,1,1536,754,1536,864,8-2-2021,9-52-43,40,,,,,,,1894,514,998,1002,999,501,,,,,,1801543,2373195,42
858738,DepthScenes,v2_duration_discrimination,discrim_jsons/shuffled_g0_dr.json,http://54.211.221.249/DepthDuration/v2_depth_discrimination_MTurk/v2_DepthDiscrim_HTML.html#1,1,1519,754,1536,864,8-2-2021,9-52-43,42,,,,,,,1894,514,998,1002,999,501,,3,1,depth_discrimination_stimuli/000740_2014-06-08_18-46-23_260595134347_rgbf000049-resize_6/000740_2014-06-08_18-46-23_260595134347_rgbf000049-resize-original.jpg,100648,1801543,2373195,42
858738,DepthScenes,v2_duration_discrimination,discrim_jsons/shuffled_g0_dr.json,http://54.211.221.249/DepthDuration/v2_depth_discrimination_MTurk/v2_DepthDiscrim_HTML.html#1,1,1519,754,1536,864,8-2-2021,9-52-43,43,,,,,,,1894,514,998,1002,999,501,,2,3,depth_discrimination_stimuli/002639_2014-06-24_14-51-37_094959634447_rgbf000074-resize_4/002639_2014-06-24_14-51-37_094959634447_rgbf000074-resize-original.jpg,20818,1801543,2373195,42
858738,DepthScenes,v2_duration_discrimination,discrim_jsons/shuffled_g0_dr.json,http://54.211.221.249/DepthDuration/v2_depth_discrimination_MTurk/v2_DepthDiscrim_HTML.html#1,1,1519,754,1536,864,8-2-2021,9-52-43,44,,,,,,,1894,514,998,1002,999,501,,3,5,depth_discrimination_stimuli/000409_2014-06-04_19-23-33_260595134347_rgbf000067-resize_0/000409_2014-06-04_19-23-33_260595134347_rgbf000067-resize-original.jpg,10062,1801543,2373195,42
858738,DepthScenes,v2_duration_discrimination,discrim_jsons/shuffled_g0_dr.json,http://54.211.221.249/DepthDuration/v2_depth_discrimination_MTurk/v2_DepthDiscrim_HTML.html#1,1,1519,754,1536,864,8-2-2021,9-52-43,45,,,,,,,1894,514,998,1002,999,501,,3,2,depth_discrimination_stimuli/002995_2014-06-15_12-31-26_094959634447_rgbf000150-resize_1/002995_2014-06-15_12-31-26_094959634447_rgbf000150-resize-original.jpg,15522,1801543,2373195,42
858738,DepthScenes,v2_duration_discrimination,discrim_jsons/shuffled_g0_dr.json,http://54.211.221.249/DepthDuration/v2_depth_discrimination_MTurk/v2_DepthDiscrim_HTML.html#1,1,1519,754,1536,864,8-2-2021,9-52-43,46,,,,,,,1894,514,998,1002,999,501,,3,4,depth_discrimination_stimuli/000636_2014-06-08_16-39-02_260595134347_rgbf000108-resize_4/000636_2014-06-08_16-39-02_260595134347_rgbf000108-resize-original.jpg,13320,1801543,2373195,42
858738,DepthScenes,v2_duration_discrimination,discrim_jsons/shuffled_g0_dr.json,http://54.211.221.249/DepthDuration/v2_depth_discrimination_MTurk/v2_DepthDiscrim_HTML.html#1,1,1519,754,1536,864,8-2-2021,9-52-43,47,,,,,,,1894,514,998,1002,999,501,,4,4,depth_discrimination_stimuli/000943_2014-06-09_19-31-07_260595134347_rgbf000128-resize_1/000943_2014-06-09_19-31-07_260595134347_rgbf000128-resize-original.jpg,8148,1801543,2373195,42
858738,DepthScenes,v2_duration_discrimination,discrim_jsons/shuffled_g0_dr.json,http://54.211.221.249/DepthDuration/v2_depth_discrimination_MTurk/v2_DepthDiscrim_HTML.html#1,1,1519,754,1536,864,8-2-2021,9-52-43,48,,,,,,,1894,514,998,1002,999,501,,3,3,depth_discrimination_stimuli/001150_2014-06-17_15-27-34_260595134347_rgbf000108-resize_2/001150_2014-06-17_15-27-34_260595134347_rgbf000108-resize-original.jpg,7799,1801543,2373195,42
858738,DepthScenes,v2_duration_discrimination,discrim_jsons/shuffled_g0_dr.json,http://54.211.221.249/DepthDuration/v2_depth_discrimination_MTurk/v2_DepthDiscrim_HTML.html#1,1,1519,754,1536,864,8-2-2021,9-52-43,49,,,,,,,1894,514,998,1002,999,501,,2,3,depth_discrimination_stimuli/000739_2014-06-08_18-45-58_260595134347_rgbf000068-resize_1/000739_2014-06-08_18-45-58_260595134347_rgbf000068-resize-original.jpg,9302,1801543,2373195,42
858738,DepthScenes,v2_duration_discrimination,discrim_jsons/shuffled_g0_dr.json,http://54.211.221.249/DepthDuration/v2_depth_discrimination_MTurk/v2_DepthDiscrim_HTML.html#1,1,1519,754,1536,864,8-2-2021,9-52-43,50,,,,,,,1894,514,998,1002,999,501,,3,2,depth_discrimination_stimuli/002630_2014-06-24_14-47-50_094959634447_rgbf000055-resize_1/002630_2014-06-24_14-47-50_094959634447_rgbf000055-resize-original.jpg,15194,1801543,2373195,42
858738,DepthScenes,v2_duration_discrimination,discrim_jsons/shuffled_g0_dr.json,http://54.211.221.249/DepthDuration/v2_depth_discrimination_MTurk/v2_DepthDiscrim_HTML.html#1,1,1519,754,1536,864,8-2-2021,9-52-43,51,,,,,,,1894,514,998,1002,999,501,,3,4,depth_discrimination_stimuli/002660_2014-06-13_15-44-18_094959634447_rgbf001878-resize_2/002660_2014-06-13_15-44-18_094959634447_rgbf001878-resize-original.jpg,5552,1801543,2373195,42
858738,DepthScenes,v2_duration_discrimination,discrim_jsons/shuffled_g0_dr.json,http://54.211.221.249/DepthDuration/v2_depth_discrimination_MTurk/v2_DepthDiscrim_HTML.html#1,1,1519,754,1536,864,8-2-2021,9-52-43,52,,,,,,,1894,514,998,1002,999,501,,2,1,depth_discrimination_stimuli/002949_2014-06-26_15-57-42_094959634447_rgbf000079-resize_1/002949_2014-06-26_15-57-42_094959634447_rgbf000079-resize-original.jpg,6033,1801543,2373195,42
858738,DepthScenes,v2_duration_discrimination,discrim_jsons/shuffled_g0_dr.json,http://54.211.221.249/DepthDuration/v2_depth_discrimination_MTurk/v2_DepthDiscrim_HTML.html#1,1,1519,754,1536,864,8-2-2021,9-52-43,53,,,,,,,1894,514,998,1002,999,501,,1,4,depth_discrimination_stimuli/001815_2014-06-26_20-52-55_260595134347_rgbf000020-resize_0/001815_2014-06-26_20-52-55_260595134347_rgbf000020-resize-original.jpg,36692,1801543,2373195,42
858738,DepthScenes,v2_duration_discrimination,discrim_jsons/shuffled_g0_dr.json,http://54.211.221.249/DepthDuration/v2_depth_discrimination_MTurk/v2_DepthDiscrim_HTML.html#1,1,1519,754,1536,864,8-2-2021,9-52-43,54,,,,,,,1894,514,998,1002,999,501,,2,3,depth_discrimination_stimuli/000830_2014-06-04_19-49-31_260595134347_rgbf000096-resize_2/000830_2014-06-04_19-49-31_260595134347_rgbf000096-resize-original.jpg,7643,1801543,2373195,42
858738,DepthScenes,v2_duration_discrimination,discrim_jsons/shuffled_g0_dr.json,http://54.211.221.249/DepthDuration/v2_depth_discrimination_MTurk/v2_DepthDiscrim_HTML.html#1,1,1519,754,1536,864,8-2-2021,9-52-43,55,,,,,,,1894,514,998,1002,999,501,,2,3,depth_discrimination_stimuli/002039_2014-06-24_20-22-38_260595134347_rgbf000084-resize_1/002039_2014-06-24_20-22-38_260595134347_rgbf000084-resize-original.jpg,10597,1801543,2373195,42
858738,DepthScenes,v2_duration_discrimination,discrim_jsons/shuffled_g0_dr.json,http://54.211.221.249/DepthDuration/v2_depth_discrimination_MTurk/v2_DepthDiscrim_HTML.html#1,1,1519,754,1536,864,8-2-2021,9-52-43,56,,,,,,,1894,514,998,1002,999,501,,3,2,depth_discrimination_stimuli/000556_2014-06-09_22-42-56_260595134347_rgbf000214-resize_1/000556_2014-06-09_22-42-56_260595134347_rgbf000214-resize-original.jpg,9029,1801543,2373195,42
858738,DepthScenes,v2_duration_discrimination,discrim_jsons/shuffled_g0_dr.json,http://54.211.221.249/DepthDuration/v2_depth_discrimination_MTurk/v2_DepthDiscrim_HTML.html#1,1,1519,754,1536,864,8-2-2021,9-52-43,57,,,,,,,1894,514,998,1002,999,501,,2,4,depth_discrimination_stimuli/001110_2014-06-15_17-25-28_260595134347_rgbf000150-resize_1/001110_2014-06-15_17-25-28_260595134347_rgbf000150-resize-original.jpg,6787,1801543,2373195,42
858738,DepthScenes,v2_duration_discrimination,discrim_jsons/shuffled_g0_dr.json,http://54.211.221.249/DepthDuration/v2_depth_discrimination_MTurk/v2_DepthDiscrim_HTML.html#1,1,1519,754,1536,864,8-2-2021,9-52-43,58,,,,,,,1894,514,998,1002,999,501,,2,3,depth_discrimination_stimuli/000103_2014-05-14_22-01-17_260595134347_rgbf000152-resize_5/000103_2014-05-14_22-01-17_260595134347_rgbf000152-resize-original.jpg,14438,1801543,2373195,42
858738,DepthScenes,v2_duration_discrimination,discrim_jsons/shuffled_g0_dr.json,http://54.211.221.249/DepthDuration/v2_depth_discrimination_MTurk/v2_DepthDiscrim_HTML.html#1,1,1519,754,1536,864,8-2-2021,9-52-43,59,,,,,,,1894,514,998,1002,999,501,,2,3,depth_discrimination_stimuli/001148_2014-06-17_15-26-42_260595134347_rgbf000129-resize_0/001148_2014-06-17_15-26-42_260595134347_rgbf000129-resize-original.jpg,4954,1801543,2373195,42
858738,DepthScenes,v2_duration_discrimination,discrim_jsons/shuffled_g0_dr.json,http://54.211.221.249/DepthDuration/v2_depth_discrimination_MTurk/v2_DepthDiscrim_HTML.html#1,1,1519,754,1536,864,8-2-2021,9-52-43,60,,,,,,,1894,514,998,1002,999,501,,3,2,depth_discrimination_stimuli/002323_2014-06-28_20-01-54_260595134347_rgbf000051-resize_4/002323_2014-06-28_20-01-54_260595134347_rgbf000051-resize-original.jpg,10931,1801543,2373195,42
858738,DepthScenes,v2_duration_discrimination,discrim_jsons/shuffled_g0_dr.json,http://54.211.221.249/DepthDuration/v2_depth_discrimination_MTurk/v2_DepthDiscrim_HTML.html#1,1,1519,754,1536,864,8-2-2021,9-52-43,61,,,,,,,1894,514,998,1002,999,501,,3,2,depth_discrimination_stimuli/000800_2014-06-08_22-42-09_260595134347_rgbf000095-resize_3/000800_2014-06-08_22-42-09_260595134347_rgbf000095-resize-original.jpg,8132,1801543,2373195,42
858738,DepthScenes,v2_duration_discrimination,discrim_jsons/shuffled_g0_dr.json,http://54.211.221.249/DepthDuration/v2_depth_discrimination_MTurk/v2_DepthDiscrim_HTML.html#1,1,1519,754,1536,864,8-2-2021,9-52-43,62,,,,,,,1894,514,998,1002,999,501,,3,1,depth_discrimination_stimuli/000549_2014-06-08_22-10-24_260595134347_rgbf000247-resize_3/000549_2014-06-08_22-10-24_260595134347_rgbf000247-resize-original.jpg,7060,1801543,2373195,42
858738,DepthScenes,v2_duration_discrimination,discrim_jsons/shuffled_g0_dr.json,http://54.211.221.249/DepthDuration/v2_depth_discrimination_MTurk/v2_DepthDiscrim_HTML.html#1,1,1519,754,1536,864,8-2-2021,9-52-43,63,,,,,,,1894,514,998,1002,999,501,,3,2,depth_discrimination_stimuli/001032_2014-06-08_13-23-17_260595134347_rgbf000021-resize_3/001032_2014-06-08_13-23-17_260595134347_rgbf000021-resize-original.jpg,5511,1801543,2373195,42
858738,DepthScenes,v2_duration_discrimination,discrim_jsons/shuffled_g0_dr.json,http://54.211.221.249/DepthDuration/v2_depth_discrimination_MTurk/v2_DepthDiscrim_HTML.html#1,1,1519,754,1536,864,8-2-2021,9-52-43,64,,,,,,,1894,514,998,1002,999,501,,4,2,depth_discrimination_stimuli/001011_2014-06-08_23-18-54_260595134347_rgbf000044-resize_4/001011_2014-06-08_23-18-54_260595134347_rgbf000044-resize-original.jpg,7308,1801543,2373195,42
858738,DepthScenes,v2_duration_discrimination,discrim_jsons/shuffled_g0_dr.json,http://54.211.221.249/DepthDuration/v2_depth_discrimination_MTurk/v2_DepthDiscrim_HTML.html#1,1,1519,754,1536,864,8-2-2021,9-52-43,65,,,,,,,1894,514,998,1002,999,501,,1,3,depth_discrimination_stimuli/000447_2014-06-08_16-15-46_260595134347_rgbf000130-resize_1/000447_2014-06-08_16-15-46_260595134347_rgbf000130-resize-original.jpg,11959,1801543,2373195,42
858738,DepthScenes,v2_duration_discrimination,discrim_jsons/shuffled_g0_dr.json,http://54.211.221.249/DepthDuration/v2_depth_discrimination_MTurk/v2_DepthDiscrim_HTML.html#1,1,1519,754,1536,864,8-2-2021,9-52-43,66,,,,,,,1894,514,998,1002,999,501,,3,2,depth_discrimination_stimuli/001094_2014-06-15_17-36-00_260595134347_rgbf000205-resize_0/001094_2014-06-15_17-36-00_260595134347_rgbf000205-resize-original.jpg,7790,1801543,2373195,42
858738,DepthScenes,v2_duration_discrimination,discrim_jsons/shuffled_g0_dr.json,http://54.211.221.249/DepthDuration/v2_depth_discrimination_MTurk/v2_DepthDiscrim_HTML.html#1,1,1519,754,1536,864,8-2-2021,9-52-43,67,,,,,,,1894,514,998,1002,999,501,,3,4,depth_discrimination_stimuli/000469_2014-06-09_19-42-10_260595134347_rgbf000081-resize_1/000469_2014-06-09_19-42-10_260595134347_rgbf000081-resize-original.jpg,8171,1801543,2373195,42
858738,DepthScenes,v2_duration_discrimination,discrim_jsons/shuffled_g0_dr.json,http://54.211.221.249/DepthDuration/v2_depth_discrimination_MTurk/v2_DepthDiscrim_HTML.html#1,1,1519,754,1536,864,8-2-2021,9-52-43,68,,,,,,,1894,514,998,1002,999,501,,4,2,depth_discrimination_stimuli/000555_2014-06-09_22-42-23_260595134347_rgbf000037-resize_4/000555_2014-06-09_22-42-23_260595134347_rgbf000037-resize-original.jpg,6577,1801543,2373195,42
858738,DepthScenes,v2_duration_discrimination,discrim_jsons/shuffled_g0_dr.json,http://54.211.221.249/DepthDuration/v2_depth_discrimination_MTurk/v2_DepthDiscrim_HTML.html#1,1,1519,754,1536,864,8-2-2021,9-52-43,69,,,,,,,1894,514,998,1002,999,501,,4,3,depth_discrimination_stimuli/000734_2014-06-08_17-39-11_260595134347_rgbf000128-resize_2/000734_2014-06-08_17-39-11_260595134347_rgbf000128-resize-original.jpg,7184,1801543,2373195,42
858738,DepthScenes,v2_duration_discrimination,discrim_jsons/shuffled_g0_dr.json,http://54.211.221.249/DepthDuration/v2_depth_discrimination_MTurk/v2_DepthDiscrim_HTML.html#1,1,1519,754,1536,864,8-2-2021,9-52-43,70,,,,,,,1894,514,998,1002,999,501,,3,2,depth_discrimination_stimuli/001199_2014-06-17_16-03-48_260595134347_rgbf000077-resize_0/001199_2014-06-17_16-03-48_260595134347_rgbf000077-resize-original.jpg,18029,1801543,2373195,42
858738,DepthScenes,v2_duration_discrimination,discrim_jsons/shuffled_g0_dr.json,http://54.211.221.249/DepthDuration/v2_depth_discrimination_MTurk/v2_DepthDiscrim_HTML.html#1,1,1519,754,1536,864,8-2-2021,9-52-43,71,,,,,,,1894,514,998,1002,999,501,,3,3,depth_discrimination_stimuli/000758_2014-06-08_22-05-08_260595134347_rgbf000085-resize_0/000758_2014-06-08_22-05-08_260595134347_rgbf000085-resize-original.jpg,7589,1801543,2373195,42
858738,DepthScenes,v2_duration_discrimination,discrim_jsons/shuffled_g0_dr.json,http://54.211.221.249/DepthDuration/v2_depth_discrimination_MTurk/v2_DepthDiscrim_HTML.html#1,1,1519,754,1536,864,8-2-2021,9-52-43,72,,,,,,,1894,514,998,1002,999,501,,3,4,depth_discrimination_stimuli/002057_2014-06-24_21-00-13_260595134347_rgbf000120-resize_1/002057_2014-06-24_21-00-13_260595134347_rgbf000120-resize-original.jpg,4804,1801543,2373195,42
858738,DepthScenes,v2_duration_discrimination,discrim_jsons/shuffled_g0_dr.json,http://54.211.221.249/DepthDuration/v2_depth_discrimination_MTurk/v2_DepthDiscrim_HTML.html#1,1,1519,754,1536,864,8-2-2021,9-52-43,73,,,,,,,1894,514,998,1002,999,501,,4,3,depth_discrimination_stimuli/001167_2014-06-17_15-38-07_260595134347_rgbf000108-resize_0/001167_2014-06-17_15-38-07_260595134347_rgbf000108-resize-original.jpg,3497,1801543,2373195,42
858738,DepthScenes,v2_duration_discrimination,discrim_jsons/shuffled_g0_dr.json,http://54.211.221.249/DepthDuration/v2_depth_discrimination_MTurk/v2_DepthDiscrim_HTML.html#1,1,1519,754,1536,864,8-2-2021,9-52-43,74,,,,,,,1894,514,998,1002,999,501,,3,2,depth_discrimination_stimuli/000506_2014-06-08_23-21-00_260595134347_rgbf000070-resize_7/000506_2014-06-08_23-21-00_260595134347_rgbf000070-resize-original.jpg,10472,1801543,2373195,42
858738,DepthScenes,v2_duration_discrimination,discrim_jsons/shuffled_g0_dr.json,http://54.211.221.249/DepthDuration/v2_depth_discrimination_MTurk/v2_DepthDiscrim_HTML.html#1,1,1519,754,1536,864,8-2-2021,9-52-43,75,,,,,,,1894,514,998,1002,999,501,,3,3,depth_discrimination_stimuli/000414_2014-06-04_19-49-13_260595134347_rgbf000044-resize_0/000414_2014-06-04_19-49-13_260595134347_rgbf000044-resize-original.jpg,6530,1801543,2373195,42
858738,DepthScenes,v2_duration_discrimination,discrim_jsons/shuffled_g0_dr.json,http://54.211.221.249/DepthDuration/v2_depth_discrimination_MTurk/v2_DepthDiscrim_HTML.html#1,1,1519,754,1536,864,8-2-2021,9-52-43,76,,,,,,,1894,514,998,1002,999,501,,3,5,depth_discrimination_stimuli/002784_2014-06-22_19-26-30_094959634447_rgbf000083-resize_3/002784_2014-06-22_19-26-30_094959634447_rgbf000083-resize-original.jpg,6359,1801543,2373195,42
858738,DepthScenes,v2_duration_discrimination,discrim_jsons/shuffled_g0_dr.json,http://54.211.221.249/DepthDuration/v2_depth_discrimination_MTurk/v2_DepthDiscrim_HTML.html#1,1,1519,754,1536,864,8-2-2021,9-52-43,77,,,,,,,1894,514,998,1002,999,501,,5,4,depth_discrimination_stimuli/001181_2014-06-17_15-50-57_260595134347_rgbf000106-resize_4/001181_2014-06-17_15-50-57_260595134347_rgbf000106-resize-original.jpg,4441,1801543,2373195,42
858738,DepthScenes,v2_duration_discrimination,discrim_jsons/shuffled_g0_dr.json,http://54.211.221.249/DepthDuration/v2_depth_discrimination_MTurk/v2_DepthDiscrim_HTML.html#1,1,1519,754,1536,864,8-2-2021,9-52-43,78,,,,,,,1894,514,998,1002,999,501,,5,4,depth_discrimination_stimuli/003587_2014-05-23_16-48-02_094959634447_rgbf002384-resize_2/003587_2014-05-23_16-48-02_094959634447_rgbf002384-resize-original.jpg,3381,1801543,2373195,42
858738,DepthScenes,v2_duration_discrimination,discrim_jsons/shuffled_g0_dr.json,http://54.211.221.249/DepthDuration/v2_depth_discrimination_MTurk/v2_DepthDiscrim_HTML.html#1,1,1519,754,1536,864,8-2-2021,9-52-43,79,,,,,,,1894,514,998,1002,999,501,,3,3,depth_discrimination_stimuli/001100_2014-06-15_17-46-26_260595134347_rgbf000225-resize_2/001100_2014-06-15_17-46-26_260595134347_rgbf000225-resize-original.jpg,6095,1801543,2373195,42
858738,DepthScenes,v2_duration_discrimination,discrim_jsons/shuffled_g0_dr.json,http://54.211.221.249/DepthDuration/v2_depth_discrimination_MTurk/v2_DepthDiscrim_HTML.html#1,1,1519,754,1536,864,8-2-2021,9-52-43,80,,,,,,,1894,514,998,1002,999,501,,4,3,depth_discrimination_stimuli/000869_2014-06-09_20-50-18_260595134347_rgbf000060-resize_3/000869_2014-06-09_20-50-18_260595134347_rgbf000060-resize-original.jpg,4445,1801543,2373195,42
858738,DepthScenes,v2_duration_discrimination,discrim_jsons/shuffled_g0_dr.json,http://54.211.221.249/DepthDuration/v2_depth_discrimination_MTurk/v2_DepthDiscrim_HTML.html#1,1,1519,754,1536,864,8-2-2021,9-52-43,81,,,,,,,1894,514,998,1002,999,501,,4,2,depth_discrimination_stimuli/000009_2014-05-26_14-32-05_260595134347_rgbf000034-resize_3/000009_2014-05-26_14-32-05_260595134347_rgbf000034-resize-original.jpg,7463,1801543,2373195,42
858738,DepthScenes,v2_duration_discrimination,discrim_jsons/shuffled_g0_dr.json,http://54.211.221.249/DepthDuration/v2_depth_discrimination_MTurk/v2_DepthDiscrim_HTML.html#1,1,1519,754,1536,864,8-2-2021,9-52-43,82,,,,,,,1894,514,998,1002,999,501,,3,2,depth_discrimination_stimuli/000773_2014-06-08_22-24-54_260595134347_rgbf000093-resize_1/000773_2014-06-08_22-24-54_260595134347_rgbf000093-resize-original.jpg,4780,1801543,2373195,42
858738,DepthScenes,v2_duration_discrimination,discrim_jsons/shuffled_g0_dr.json,http://54.211.221.249/DepthDuration/v2_depth_discrimination_MTurk/v2_DepthDiscrim_HTML.html#1,1,1519,754,1536,864,8-2-2021,9-52-43,83,,,,,,,1894,514,998,1002,999,501,,4,3,depth_discrimination_stimuli/002758_2014-06-22_19-11-20_094959634447_rgbf000128-resize_1/002758_2014-06-22_19-11-20_094959634447_rgbf000128-resize-original.jpg,6300,1801543,2373195,42
858738,DepthScenes,v2_duration_discrimination,discrim_jsons/shuffled_g0_dr.json,http://54.211.221.249/DepthDuration/v2_depth_discrimination_MTurk/v2_DepthDiscrim_HTML.html#1,1,1519,754,1536,864,8-2-2021,9-52-43,84,,,,,,,1894,514,998,1002,999,501,,3,2,depth_discrimination_stimuli/000682_2014-06-08_23-14-58_260595134347_rgbf000041-resize_5/000682_2014-06-08_23-14-58_260595134347_rgbf000041-resize-original.jpg,3861,1801543,2373195,42
858738,DepthScenes,v2_duration_discrimination,discrim_jsons/shuffled_g0_dr.json,http://54.211.221.249/DepthDuration/v2_depth_discrimination_MTurk/v2_DepthDiscrim_HTML.html#1,1,1519,754,1536,864,8-2-2021,9-52-43,85,,,,,,,1894,514,998,1002,999,501,,4,3,depth_discrimination_stimuli/000483_2014-06-09_20-41-45_260595134347_rgbf000116-resize_4/000483_2014-06-09_20-41-45_260595134347_rgbf000116-resize-original.jpg,3808,1801543,2373195,42
858738,DepthScenes,v2_duration_discrimination,discrim_jsons/shuffled_g0_dr.json,http://54.211.221.249/DepthDuration/v2_depth_discrimination_MTurk/v2_DepthDiscrim_HTML.html#1,1,1519,754,1536,864,8-2-2021,9-52-43,86,,,,,,,1894,514,998,1002,999,501,,3,4,depth_discrimination_stimuli/002460_2014-06-28_20-35-43_260595134347_rgbf000028-resize_4/002460_2014-06-28_20-35-43_260595134347_rgbf000028-resize-original.jpg,27781,1801543,2373195,42
858738,DepthScenes,v2_duration_discrimination,discrim_jsons/shuffled_g0_dr.json,http://54.211.221.249/DepthDuration/v2_depth_discrimination_MTurk/v2_DepthDiscrim_HTML.html#1,1,1519,754,1536,864,8-2-2021,9-52-43,87,,,,,,,1894,514,998,1002,999,501,,2,3,depth_discrimination_stimuli/003010_2014-06-15_12-54-35_094959634447_rgbf000112-resize_0/003010_2014-06-15_12-54-35_094959634447_rgbf000112-resize-original.jpg,7618,1801543,2373195,42
858738,DepthScenes,v2_duration_discrimination,discrim_jsons/shuffled_g0_dr.json,http://54.211.221.249/DepthDuration/v2_depth_discrimination_MTurk/v2_DepthDiscrim_HTML.html#1,1,1519,754,1536,864,8-2-2021,9-52-43,88,,,,,,,1894,514,998,1002,999,501,,3,3,depth_discrimination_stimuli/001828_2014-06-26_21-40-03_260595134347_rgbf000024-resize_0/001828_2014-06-26_21-40-03_260595134347_rgbf000024-resize-original.jpg,5185,1801543,2373195,42
858738,DepthScenes,v2_duration_discrimination,discrim_jsons/shuffled_g0_dr.json,http://54.211.221.249/DepthDuration/v2_depth_discrimination_MTurk/v2_DepthDiscrim_HTML.html#1,1,1519,754,1536,864,8-2-2021,9-52-43,89,,,,,,,1894,514,998,1002,999,501,,4,1,scene_property_catch_stimuli/sun_bpzzatthlcapxzol.jpg,5838,1801543,2373195,42
858738,DepthScenes,v2_duration_discrimination,discrim_jsons/shuffled_g0_dr.json,http://54.211.221.249/DepthDuration/v2_depth_discrimination_MTurk/v2_DepthDiscrim_HTML.html#1,1,1519,754,1536,864,8-2-2021,9-52-43,90,,,,,,,1894,514,998,1002,999,501,,3,2,depth_discrimination_stimuli/001092_2014-06-15_17-34-58_260595134347_rgbf000171-resize_3/001092_2014-06-15_17-34-58_260595134347_rgbf000171-resize-original.jpg,3582,1801543,2373195,42
858738,DepthScenes,v2_duration_discrimination,discrim_jsons/shuffled_g0_dr.json,http://54.211.221.249/DepthDuration/v2_depth_discrimination_MTurk/v2_DepthDiscrim_HTML.html#1,1,1519,754,1536,864,8-2-2021,9-52-43,91,,,,,,,1894,514,998,1002,999,501,,4,2,depth_discrimination_stimuli/002678_2014-06-13_16-15-32_094959634447_rgbf000151-resize_6/002678_2014-06-13_16-15-32_094959634447_rgbf000151-resize-original.jpg,5676,1801543,2373195,42
858738,DepthScenes,v2_duration_discrimination,discrim_jsons/shuffled_g0_dr.json,http://54.211.221.249/DepthDuration/v2_depth_discrimination_MTurk/v2_DepthDiscrim_HTML.html#1,1,1519,754,1536,864,8-2-2021,9-52-43,92,,,,,,,1894,514,998,1002,999,501,,2,3,depth_discrimination_stimuli/002987_2014-06-08_18-48-20_094959634447_rgbf000022-resize_0/002987_2014-06-08_18-48-20_094959634447_rgbf000022-resize-original.jpg,5620,1801543,2373195,42
858738,DepthScenes,v2_duration_discrimination,discrim_jsons/shuffled_g0_dr.json,http://54.211.221.249/DepthDuration/v2_depth_discrimination_MTurk/v2_DepthDiscrim_HTML.html#1,1,1519,754,1536,864,8-2-2021,9-52-43,93,,,,,,,1894,514,998,1002,999,501,,3,4,depth_discrimination_stimuli/003079_2014-06-15_15-18-20_094959634447_rgbf000152-resize_8/003079_2014-06-15_15-18-20_094959634447_rgbf000152-resize-original.jpg,7634,1801543,2373195,42
858738,DepthScenes,v2_duration_discrimination,discrim_jsons/shuffled_g0_dr.json,http://54.211.221.249/DepthDuration/v2_depth_discrimination_MTurk/v2_DepthDiscrim_HTML.html#1,1,1519,754,1536,864,8-2-2021,9-52-43,94,,,,,,,1894,514,998,1002,999,501,,3,2,depth_discrimination_stimuli/002213_2014-06-28_18-37-58_260595134347_rgbf000055-resize_1/002213_2014-06-28_18-37-58_260595134347_rgbf000055-resize-original.jpg,2783,1801543,2373195,42
858738,DepthScenes,v2_duration_discrimination,discrim_jsons/shuffled_g0_dr.json,http://54.211.221.249/DepthDuration/v2_depth_discrimination_MTurk/v2_DepthDiscrim_HTML.html#1,1,1519,754,1536,864,8-2-2021,9-52-43,95,,,,,,,1894,514,998,1002,999,501,,4,5,depth_discrimination_stimuli/002725_2014-06-22_11-47-51_094959634447_rgbf000070-resize_1/002725_2014-06-22_11-47-51_094959634447_rgbf000070-resize-original.jpg,6008,1801543,2373195,42
858738,DepthScenes,v2_duration_discrimination,discrim_jsons/shuffled_g0_dr.json,http://54.211.221.249/DepthDuration/v2_depth_discrimination_MTurk/v2_DepthDiscrim_HTML.html#1,1,1519,754,1536,864,8-2-2021,9-52-43,96,,,,,,,1894,514,998,1002,999,501,,2,4,depth_discrimination_stimuli/000788_2014-06-08_22-34-36_260595134347_rgbf000131-resize_1/000788_2014-06-08_22-34-36_260595134347_rgbf000131-resize-original.jpg,15111,1801543,2373195,42
858738,DepthScenes,v2_duration_discrimination,discrim_jsons/shuffled_g0_dr.json,http://54.211.221.249/DepthDuration/v2_depth_discrimination_MTurk/v2_DepthDiscrim_HTML.html#1,1,1519,754,1536,864,8-2-2021,9-52-43,97,,,,,,,1894,514,998,1002,999,501,,2,1,depth_discrimination_stimuli/002468_2014-06-28_20-38-39_260595134347_rgbf000045-resize_1/002468_2014-06-28_20-38-39_260595134347_rgbf000045-resize-original.jpg,4236,1801543,2373195,42
858738,DepthScenes,v2_duration_discrimination,discrim_jsons/shuffled_g0_dr.json,http://54.211.221.249/DepthDuration/v2_depth_discrimination_MTurk/v2_DepthDiscrim_HTML.html#1,1,1519,754,1536,864,8-2-2021,9-52-43,98,,,,,,,1894,514,998,1002,999,501,,2,2,depth_discrimination_stimuli/001808_2014-06-26_20-50-58_260595134347_rgbf000029-resize_1/001808_2014-06-26_20-50-58_260595134347_rgbf000029-resize-original.jpg,3737,1801543,2373195,42
858738,DepthScenes,v2_duration_discrimination,discrim_jsons/shuffled_g0_dr.json,http://54.211.221.249/DepthDuration/v2_depth_discrimination_MTurk/v2_DepthDiscrim_HTML.html#1,1,1519,754,1536,864,8-2-2021,9-52-43,99,,,,,,,1894,514,998,1002,999,501,,3,1,depth_discrimination_stimuli/001570_2014-06-20_17-21-09_260595134347_rgbf000135-resize_4/001570_2014-06-20_17-21-09_260595134347_rgbf000135-resize-original.jpg,7503,1801543,2373195,42
858738,DepthScenes,v2_duration_discrimination,discrim_jsons/shuffled_g0_dr.json,http://54.211.221.249/DepthDuration/v2_depth_discrimination_MTurk/v2_DepthDiscrim_HTML.html#1,1,1519,754,1536,864,8-2-2021,9-52-43,100,,,,,,,1894,514,998,1002,999,501,,3,2,depth_discrimination_stimuli/000749_2014-06-08_21-55-06_260595134347_rgbf000070-resize_2/000749_2014-06-08_21-55-06_260595134347_rgbf000070-resize-original.jpg,3660,1801543,2373195,42
858738,DepthScenes,v2_duration_discrimination,discrim_jsons/shuffled_g0_dr.json,http://54.211.221.249/DepthDuration/v2_depth_discrimination_MTurk/v2_DepthDiscrim_HTML.html#1,1,1519,754,1536,864,8-2-2021,9-52-43,101,,,,,,,1894,514,998,1002,999,501,,4,5,scene_property_catch_stimuli/sun_aoquhiddlfqapdlz.jpg,7602,1801543,2373195,42
858738,DepthScenes,v2_duration_discrimination,discrim_jsons/shuffled_g0_dr.json,http://54.211.221.249/DepthDuration/v2_depth_discrimination_MTurk/v2_DepthDiscrim_HTML.html#1,1,1519,754,1536,864,8-2-2021,9-52-43,102,,,,,,,1894,514,998,1002,999,501,,3,3,depth_discrimination_stimuli/000109_2014-05-14_23-41-52_260595134347_rgbf000035-resize_9/000109_2014-05-14_23-41-52_260595134347_rgbf000035-resize-original.jpg,5145,1801543,2373195,42
858738,DepthScenes,v2_duration_discrimination,discrim_jsons/shuffled_g0_dr.json,http://54.211.221.249/DepthDuration/v2_depth_discrimination_MTurk/v2_DepthDiscrim_HTML.html#1,1,1519,754,1536,864,8-2-2021,9-52-43,103,,,,,,,1894,514,998,1002,999,501,,4,3,depth_discrimination_stimuli/000780_2014-06-08_22-28-29_260595134347_rgbf000126-resize_1/000780_2014-06-08_22-28-29_260595134347_rgbf000126-resize-original.jpg,15695,1801543,2373195,42
858738,DepthScenes,v2_duration_discrimination,discrim_jsons/shuffled_g0_dr.json,http://54.211.221.249/DepthDuration/v2_depth_discrimination_MTurk/v2_DepthDiscrim_HTML.html#1,1,1519,754,1536,864,8-2-2021,9-52-43,104,,,,,,,1894,514,998,1002,999,501,,2,1,depth_discrimination_stimuli/002953_2014-06-08_17-32-18_094959634447_rgbf000059-resize_5/002953_2014-06-08_17-32-18_094959634447_rgbf000059-resize-original.jpg,5938,1801543,2373195,42
858738,DepthScenes,v2_duration_discrimination,discrim_jsons/shuffled_g0_dr.json,http://54.211.221.249/DepthDuration/v2_depth_discrimination_MTurk/v2_DepthDiscrim_HTML.html#1,1,1519,754,1536,864,8-2-2021,9-52-43,105,,,,,,,1894,514,998,1002,999,501,,3,4,depth_discrimination_stimuli/001016_2014-06-09_16-16-10_260595134347_rgbf000112-resize_5/001016_2014-06-09_16-16-10_260595134347_rgbf000112-resize-original.jpg,23288,1801543,2373195,42
858738,DepthScenes,v2_duration_discrimination,discrim_jsons/shuffled_g0_dr.json,http://54.211.221.249/DepthDuration/v2_depth_discrimination_MTurk/v2_DepthDiscrim_HTML.html#1,1,1519,754,1536,864,8-2-2021,9-52-43,106,,,,,,,1894,514,998,1002,999,501,,4,2,depth_discrimination_stimuli/000486_2014-06-09_20-47-20_260595134347_rgbf000143-resize_2/000486_2014-06-09_20-47-20_260595134347_rgbf000143-resize-original.jpg,3471,1801543,2373195,42
858738,DepthScenes,v2_duration_discrimination,discrim_jsons/shuffled_g0_dr.json,http://54.211.221.249/DepthDuration/v2_depth_discrimination_MTurk/v2_DepthDiscrim_HTML.html#1,1,1519,754,1536,864,8-2-2021,9-52-43,107,,,,,,,1894,514,998,1002,999,501,,3,2,depth_discrimination_stimuli/000677_2014-06-08_23-10-32_260595134347_rgbf000158-resize_6/000677_2014-06-08_23-10-32_260595134347_rgbf000158-resize-original.jpg,4097,1801543,2373195,42
858738,DepthScenes,v2_duration_discrimination,discrim_jsons/shuffled_g0_dr.json,http://54.211.221.249/DepthDuration/v2_depth_discrimination_MTurk/v2_DepthDiscrim_HTML.html#1,1,1519,754,1536,864,8-2-2021,9-52-43,108,,,,,,,1894,514,998,1002,999,501,,3,1,depth_discrimination_stimuli/000642_2014-06-08_16-59-25_260595134347_rgbf000098-resize_2/000642_2014-06-08_16-59-25_260595134347_rgbf000098-resize-original.jpg,5566,1801543,2373195,42
858738,DepthScenes,v2_duration_discrimination,discrim_jsons/shuffled_g0_dr.json,http://54.211.221.249/DepthDuration/v2_depth_discrimination_MTurk/v2_DepthDiscrim_HTML.html#1,1,1519,754,1536,864,8-2-2021,9-52-43,109,,,,,,,1894,514,998,1002,999,501,,2,3,depth_discrimination_stimuli/001188_2014-06-17_15-54-10_260595134347_rgbf000090-resize_2/001188_2014-06-17_15-54-10_260595134347_rgbf000090-resize-original.jpg,13579,1801543,2373195,42
858738,DepthScenes,v2_duration_discrimination,discrim_jsons/shuffled_g0_dr.json,http://54.211.221.249/DepthDuration/v2_depth_discrimination_MTurk/v2_DepthDiscrim_HTML.html#1,1,1519,754,1536,864,8-2-2021,9-52-43,110,,,,,,,1894,514,998,1002,999,501,,4,2,depth_discrimination_stimuli/003048_2014-06-15_13-49-43_094959634447_rgbf000150-resize_1/003048_2014-06-15_13-49-43_094959634447_rgbf000150-resize-original.jpg,8969,1801543,2373195,42
858738,DepthScenes,v2_duration_discrimination,discrim_jsons/shuffled_g0_dr.json,http://54.211.221.249/DepthDuration/v2_depth_discrimination_MTurk/v2_DepthDiscrim_HTML.html#1,1,1519,754,1536,864,8-2-2021,9-52-43,111,,,,,,,1894,514,998,1002,999,501,,3,4,depth_discrimination_stimuli/001584_2014-06-20_11-07-43_260595134347_rgbf000002-resize_1/001584_2014-06-20_11-07-43_260595134347_rgbf000002-resize-original.jpg,4475,1801543,2373195,42
858738,DepthScenes,v2_duration_discrimination,discrim_jsons/shuffled_g0_dr.json,http://54.211.221.249/DepthDuration/v2_depth_discrimination_MTurk/v2_DepthDiscrim_HTML.html#1,1,1519,754,1536,864,8-2-2021,9-52-43,112,,,,,,,1894,514,998,1002,999,501,,3,1,depth_discrimination_stimuli/001650_2014-06-20_12-09-00_260595134347_rgbf000087-resize_3/001650_2014-06-20_12-09-00_260595134347_rgbf000087-resize-original.jpg,12304,1801543,2373195,42
858738,DepthScenes,v2_duration_discrimination,discrim_jsons/shuffled_g0_dr.json,http://54.211.221.249/DepthDuration/v2_depth_discrimination_MTurk/v2_DepthDiscrim_HTML.html#1,1,1519,754,1536,864,8-2-2021,9-52-43,113,,,,,,,1894,514,998,1002,999,501,,3,2,depth_discrimination_stimuli/001235_2014-06-17_16-37-36_260595134347_rgbf000084-resize_4/001235_2014-06-17_16-37-36_260595134347_rgbf000084-resize-original.jpg,6716,1801543,2373195,42
858738,DepthScenes,v2_duration_discrimination,discrim_jsons/shuffled_g0_dr.json,http://54.211.221.249/DepthDuration/v2_depth_discrimination_MTurk/v2_DepthDiscrim_HTML.html#1,1,1519,754,1536,864,8-2-2021,9-52-43,114,,,,,,,1894,514,998,1002,999,501,,4,1,depth_discrimination_stimuli/002199_2014-06-28_18-33-56_260595134347_rgbf000074-resize_0/002199_2014-06-28_18-33-56_260595134347_rgbf000074-resize-original.jpg,4157,1801543,2373195,42
858738,DepthScenes,v2_duration_discrimination,discrim_jsons/shuffled_g0_dr.json,http://54.211.221.249/DepthDuration/v2_depth_discrimination_MTurk/v2_DepthDiscrim_HTML.html#1,1,1519,754,1536,864,8-2-2021,9-52-43,115,,,,,,,1894,514,998,1002,999,501,,4,1,depth_discrimination_stimuli/002988_2014-06-15_12-24-20_094959634447_rgbf000150-resize_1/002988_2014-06-15_12-24-20_094959634447_rgbf000150-resize-original.jpg,4749,1801543,2373195,42
858738,DepthScenes,v2_duration_discrimination,discrim_jsons/shuffled_g0_dr.json,http://54.211.221.249/DepthDuration/v2_depth_discrimination_MTurk/v2_DepthDiscrim_HTML.html#1,1,1519,754,1536,864,8-2-2021,9-52-43,116,,,,,,,1894,514,998,1002,999,501,,5,1,depth_discrimination_stimuli/002340_2014-06-28_20-05-46_260595134347_rgbf000113-resize_0/002340_2014-06-28_20-05-46_260595134347_rgbf000113-resize-original.jpg,4656,1801543,2373195,42
858738,DepthScenes,v2_duration_discrimination,discrim_jsons/shuffled_g0_dr.json,http://54.211.221.249/DepthDuration/v2_depth_discrimination_MTurk/v2_DepthDiscrim_HTML.html#1,1,1519,754,1536,864,8-2-2021,9-52-43,117,,,,,,,1894,514,998,1002,999,501,,3,3,depth_discrimination_stimuli/003081_2014-06-15_15-19-16_094959634447_rgbf000150-resize_1/003081_2014-06-15_15-19-16_094959634447_rgbf000150-resize-original.jpg,14694,1801543,2373195,42
858738,DepthScenes,v2_duration_discrimination,discrim_jsons/shuffled_g0_dr.json,http://54.211.221.249/DepthDuration/v2_depth_discrimination_MTurk/v2_DepthDiscrim_HTML.html#1,1,1519,754,1536,864,8-2-2021,9-52-43,118,,,,,,,1894,514,998,1002,999,501,,4,3,depth_discrimination_stimuli/002365_2014-06-28_20-11-21_260595134347_rgbf000102-resize_1/002365_2014-06-28_20-11-21_260595134347_rgbf000102-resize-original.jpg,55445,1801543,2373195,42
858738,DepthScenes,v2_duration_discrimination,discrim_jsons/shuffled_g0_dr.json,http://54.211.221.249/DepthDuration/v2_depth_discrimination_MTurk/v2_DepthDiscrim_HTML.html#1,1,1519,754,1536,864,8-2-2021,9-52-43,119,,,,,,,1894,514,998,1002,999,501,,4,2,depth_discrimination_stimuli/002875_2014-06-01_15-19-00_094959634447_rgbf000151-resize_1/002875_2014-06-01_15-19-00_094959634447_rgbf000151-resize-original.jpg,7459,1801543,2373195,42
858738,DepthScenes,v2_duration_discrimination,discrim_jsons/shuffled_g0_dr.json,http://54.211.221.249/DepthDuration/v2_depth_discrimination_MTurk/v2_DepthDiscrim_HTML.html#1,1,1519,754,1536,864,8-2-2021,9-52-43,120,,,,,,,1894,514,998,1002,999,501,,3,4,depth_discrimination_stimuli/000691_2014-06-08_13-08-50_260595134347_rgbf000132-resize_3/000691_2014-06-08_13-08-50_260595134347_rgbf000132-resize-original.jpg,21810,1801543,2373195,42
858738,DepthScenes,v2_duration_discrimination,discrim_jsons/shuffled_g0_dr.json,http://54.211.221.249/DepthDuration/v2_depth_discrimination_MTurk/v2_DepthDiscrim_HTML.html#1,1,1519,754,1536,864,8-2-2021,9-52-43,121,,,,,,,1894,514,998,1002,999,501,,4,3,depth_discrimination_stimuli/003092_2014-06-24_21-01-49_094959634447_rgbf000049-resize_2/003092_2014-06-24_21-01-49_094959634447_rgbf000049-resize-original.jpg,13644,1801543,2373195,42
858738,DepthScenes,v2_duration_discrimination,discrim_jsons/shuffled_g0_dr.json,http://54.211.221.249/DepthDuration/v2_depth_discrimination_MTurk/v2_DepthDiscrim_HTML.html#1,1,1519,754,1536,864,8-2-2021,9-52-43,122,,,,,,,1894,514,998,1002,999,501,,3,3,depth_discrimination_stimuli/000742_2014-06-08_18-48-09_260595134347_rgbf000164-resize_4/000742_2014-06-08_18-48-09_260595134347_rgbf000164-resize-original.jpg,13060,1801543,2373195,42
858738,DepthScenes,v2_duration_discrimination,discrim_jsons/shuffled_g0_dr.json,http://54.211.221.249/DepthDuration/v2_depth_discrimination_MTurk/v2_DepthDiscrim_HTML.html#1,1,1519,754,1536,864,8-2-2021,9-52-43,123,,,,,,,1894,514,998,1002,999,501,,3,2,depth_discrimination_stimuli/001133_2014-06-17_14-49-16_260595134347_rgbf000100-resize_0/001133_2014-06-17_14-49-16_260595134347_rgbf000100-resize-original.jpg,27414,1801543,2373195,42
858738,DepthScenes,v2_duration_discrimination,discrim_jsons/shuffled_g0_dr.json,http://54.211.221.249/DepthDuration/v2_depth_discrimination_MTurk/v2_DepthDiscrim_HTML.html#1,1,1519,754,1536,864,8-2-2021,9-52-43,124,,,,,,,1894,514,998,1002,999,501,,5,2,depth_discrimination_stimuli/000854_2014-06-09_19-43-13_260595134347_rgbf000066-resize_0/000854_2014-06-09_19-43-13_260595134347_rgbf000066-resize-original.jpg,6224,1801543,2373195,42
858738,DepthScenes,v2_duration_discrimination,discrim_jsons/shuffled_g0_dr.json,http://54.211.221.249/DepthDuration/v2_depth_discrimination_MTurk/v2_DepthDiscrim_HTML.html#1,1,1519,754,1536,864,8-2-2021,9-52-43,125,,,,,,,1894,514,998,1002,999,501,,5,2,depth_discrimination_stimuli/002509_2014-06-24_13-19-22_094959634447_rgbf000077-resize_0/002509_2014-06-24_13-19-22_094959634447_rgbf000077-resize-original.jpg,10280,1801543,2373195,42
858738,DepthScenes,v2_duration_discrimination,discrim_jsons/shuffled_g0_dr.json,http://54.211.221.249/DepthDuration/v2_depth_discrimination_MTurk/v2_DepthDiscrim_HTML.html#1,1,1519,754,1536,864,8-2-2021,9-52-43,126,,,,,,,1894,514,998,1002,999,501,,3,2,depth_discrimination_stimuli/001447_2014-06-19_17-00-32_260595134347_rgbf000082-resize_5/001447_2014-06-19_17-00-32_260595134347_rgbf000082-resize-original.jpg,21969,1801543,2373195,42
858738,DepthScenes,v2_duration_discrimination,discrim_jsons/shuffled_g0_dr.json,http://54.211.221.249/DepthDuration/v2_depth_discrimination_MTurk/v2_DepthDiscrim_HTML.html#1,1,1519,754,1536,864,8-2-2021,9-52-43,127,,,,,,,1894,514,998,1002,999,501,,3,4,depth_discrimination_stimuli/001244_2014-06-17_16-47-45_260595134347_rgbf000030-resize_4/001244_2014-06-17_16-47-45_260595134347_rgbf000030-resize-original.jpg,5798,1801543,2373195,42
858738,DepthScenes,v2_duration_discrimination,discrim_jsons/shuffled_g0_dr.json,http://54.211.221.249/DepthDuration/v2_depth_discrimination_MTurk/v2_DepthDiscrim_HTML.html#1,1,1519,754,1536,864,8-2-2021,9-52-43,128,,,,,,,1894,514,998,1002,999,501,,3,5,depth_discrimination_stimuli/002568_2014-06-24_13-59-21_094959634447_rgbf000062-resize_4/002568_2014-06-24_13-59-21_094959634447_rgbf000062-resize-original.jpg,8642,1801543,2373195,42
858738,DepthScenes,v2_duration_discrimination,discrim_jsons/shuffled_g0_dr.json,http://54.211.221.249/DepthDuration/v2_depth_discrimination_MTurk/v2_DepthDiscrim_HTML.html#1,1,1519,754,1536,864,8-2-2021,9-52-43,129,,,,,,,1894,514,998,1002,999,501,,4,3,depth_discrimination_stimuli/003069_2014-06-15_14-57-50_094959634447_rgbf000150-resize_4/003069_2014-06-15_14-57-50_094959634447_rgbf000150-resize-original.jpg,6839,1801543,2373195,42
858738,DepthScenes,v2_duration_discrimination,discrim_jsons/shuffled_g0_dr.json,http://54.211.221.249/DepthDuration/v2_depth_discrimination_MTurk/v2_DepthDiscrim_HTML.html#1,1,1519,754,1536,864,8-2-2021,9-52-43,130,,,,,,,1894,514,998,1002,999,501,,3,2,depth_discrimination_stimuli/003621_2014-05-23_18-06-08_094959634447_rgbf000101-resize_1/003621_2014-05-23_18-06-08_094959634447_rgbf000101-resize-original.jpg,4563,1801543,2373195,42
858738,DepthScenes,v2_duration_discrimination,discrim_jsons/shuffled_g0_dr.json,http://54.211.221.249/DepthDuration/v2_depth_discrimination_MTurk/v2_DepthDiscrim_HTML.html#1,1,1519,754,1536,864,8-2-2021,9-52-43,131,,,,,,,1894,514,998,1002,999,501,,3,1,depth_discrimination_stimuli/003338_2014-05-20_11-01-23_094959634447_rgbf000051-resize_6/003338_2014-05-20_11-01-23_094959634447_rgbf000051-resize-original.jpg,5757,1801543,2373195,42
858738,DepthScenes,v2_duration_discrimination,discrim_jsons/shuffled_g0_dr.json,http://54.211.221.249/DepthDuration/v2_depth_discrimination_MTurk/v2_DepthDiscrim_HTML.html#1,1,1519,754,1536,864,8-2-2021,9-52-43,132,,,,,,,1894,514,998,1002,999,501,,4,3,depth_discrimination_stimuli/000191_2014-05-12_17-07-38_260595134347_rgbf000199-resize_0/000191_2014-05-12_17-07-38_260595134347_rgbf000199-resize-original.jpg,6327,1801543,2373195,42
858738,DepthScenes,v2_duration_discrimination,discrim_jsons/shuffled_g0_dr.json,http://54.211.221.249/DepthDuration/v2_depth_discrimination_MTurk/v2_DepthDiscrim_HTML.html#1,1,1519,754,1536,864,8-2-2021,9-52-43,133,,,,,,,1894,514,998,1002,999,501,,3,3,depth_discrimination_stimuli/000505_2014-06-08_23-03-23_260595134347_rgbf000091-resize_0/000505_2014-06-08_23-03-23_260595134347_rgbf000091-resize-original.jpg,7655,1801543,2373195,42
858738,DepthScenes,v2_duration_discrimination,discrim_jsons/shuffled_g0_dr.json,http://54.211.221.249/DepthDuration/v2_depth_discrimination_MTurk/v2_DepthDiscrim_HTML.html#1,1,1519,754,1536,864,8-2-2021,9-52-43,134,,,,,,,1894,514,998,1002,999,501,,3,4,depth_discrimination_stimuli/001136_2014-06-17_15-19-41_260595134347_rgbf000076-resize_3/001136_2014-06-17_15-19-41_260595134347_rgbf000076-resize-original.jpg,27888,1801543,2373195,42
858738,DepthScenes,v2_duration_discrimination,discrim_jsons/shuffled_g0_dr.json,http://54.211.221.249/DepthDuration/v2_depth_discrimination_MTurk/v2_DepthDiscrim_HTML.html#1,1,1519,754,1536,864,8-2-2021,9-52-43,135,,,,,,,1894,514,998,1002,999,501,,3,3,depth_discrimination_stimuli/003129_2014-05-12_10-48-10_094959634447_rgbf000100-resize_0/003129_2014-05-12_10-48-10_094959634447_rgbf000100-resize-original.jpg,3675,1801543,2373195,42
858738,DepthScenes,v2_duration_discrimination,discrim_jsons/shuffled_g0_dr.json,http://54.211.221.249/DepthDuration/v2_depth_discrimination_MTurk/v2_DepthDiscrim_HTML.html#1,1,1519,754,1536,864,8-2-2021,9-52-43,136,,,,,,,1894,514,998,1002,999,501,,3,2,depth_discrimination_stimuli/001158_2014-06-17_15-32-16_260595134347_rgbf000138-resize_2/001158_2014-06-17_15-32-16_260595134347_rgbf000138-resize-original.jpg,5519,1801543,2373195,42
858738,DepthScenes,v2_duration_discrimination,discrim_jsons/shuffled_g0_dr.json,http://54.211.221.249/DepthDuration/v2_depth_discrimination_MTurk/v2_DepthDiscrim_HTML.html#1,1,1519,754,1536,864,8-2-2021,9-52-43,137,,,,,,,1894,514,998,1002,999,501,,3,2,depth_discrimination_stimuli/000635_2014-06-08_16-38-42_260595134347_rgbf000106-resize_1/000635_2014-06-08_16-38-42_260595134347_rgbf000106-resize-original.jpg,4188,1801543,2373195,42
858738,DepthScenes,v2_duration_discrimination,discrim_jsons/shuffled_g0_dr.json,http://54.211.221.249/DepthDuration/v2_depth_discrimination_MTurk/v2_DepthDiscrim_HTML.html#1,1,1519,754,1536,864,8-2-2021,9-52-43,138,,,,,,,1894,514,998,1002,999,501,,4,1,depth_discrimination_stimuli/000521_2014-06-08_13-34-35_260595134347_rgbf000191-resize_2/000521_2014-06-08_13-34-35_260595134347_rgbf000191-resize-original.jpg,13761,1801543,2373195,42
858738,DepthScenes,v2_duration_discrimination,discrim_jsons/shuffled_g0_dr.json,http://54.211.221.249/DepthDuration/v2_depth_discrimination_MTurk/v2_DepthDiscrim_HTML.html#1,1,1519,754,1536,864,8-2-2021,9-52-43,139,,,,,,,1894,514,998,1002,999,501,,3,4,depth_discrimination_stimuli/000502_2014-06-08_23-02-32_260595134347_rgbf000063-resize_4/000502_2014-06-08_23-02-32_260595134347_rgbf000063-resize-original.jpg,4887,1801543,2373195,42
858738,DepthScenes,v2_duration_discrimination,discrim_jsons/shuffled_g0_dr.json,http://54.211.221.249/DepthDuration/v2_depth_discrimination_MTurk/v2_DepthDiscrim_HTML.html#1,1,1519,754,1536,864,8-2-2021,9-52-43,140,,,,,,,1894,514,998,1002,999,501,,3,3,depth_discrimination_stimuli/003492_2014-05-21_15-50-55_094959634447_rgbf000828-resize_1/003492_2014-05-21_15-50-55_094959634447_rgbf000828-resize-original.jpg,64504,1801543,2373195,42
858738,DepthScenes,v2_duration_discrimination,discrim_jsons/shuffled_g0_dr.json,http://54.211.221.249/DepthDuration/v2_depth_discrimination_MTurk/v2_DepthDiscrim_HTML.html#1,1,1519,754,1536,864,8-2-2021,9-52-43,141,,,,,,,1894,514,998,1002,999,501,,4,3,depth_discrimination_stimuli/002700_2014-06-22_11-27-02_094959634447_rgbf000124-resize_3/002700_2014-06-22_11-27-02_094959634447_rgbf000124-resize-original.jpg,4872,1801543,2373195,42
858738,DepthScenes,v2_duration_discrimination,discrim_jsons/shuffled_g0_dr.json,http://54.211.221.249/DepthDuration/v2_depth_discrimination_MTurk/v2_DepthDiscrim_HTML.html#1,1,1519,754,1536,864,8-2-2021,9-52-43,142,,,,,,,1894,514,998,1002,999,501,,3,1,depth_discrimination_stimuli/000436_2014-06-09_22-25-11_260595134347_rgbf000137-resize_1/000436_2014-06-09_22-25-11_260595134347_rgbf000137-resize-original.jpg,3777,1801543,2373195,42
858738,DepthScenes,v2_duration_discrimination,discrim_jsons/shuffled_g0_dr.json,http://54.211.221.249/DepthDuration/v2_depth_discrimination_MTurk/v2_DepthDiscrim_HTML.html#1,1,1519,754,1536,864,8-2-2021,9-52-43,143,,,,,,,1894,514,998,1002,999,501,,4,3,depth_discrimination_stimuli/001532_2014-06-20_16-50-41_260595134347_rgbf000081-resize_4/001532_2014-06-20_16-50-41_260595134347_rgbf000081-resize-original.jpg,4943,1801543,2373195,42
858738,DepthScenes,v2_duration_discrimination,discrim_jsons/shuffled_g0_dr.json,http://54.211.221.249/DepthDuration/v2_depth_discrimination_MTurk/v2_DepthDiscrim_HTML.html#1,1,1519,754,1536,864,8-2-2021,9-52-43,144,,,,,,,1894,514,998,1002,999,501,,5,1,scene_property_catch_stimuli/000675_2014-06-08_22-59-18_260595134347_rgbf000096-resize.jpg,3511,1801543,2373195,42
858738,DepthScenes,v2_duration_discrimination,discrim_jsons/shuffled_g0_dr.json,http://54.211.221.249/DepthDuration/v2_depth_discrimination_MTurk/v2_DepthDiscrim_HTML.html#1,1,1519,754,1536,864,8-2-2021,9-52-43,145,,,,,,,1894,514,998,1002,999,501,,4,1,depth_discrimination_stimuli/001417_2014-06-19_16-25-36_260595134347_rgbf000115-resize_5/001417_2014-06-19_16-25-36_260595134347_rgbf000115-resize-original.jpg,3497,1801543,2373195,42
858738,DepthScenes,v2_duration_discrimination,discrim_jsons/shuffled_g0_dr.json,http://54.211.221.249/DepthDuration/v2_depth_discrimination_MTurk/v2_DepthDiscrim_HTML.html#1,1,1519,754,1536,864,8-2-2021,9-52-43,146,,,,,,,1894,514,998,1002,999,501,,3,4,depth_discrimination_stimuli/003083_2014-06-15_15-21-03_094959634447_rgbf000063-resize_1/003083_2014-06-15_15-21-03_094959634447_rgbf000063-resize-original.jpg,3894,1801543,2373195,42
858738,DepthScenes,v2_duration_discrimination,discrim_jsons/shuffled_g0_dr.json,http://54.211.221.249/DepthDuration/v2_depth_discrimination_MTurk/v2_DepthDiscrim_HTML.html#1,1,1519,754,1536,864,8-2-2021,9-52-43,147,,,,,,,1894,514,998,1002,999,501,,2,4,depth_discrimination_stimuli/003288_2014-05-14_21-50-30_094959634447_rgbf000028-resize_3/003288_2014-05-14_21-50-30_094959634447_rgbf000028-resize-original.jpg,4772,1801543,2373195,42
858738,DepthScenes,v2_duration_discrimination,discrim_jsons/shuffled_g0_dr.json,http://54.211.221.249/DepthDuration/v2_depth_discrimination_MTurk/v2_DepthDiscrim_HTML.html#1,1,1519,754,1536,864,8-2-2021,9-52-43,148,,,,,,,1894,514,998,1002,999,501,,5,4,depth_discrimination_stimuli/002139_2014-06-25_21-19-37_260595134347_rgbf000124-resize_2/002139_2014-06-25_21-19-37_260595134347_rgbf000124-resize-original.jpg,5740,1801543,2373195,42
858738,DepthScenes,v2_duration_discrimination,discrim_jsons/shuffled_g0_dr.json,http://54.211.221.249/DepthDuration/v2_depth_discrimination_MTurk/v2_DepthDiscrim_HTML.html#1,1,1519,754,1536,864,8-2-2021,9-52-43,149,,,,,,,1894,514,998,1002,999,501,,4,5,depth_discrimination_stimuli/002600_2014-06-24_14-27-04_094959634447_rgbf000074-resize_2/002600_2014-06-24_14-27-04_094959634447_rgbf000074-resize-original.jpg,3528,1801543,2373195,42
858738,DepthScenes,v2_duration_discrimination,discrim_jsons/shuffled_g0_dr.json,http://54.211.221.249/DepthDuration/v2_depth_discrimination_MTurk/v2_DepthDiscrim_HTML.html#1,1,1519,754,1536,864,8-2-2021,9-52-43,150,,,,,,,1894,514,998,1002,999,501,,3,1,depth_discrimination_stimuli/001055_2014-06-08_18-45-35_260595134347_rgbf000111-resize_4/001055_2014-06-08_18-45-35_260595134347_rgbf000111-resize-original.jpg,3496,1801543,2373195,42
858738,DepthScenes,v2_duration_discrimination,discrim_jsons/shuffled_g0_dr.json,http://54.211.221.249/DepthDuration/v2_depth_discrimination_MTurk/v2_DepthDiscrim_HTML.html#1,1,1519,754,1536,864,8-2-2021,9-52-43,151,,,,,,,1894,514,998,1002,999,501,,3,3,depth_discrimination_stimuli/002637_2014-06-24_14-51-13_094959634447_rgbf000066-resize_4/002637_2014-06-24_14-51-13_094959634447_rgbf000066-resize-original.jpg,3831,1801543,2373195,42
858738,DepthScenes,v2_duration_discrimination,discrim_jsons/shuffled_g0_dr.json,http://54.211.221.249/DepthDuration/v2_depth_discrimination_MTurk/v2_DepthDiscrim_HTML.html#1,1,1519,754,1536,864,8-2-2021,9-52-43,152,,,,,,,1894,514,998,1002,999,501,,2,3,depth_discrimination_stimuli/001214_2014-06-17_16-13-55_260595134347_rgbf000111-resize_0/001214_2014-06-17_16-13-55_260595134347_rgbf000111-resize-original.jpg,3677,1801543,2373195,42
858738,DepthScenes,v2_duration_discrimination,discrim_jsons/shuffled_g0_dr.json,http://54.211.221.249/DepthDuration/v2_depth_discrimination_MTurk/v2_DepthDiscrim_HTML.html#1,1,1519,754,1536,864,8-2-2021,9-52-43,153,,,,,,,1894,514,998,1002,999,501,,3,2,depth_discrimination_stimuli/000692_2014-06-08_13-09-42_260595134347_rgbf000199-resize_2/000692_2014-06-08_13-09-42_260595134347_rgbf000199-resize-original.jpg,3123,1801543,2373195,42
858738,DepthScenes,v2_duration_discrimination,discrim_jsons/shuffled_g0_dr.json,http://54.211.221.249/DepthDuration/v2_depth_discrimination_MTurk/v2_DepthDiscrim_HTML.html#1,1,1519,754,1536,864,8-2-2021,9-52-43,154,,,,,,,1894,514,998,1002,999,501,,3,2,depth_discrimination_stimuli/003546_2014-05-22_15-48-53_094959634447_rgbf004816-resize_3/003546_2014-05-22_15-48-53_094959634447_rgbf004816-resize-original.jpg,5029,1801543,2373195,42
858738,DepthScenes,v2_duration_discrimination,discrim_jsons/shuffled_g0_dr.json,http://54.211.221.249/DepthDuration/v2_depth_discrimination_MTurk/v2_DepthDiscrim_HTML.html#1,1,1519,754,1536,864,8-2-2021,9-52-43,155,,,,,,,1894,514,998,1002,999,501,,4,3,depth_discrimination_stimuli/002788_2014-06-22_19-36-03_094959634447_rgbf000088-resize_2/002788_2014-06-22_19-36-03_094959634447_rgbf000088-resize-original.jpg,3886,1801543,2373195,42
858738,DepthScenes,v2_duration_discrimination,discrim_jsons/shuffled_g0_dr.json,http://54.211.221.249/DepthDuration/v2_depth_discrimination_MTurk/v2_DepthDiscrim_HTML.html#1,1,1519,754,1536,864,8-2-2021,9-52-43,156,,,,,,,1894,514,998,1002,999,501,,4,3,depth_discrimination_stimuli/000542_2014-06-08_18-27-08_260595134347_rgbf000118-resize_1/000542_2014-06-08_18-27-08_260595134347_rgbf000118-resize-original.jpg,2920,1801543,2373195,42
858738,DepthScenes,v2_duration_discrimination,discrim_jsons/shuffled_g0_dr.json,http://54.211.221.249/DepthDuration/v2_depth_discrimination_MTurk/v2_DepthDiscrim_HTML.html#1,1,1519,754,1536,864,8-2-2021,9-52-43,157,,,,,,,1894,514,998,1002,999,501,,3,2,depth_discrimination_stimuli/000736_2014-06-08_18-24-15_260595134347_rgbf000206-resize_3/000736_2014-06-08_18-24-15_260595134347_rgbf000206-resize-original.jpg,7242,1801543,2373195,42
858738,DepthScenes,v2_duration_discrimination,discrim_jsons/shuffled_g0_dr.json,http://54.211.221.249/DepthDuration/v2_depth_discrimination_MTurk/v2_DepthDiscrim_HTML.html#1,1,1519,754,1536,864,8-2-2021,9-52-43,158,,,,,,,1894,514,998,1002,999,501,,3,2,depth_discrimination_stimuli/001056_2014-06-08_18-46-44_260595134347_rgbf000068-resize_0/001056_2014-06-08_18-46-44_260595134347_rgbf000068-resize-original.jpg,6940,1801543,2373195,42
858738,DepthScenes,v2_duration_discrimination,discrim_jsons/shuffled_g0_dr.json,http://54.211.221.249/DepthDuration/v2_depth_discrimination_MTurk/v2_DepthDiscrim_HTML.html#1,1,1519,754,1536,864,8-2-2021,9-52-43,159,,,,,,,1894,514,998,1002,999,501,,4,2,depth_discrimination_stimuli/002750_2014-06-22_19-08-03_094959634447_rgbf000094-resize_4/002750_2014-06-22_19-08-03_094959634447_rgbf000094-resize-original.jpg,3947,1801543,2373195,42
858738,DepthScenes,v2_duration_discrimination,discrim_jsons/shuffled_g0_dr.json,http://54.211.221.249/DepthDuration/v2_depth_discrimination_MTurk/v2_DepthDiscrim_HTML.html#1,1,1519,754,1536,864,8-2-2021,9-52-43,160,,,,,,,1894,514,998,1002,999,501,,3,3,depth_discrimination_stimuli/001052_2014-06-08_18-24-54_260595134347_rgbf000130-resize_1/001052_2014-06-08_18-24-54_260595134347_rgbf000130-resize-original.jpg,2655,1801543,2373195,42
858738,DepthScenes,v2_duration_discrimination,discrim_jsons/shuffled_g0_dr.json,http://54.211.221.249/DepthDuration/v2_depth_discrimination_MTurk/v2_DepthDiscrim_HTML.html#1,1,1519,754,1536,864,8-2-2021,9-52-43,161,,,,,,,1894,514,998,1002,999,501,,3,1,depth_discrimination_stimuli/001724_2014-06-26_19-28-50_260595134347_rgbf000037-resize_7/001724_2014-06-26_19-28-50_260595134347_rgbf000037-resize-original.jpg,4711,1801543,2373195,42
858738,DepthScenes,v2_duration_discrimination,discrim_jsons/shuffled_g0_dr.json,http://54.211.221.249/DepthDuration/v2_depth_discrimination_MTurk/v2_DepthDiscrim_HTML.html#1,1,1519,754,1536,864,8-2-2021,9-52-43,162,,,,,,,1894,514,998,1002,999,501,,3,2,scene_property_catch_stimuli/sun_aatxlublfjchvvzu.jpg,4282,1801543,2373195,42
858738,DepthScenes,v2_duration_discrimination,discrim_jsons/shuffled_g0_dr.json,http://54.211.221.249/DepthDuration/v2_depth_discrimination_MTurk/v2_DepthDiscrim_HTML.html#1,1,1519,754,1536,864,8-2-2021,9-52-43,163,,,,,,,1894,514,998,1002,999,501,,4,1,depth_discrimination_stimuli/002272_2014-06-28_18-53-56_260595134347_rgbf000067-resize_2/002272_2014-06-28_18-53-56_260595134347_rgbf000067-resize-original.jpg,3955,1801543,2373195,42
858738,DepthScenes,v2_duration_discrimination,discrim_jsons/shuffled_g0_dr.json,http://54.211.221.249/DepthDuration/v2_depth_discrimination_MTurk/v2_DepthDiscrim_HTML.html#1,1,1519,754,1536,864,8-2-2021,9-52-43,164,,,,,,,1894,514,998,1002,999,501,,3,4,depth_discrimination_stimuli/001392_2014-06-19_16-07-59_260595134347_rgbf000046-resize_1/001392_2014-06-19_16-07-59_260595134347_rgbf000046-resize-original.jpg,5525,1801543,2373195,42
858738,DepthScenes,v2_duration_discrimination,discrim_jsons/shuffled_g0_dr.json,http://54.211.221.249/DepthDuration/v2_depth_discrimination_MTurk/v2_DepthDiscrim_HTML.html#1,1,1519,754,1536,864,8-2-2021,9-52-43,165,,,,,,,1894,514,998,1002,999,501,,4,2,depth_discrimination_stimuli/002790_2014-06-22_19-36-35_094959634447_rgbf000074-resize_4/002790_2014-06-22_19-36-35_094959634447_rgbf000074-resize-original.jpg,6746,1801543,2373195,42
858738,DepthScenes,v2_duration_discrimination,discrim_jsons/shuffled_g0_dr.json,http://54.211.221.249/DepthDuration/v2_depth_discrimination_MTurk/v2_DepthDiscrim_HTML.html#1,1,1519,754,1536,864,8-2-2021,9-52-43,166,,,,,,,1894,514,998,1002,999,501,,3,3,depth_discrimination_stimuli/000927_2014-06-09_16-32-30_260595134347_rgbf000123-resize_3/000927_2014-06-09_16-32-30_260595134347_rgbf000123-resize-original.jpg,3255,1801543,2373195,42
858738,DepthScenes,v2_duration_discrimination,discrim_jsons/shuffled_g0_dr.json,http://54.211.221.249/DepthDuration/v2_depth_discrimination_MTurk/v2_DepthDiscrim_HTML.html#1,1,1519,754,1536,864,8-2-2021,9-52-43,167,,,,,,,1894,514,998,1002,999,501,,4,1,depth_discrimination_stimuli/001066_2014-06-08_22-03-20_260595134347_rgbf000066-resize_4/001066_2014-06-08_22-03-20_260595134347_rgbf000066-resize-original.jpg,2968,1801543,2373195,42
858738,DepthScenes,v2_duration_discrimination,discrim_jsons/shuffled_g0_dr.json,http://54.211.221.249/DepthDuration/v2_depth_discrimination_MTurk/v2_DepthDiscrim_HTML.html#1,1,1519,754,1536,864,8-2-2021,9-52-43,168,,,,,,,1894,514,998,1002,999,501,,4,2,depth_discrimination_stimuli/000753_2014-06-08_21-57-44_260595134347_rgbf000123-resize_3/000753_2014-06-08_21-57-44_260595134347_rgbf000123-resize-original.jpg,2821,1801543,2373195,42
858738,DepthScenes,v2_duration_discrimination,discrim_jsons/shuffled_g0_dr.json,http://54.211.221.249/DepthDuration/v2_depth_discrimination_MTurk/v2_DepthDiscrim_HTML.html#1,1,1519,754,1536,864,8-2-2021,9-52-43,169,,,,,,,1894,514,998,1002,999,501,,3,4,depth_discrimination_stimuli/001617_2014-06-20_11-35-32_260595134347_rgbf000066-resize_1/001617_2014-06-20_11-35-32_260595134347_rgbf000066-resize-original.jpg,3627,1801543,2373195,42
858738,DepthScenes,v2_duration_discrimination,discrim_jsons/shuffled_g0_dr.json,http://54.211.221.249/DepthDuration/v2_depth_discrimination_MTurk/v2_DepthDiscrim_HTML.html#1,1,1519,754,1536,864,8-2-2021,9-52-43,170,,,,,,,1894,514,998,1002,999,501,,3,3,depth_discrimination_stimuli/002414_2014-06-28_20-24-58_260595134347_rgbf000067-resize_4/002414_2014-06-28_20-24-58_260595134347_rgbf000067-resize-original.jpg,3683,1801543,2373195,42
858738,DepthScenes,v2_duration_discrimination,discrim_jsons/shuffled_g0_dr.json,http://54.211.221.249/DepthDuration/v2_depth_discrimination_MTurk/v2_DepthDiscrim_HTML.html#1,1,1519,754,1536,864,8-2-2021,9-52-43,171,,,,,,,1894,514,998,1002,999,501,,4,2,depth_discrimination_stimuli/002425_2014-06-28_20-27-29_260595134347_rgbf000031-resize_8/002425_2014-06-28_20-27-29_260595134347_rgbf000031-resize-original.jpg,3615,1801543,2373195,42
858738,DepthScenes,v2_duration_discrimination,discrim_jsons/shuffled_g0_dr.json,http://54.211.221.249/DepthDuration/v2_depth_discrimination_MTurk/v2_DepthDiscrim_HTML.html#1,1,1519,754,1536,864,8-2-2021,9-52-43,172,,,,,,,1894,514,998,1002,999,501,,3,1,depth_discrimination_stimuli/000137_2014-05-20_17-04-49_260595134347_rgbf000120-resize_1/000137_2014-05-20_17-04-49_260595134347_rgbf000120-resize-original.jpg,2921,1801543,2373195,42
858738,DepthScenes,v2_duration_discrimination,discrim_jsons/shuffled_g0_dr.json,http://54.211.221.249/DepthDuration/v2_depth_discrimination_MTurk/v2_DepthDiscrim_HTML.html#1,1,1519,754,1536,864,8-2-2021,9-52-43,173,,,,,,,1894,514,998,1002,999,501,,3,3,depth_discrimination_stimuli/003534_2014-05-22_15-06-10_094959634447_rgbf000102-resize_4/003534_2014-05-22_15-06-10_094959634447_rgbf000102-resize-original.jpg,7204,1801543,2373195,42
858738,DepthScenes,v2_duration_discrimination,discrim_jsons/shuffled_g0_dr.json,http://54.211.221.249/DepthDuration/v2_depth_discrimination_MTurk/v2_DepthDiscrim_HTML.html#1,1,1519,754,1536,864,8-2-2021,9-52-43,174,,,,,,,1894,514,998,1002,999,501,,3,4,depth_discrimination_stimuli/002748_2014-06-22_19-07-22_094959634447_rgbf000078-resize_1/002748_2014-06-22_19-07-22_094959634447_rgbf000078-resize-original.jpg,4336,1801543,2373195,42
858738,DepthScenes,v2_duration_discrimination,discrim_jsons/shuffled_g0_dr.json,http://54.211.221.249/DepthDuration/v2_depth_discrimination_MTurk/v2_DepthDiscrim_HTML.html#1,1,1519,754,1536,864,8-2-2021,9-52-43,175,,,,,,,1894,514,998,1002,999,501,,4,2,depth_discrimination_stimuli/002375_2014-06-28_20-13-44_260595134347_rgbf000032-resize_1/002375_2014-06-28_20-13-44_260595134347_rgbf000032-resize-original.jpg,4327,1801543,2373195,42
858738,DepthScenes,v2_duration_discrimination,discrim_jsons/shuffled_g0_dr.json,http://54.211.221.249/DepthDuration/v2_depth_discrimination_MTurk/v2_DepthDiscrim_HTML.html#1,1,1519,754,1536,864,8-2-2021,9-52-43,176,,,,,,,1894,514,998,1002,999,501,,3,2,depth_discrimination_stimuli/003423_2014-05-21_10-23-26_094959634447_rgbf002665-resize_2/003423_2014-05-21_10-23-26_094959634447_rgbf002665-resize-original.jpg,2176,1801543,2373195,42
858738,DepthScenes,v2_duration_discrimination,discrim_jsons/shuffled_g0_dr.json,http://54.211.221.249/DepthDuration/v2_depth_discrimination_MTurk/v2_DepthDiscrim_HTML.html#1,1,1519,754,1536,864,8-2-2021,9-52-43,177,,,,,,,1894,514,998,1002,999,501,,4,1,depth_discrimination_stimuli/002131_2014-06-25_21-12-01_260595134347_rgbf000083-resize_0/002131_2014-06-25_21-12-01_260595134347_rgbf000083-resize-original.jpg,2837,1801543,2373195,42
858738,DepthScenes,v2_duration_discrimination,discrim_jsons/shuffled_g0_dr.json,http://54.211.221.249/DepthDuration/v2_depth_discrimination_MTurk/v2_DepthDiscrim_HTML.html#1,1,1519,754,1536,864,8-2-2021,9-52-43,178,,,,,,,1894,514,998,1002,999,501,,4,2,depth_discrimination_stimuli/000470_2014-06-09_19-42-40_260595134347_rgbf000094-resize_1/000470_2014-06-09_19-42-40_260595134347_rgbf000094-resize-original.jpg,3281,1801543,2373195,42
858738,DepthScenes,v2_duration_discrimination,discrim_jsons/shuffled_g0_dr.json,http://54.211.221.249/DepthDuration/v2_depth_discrimination_MTurk/v2_DepthDiscrim_HTML.html#1,1,1519,754,1536,864,8-2-2021,9-52-43,179,,,,,,,1894,514,998,1002,999,501,,3,4,depth_discrimination_stimuli/002805_2014-06-22_19-54-03_094959634447_rgbf000079-resize_1/002805_2014-06-22_19-54-03_094959634447_rgbf000079-resize-original.jpg,3037,1801543,2373195,42
858738,DepthScenes,v2_duration_discrimination,discrim_jsons/shuffled_g0_dr.json,http://54.211.221.249/DepthDuration/v2_depth_discrimination_MTurk/v2_DepthDiscrim_HTML.html#1,1,1519,754,1536,864,8-2-2021,9-52-43,180,,,,,,,1894,514,998,1002,999,501,,4,3,depth_discrimination_stimuli/002657_2014-06-13_15-29-54_094959634447_rgbf000150-resize_1/002657_2014-06-13_15-29-54_094959634447_rgbf000150-resize-original.jpg,2805,1801543,2373195,42
858738,DepthScenes,v2_duration_discrimination,discrim_jsons/shuffled_g0_dr.json,http://54.211.221.249/DepthDuration/v2_depth_discrimination_MTurk/v2_DepthDiscrim_HTML.html#1,1,1519,754,1536,864,8-2-2021,9-52-43,181,,,,,,,1894,514,998,1002,999,501,,4,2,depth_discrimination_stimuli/000522_2014-06-08_13-35-06_260595134347_rgbf000244-resize_1/000522_2014-06-08_13-35-06_260595134347_rgbf000244-resize-original.jpg,2742,1801543,2373195,42
858738,DepthScenes,v2_duration_discrimination,discrim_jsons/shuffled_g0_dr.json,http://54.211.221.249/DepthDuration/v2_depth_discrimination_MTurk/v2_DepthDiscrim_HTML.html#1,1,1519,754,1536,864,8-2-2021,9-52-43,182,,,,,,,1894,514,998,1002,999,501,,3,2,depth_discrimination_stimuli/001164_2014-06-17_15-35-46_260595134347_rgbf000085-resize_3/001164_2014-06-17_15-35-46_260595134347_rgbf000085-resize-original.jpg,2299,1801543,2373195,42
858738,DepthScenes,v2_duration_discrimination,discrim_jsons/shuffled_g0_dr.json,http://54.211.221.249/DepthDuration/v2_depth_discrimination_MTurk/v2_DepthDiscrim_HTML.html#1,1,1519,754,1536,864,8-2-2021,9-52-43,183,,,,,,,1894,514,998,1002,999,501,,4,2,depth_discrimination_stimuli/002989_2014-06-15_12-25-03_094959634447_rgbf000150-resize_3/002989_2014-06-15_12-25-03_094959634447_rgbf000150-resize-original.jpg,6876,1801543,2373195,42
858738,DepthScenes,v2_duration_discrimination,discrim_jsons/shuffled_g0_dr.json,http://54.211.221.249/DepthDuration/v2_depth_discrimination_MTurk/v2_DepthDiscrim_HTML.html#1,1,1519,754,1536,864,8-2-2021,9-52-43,184,,,,,,,1894,514,998,1002,999,501,,3,4,depth_discrimination_stimuli/000810_2014-06-08_17-20-01_260595134347_rgbf000105-resize_0/000810_2014-06-08_17-20-01_260595134347_rgbf000105-resize-original.jpg,3381,1801543,2373195,42
858738,DepthScenes,v2_duration_discrimination,discrim_jsons/shuffled_g0_dr.json,http://54.211.221.249/DepthDuration/v2_depth_discrimination_MTurk/v2_DepthDiscrim_HTML.html#1,1,1519,754,1536,864,8-2-2021,9-52-43,185,,,,,,,1894,514,998,1002,999,501,,3,3,depth_discrimination_stimuli/000929_2014-06-09_16-33-19_260595134347_rgbf000139-resize_0/000929_2014-06-09_16-33-19_260595134347_rgbf000139-resize-original.jpg,2493,1801543,2373195,42
858738,DepthScenes,v2_duration_discrimination,discrim_jsons/shuffled_g0_dr.json,http://54.211.221.249/DepthDuration/v2_depth_discrimination_MTurk/v2_DepthDiscrim_HTML.html#1,1,1519,754,1536,864,8-2-2021,9-52-43,186,,,,,,,1894,514,998,1002,999,501,,4,2,depth_discrimination_stimuli/002344_2014-06-28_20-06-29_260595134347_rgbf000030-resize_1/002344_2014-06-28_20-06-29_260595134347_rgbf000030-resize-original.jpg,2913,1801543,2373195,42
858738,DepthScenes,v2_duration_discrimination,discrim_jsons/shuffled_g0_dr.json,http://54.211.221.249/DepthDuration/v2_depth_discrimination_MTurk/v2_DepthDiscrim_HTML.html#1,1,1519,754,1536,864,8-2-2021,9-52-43,187,,,,,,,1894,514,998,1002,999,501,,4,3,depth_discrimination_stimuli/001555_2014-06-20_17-12-10_260595134347_rgbf000065-resize_4/001555_2014-06-20_17-12-10_260595134347_rgbf000065-resize-original.jpg,2395,1801543,2373195,42
858738,DepthScenes,v2_duration_discrimination,discrim_jsons/shuffled_g0_dr.json,http://54.211.221.249/DepthDuration/v2_depth_discrimination_MTurk/v2_DepthDiscrim_HTML.html#1,1,1519,754,1536,864,8-2-2021,9-52-43,188,,,,,,,1894,514,998,1002,999,501,,4,3,depth_discrimination_stimuli/002279_2014-06-28_18-55-32_260595134347_rgbf000040-resize_5/002279_2014-06-28_18-55-32_260595134347_rgbf000040-resize-original.jpg,3947,1801543,2373195,42
858738,DepthScenes,v2_duration_discrimination,discrim_jsons/shuffled_g0_dr.json,http://54.211.221.249/DepthDuration/v2_depth_discrimination_MTurk/v2_DepthDiscrim_HTML.html#1,1,1519,754,1536,864,8-2-2021,9-52-43,189,,,,,,,1894,514,998,1002,999,501,,1,5,depth_discrimination_stimuli/002118_2014-06-25_20-32-08_260595134347_rgbf000078-resize_1/002118_2014-06-25_20-32-08_260595134347_rgbf000078-resize-original.jpg,6908,1801543,2373195,42
858738,DepthScenes,v2_duration_discrimination,discrim_jsons/shuffled_g0_dr.json,http://54.211.221.249/DepthDuration/v2_depth_discrimination_MTurk/v2_DepthDiscrim_HTML.html#1,1,1519,754,1536,864,8-2-2021,9-52-43,190,,,,,,,1894,514,998,1002,999,501,,3,2,depth_discrimination_stimuli/001449_2014-06-19_17-01-27_260595134347_rgbf000116-resize_2/001449_2014-06-19_17-01-27_260595134347_rgbf000116-resize-original.jpg,2712,1801543,2373195,42
858738,DepthScenes,v2_duration_discrimination,discrim_jsons/shuffled_g0_dr.json,http://54.211.221.249/DepthDuration/v2_depth_discrimination_MTurk/v2_DepthDiscrim_HTML.html#1,1,1519,754,1536,864,8-2-2021,9-52-43,191,,,,,,,1894,514,998,1002,999,501,,3,4,depth_discrimination_stimuli/000457_2014-06-08_16-52-43_260595134347_rgbf000199-resize_1/000457_2014-06-08_16-52-43_260595134347_rgbf000199-resize-original.jpg,3730,1801543,2373195,42
858738,DepthScenes,v2_duration_discrimination,discrim_jsons/shuffled_g0_dr.json,http://54.211.221.249/DepthDuration/v2_depth_discrimination_MTurk/v2_DepthDiscrim_HTML.html#1,1,1519,754,1536,864,8-2-2021,9-52-43,192,,,,,,,1894,514,998,1002,999,501,,3,3,depth_discrimination_stimuli/000493_2014-06-09_21-01-18_260595134347_rgbf000196-resize_3/000493_2014-06-09_21-01-18_260595134347_rgbf000196-resize-original.jpg,3014,1801543,2373195,42
858738,DepthScenes,v2_duration_discrimination,discrim_jsons/shuffled_g0_dr.json,http://54.211.221.249/DepthDuration/v2_depth_discrimination_MTurk/v2_DepthDiscrim_HTML.html#1,1,1519,754,1536,864,8-2-2021,9-52-43,193,,,,,,,1894,514,998,1002,999,501,,4,2,depth_discrimination_stimuli/000720_2014-06-08_18-37-27_260595134347_rgbf000203-resize_4/000720_2014-06-08_18-37-27_260595134347_rgbf000203-resize-original.jpg,2703,1801543,2373195,42
858738,DepthScenes,v2_duration_discrimination,discrim_jsons/shuffled_g0_dr.json,http://54.211.221.249/DepthDuration/v2_depth_discrimination_MTurk/v2_DepthDiscrim_HTML.html#1,1,1519,754,1536,864,8-2-2021,9-52-43,194,,,,,,,1894,514,998,1002,999,501,,4,2,depth_discrimination_stimuli/003228_2014-05-14_13-42-35_094959634447_rgbf000101-resize_1/003228_2014-05-14_13-42-35_094959634447_rgbf000101-resize-original.jpg,2494,1801543,2373195,42
858738,DepthScenes,v2_duration_discrimination,discrim_jsons/shuffled_g0_dr.json,http://54.211.221.249/DepthDuration/v2_depth_discrimination_MTurk/v2_DepthDiscrim_HTML.html#1,1,1519,754,1536,864,8-2-2021,9-52-43,195,,,,,,,1894,514,998,1002,999,501,,4,3,depth_discrimination_stimuli/002964_2014-06-08_17-46-11_094959634447_rgbf000091-resize_4/002964_2014-06-08_17-46-11_094959634447_rgbf000091-resize-original.jpg,2695,1801543,2373195,42
858738,DepthScenes,v2_duration_discrimination,discrim_jsons/shuffled_g0_dr.json,http://54.211.221.249/DepthDuration/v2_depth_discrimination_MTurk/v2_DepthDiscrim_HTML.html#1,1,1519,754,1536,864,8-2-2021,9-52-43,196,,,,,,,1894,514,998,1002,999,501,,5,2,depth_discrimination_stimuli/001289_2014-06-16_16-25-52_260595134347_rgbf000067-resize_1/001289_2014-06-16_16-25-52_260595134347_rgbf000067-resize-original.jpg,3297,1801543,2373195,42
858738,DepthScenes,v2_duration_discrimination,discrim_jsons/shuffled_g0_dr.json,http://54.211.221.249/DepthDuration/v2_depth_discrimination_MTurk/v2_DepthDiscrim_HTML.html#1,1,1519,754,1536,864,8-2-2021,9-52-43,197,,,,,,,1894,514,998,1002,999,501,,5,3,depth_discrimination_stimuli/001571_2014-06-20_17-21-32_260595134347_rgbf000089-resize_1/001571_2014-06-20_17-21-32_260595134347_rgbf000089-resize-original.jpg,3837,1801543,2373195,42
858738,DepthScenes,v2_duration_discrimination,discrim_jsons/shuffled_g0_dr.json,http://54.211.221.249/DepthDuration/v2_depth_discrimination_MTurk/v2_DepthDiscrim_HTML.html#1,1,1519,754,1536,864,8-2-2021,9-52-43,198,,,,,,,1894,514,998,1002,999,501,,5,3,depth_discrimination_stimuli/001516_2014-06-20_16-25-09_260595134347_rgbf000076-resize_2/001516_2014-06-20_16-25-09_260595134347_rgbf000076-resize-original.jpg,3254,1801543,2373195,42
858738,DepthScenes,v2_duration_discrimination,discrim_jsons/shuffled_g0_dr.json,http://54.211.221.249/DepthDuration/v2_depth_discrimination_MTurk/v2_DepthDiscrim_HTML.html#1,1,1519,754,1536,864,8-2-2021,9-52-43,199,,,,,,,1894,514,998,1002,999,501,,3,4,depth_discrimination_stimuli/002467_2014-06-28_20-38-07_260595134347_rgbf000026-resize_2/002467_2014-06-28_20-38-07_260595134347_rgbf000026-resize-original.jpg,2838,1801543,2373195,42
858738,DepthScenes,v2_duration_discrimination,discrim_jsons/shuffled_g0_dr.json,http://54.211.221.249/DepthDuration/v2_depth_discrimination_MTurk/v2_DepthDiscrim_HTML.html#1,1,1519,754,1536,864,8-2-2021,9-52-43,200,,,,,,,1894,514,998,1002,999,501,,4,3,depth_discrimination_stimuli/001806_2014-06-26_20-50-20_260595134347_rgbf000091-resize_1/001806_2014-06-26_20-50-20_260595134347_rgbf000091-resize-original.jpg,2502,1801543,2373195,42
858738,DepthScenes,v2_duration_discrimination,discrim_jsons/shuffled_g0_dr.json,http://54.211.221.249/DepthDuration/v2_depth_discrimination_MTurk/v2_DepthDiscrim_HTML.html#1,1,1519,754,1536,864,8-2-2021,9-52-43,201,,,,,,,1894,514,998,1002,999,501,,4,2,depth_discrimination_stimuli/000906_2014-06-08_13-35-43_260595134347_rgbf000155-resize_1/000906_2014-06-08_13-35-43_260595134347_rgbf000155-resize-original.jpg,2967,1801543,2373195,42
858738,DepthScenes,v2_duration_discrimination,discrim_jsons/shuffled_g0_dr.json,http://54.211.221.249/DepthDuration/v2_depth_discrimination_MTurk/v2_DepthDiscrim_HTML.html#1,1,1519,754,1536,864,8-2-2021,9-52-43,202,,,,,,,1894,514,998,1002,999,501,,4,3,depth_discrimination_stimuli/002209_2014-06-28_18-36-10_260595134347_rgbf000051-resize_1/002209_2014-06-28_18-36-10_260595134347_rgbf000051-resize-original.jpg,8386,1801543,2373195,42
858738,DepthScenes,v2_duration_discrimination,discrim_jsons/shuffled_g0_dr.json,http://54.211.221.249/DepthDuration/v2_depth_discrimination_MTurk/v2_DepthDiscrim_HTML.html#1,1,1519,754,1536,864,8-2-2021,9-52-43,203,,,,,,,1894,514,998,1002,999,501,,4,3,depth_discrimination_stimuli/000735_2014-06-08_18-23-50_260595134347_rgbf000163-resize_2/000735_2014-06-08_18-23-50_260595134347_rgbf000163-resize-original.jpg,2460,1801543,2373195,42
858738,DepthScenes,v2_duration_discrimination,discrim_jsons/shuffled_g0_dr.json,http://54.211.221.249/DepthDuration/v2_depth_discrimination_MTurk/v2_DepthDiscrim_HTML.html#1,1,1519,754,1536,864,8-2-2021,9-52-43,204,,,,,,,1894,514,998,1002,999,501,,4,2,depth_discrimination_stimuli/001450_2014-06-19_17-02-03_260595134347_rgbf000203-resize_4/001450_2014-06-19_17-02-03_260595134347_rgbf000203-resize-original.jpg,2599,1801543,2373195,42
858738,DepthScenes,v2_duration_discrimination,discrim_jsons/shuffled_g0_dr.json,http://54.211.221.249/DepthDuration/v2_depth_discrimination_MTurk/v2_DepthDiscrim_HTML.html#1,1,1519,754,1536,864,8-2-2021,9-52-43,205,,,,,,,1894,514,998,1002,999,501,,3,1,depth_discrimination_stimuli/002579_2014-06-24_14-08-03_094959634447_rgbf000061-resize_2/002579_2014-06-24_14-08-03_094959634447_rgbf000061-resize-original.jpg,5539,1801543,2373195,42
858738,DepthScenes,v2_duration_discrimination,discrim_jsons/shuffled_g0_dr.json,http://54.211.221.249/DepthDuration/v2_depth_discrimination_MTurk/v2_DepthDiscrim_HTML.html#1,1,1519,754,1536,864,8-2-2021,9-52-43,206,,,,,,,1894,514,998,1002,999,501,,2,4,depth_discrimination_stimuli/001197_2014-06-17_16-01-50_260595134347_rgbf000103-resize_4/001197_2014-06-17_16-01-50_260595134347_rgbf000103-resize-original.jpg,4648,1801543,2373195,42
858738,DepthScenes,v2_duration_discrimination,discrim_jsons/shuffled_g0_dr.json,http://54.211.221.249/DepthDuration/v2_depth_discrimination_MTurk/v2_DepthDiscrim_HTML.html#1,1,1519,754,1536,864,8-2-2021,9-52-43,207,,,,,,,1894,514,998,1002,999,501,,3,2,depth_discrimination_stimuli/002545_2014-06-24_13-38-53_094959634447_rgbf000080-resize_4/002545_2014-06-24_13-38-53_094959634447_rgbf000080-resize-original.jpg,3534,1801543,2373195,42
858738,DepthScenes,v2_duration_discrimination,discrim_jsons/shuffled_g0_dr.json,http://54.211.221.249/DepthDuration/v2_depth_discrimination_MTurk/v2_DepthDiscrim_HTML.html#1,1,1519,754,1536,864,8-2-2021,9-52-43,208,,,,,,,1894,514,998,1002,999,501,,4,3,depth_discrimination_stimuli/002043_2014-06-24_20-29-38_260595134347_rgbf000039-resize_4/002043_2014-06-24_20-29-38_260595134347_rgbf000039-resize-original.jpg,3108,1801543,2373195,42
858738,DepthScenes,v2_duration_discrimination,discrim_jsons/shuffled_g0_dr.json,http://54.211.221.249/DepthDuration/v2_depth_discrimination_MTurk/v2_DepthDiscrim_HTML.html#1,1,1519,754,1536,864,8-2-2021,9-52-43,209,,,,,,,1894,514,998,1002,999,501,,3,2,depth_discrimination_stimuli/001618_2014-06-20_11-37-31_260595134347_rgbf000027-resize_3/001618_2014-06-20_11-37-31_260595134347_rgbf000027-resize-original.jpg,3520,1801543,2373195,42
858738,DepthScenes,v2_duration_discrimination,discrim_jsons/shuffled_g0_dr.json,http://54.211.221.249/DepthDuration/v2_depth_discrimination_MTurk/v2_DepthDiscrim_HTML.html#1,1,1519,754,1536,864,8-2-2021,9-52-43,210,,,,,,,1894,514,998,1002,999,501,,4,3,depth_discrimination_stimuli/002305_2014-06-28_19-56-50_260595134347_rgbf000102-resize_7/002305_2014-06-28_19-56-50_260595134347_rgbf000102-resize-original.jpg,5564,1801543,2373195,42
858738,DepthScenes,v2_duration_discrimination,discrim_jsons/shuffled_g0_dr.json,http://54.211.221.249/DepthDuration/v2_depth_discrimination_MTurk/v2_DepthDiscrim_HTML.html#1,1,1519,754,1536,864,8-2-2021,9-52-43,211,,,,,,,1894,514,998,1002,999,501,,3,2,depth_discrimination_stimuli/003495_2014-05-21_16-01-51_094959634447_rgbf000100-resize_3/003495_2014-05-21_16-01-51_094959634447_rgbf000100-resize-original.jpg,5510,1801543,2373195,42
858738,DepthScenes,v2_duration_discrimination,discrim_jsons/shuffled_g0_dr.json,http://54.211.221.249/DepthDuration/v2_depth_discrimination_MTurk/v2_DepthDiscrim_HTML.html#1,1,1519,754,1536,864,8-2-2021,9-52-43,212,,,,,,,1894,514,998,1002,999,501,,4,2,depth_discrimination_stimuli/002464_2014-06-28_20-36-57_260595134347_rgbf000029-resize_0/002464_2014-06-28_20-36-57_260595134347_rgbf000029-resize-original.jpg,3854,1801543,2373195,42
858738,DepthScenes,v2_duration_discrimination,discrim_jsons/shuffled_g0_dr.json,http://54.211.221.249/DepthDuration/v2_depth_discrimination_MTurk/v2_DepthDiscrim_HTML.html#1,1,1519,754,1536,864,8-2-2021,9-52-43,213,,,,,,,1894,514,998,1002,999,501,,4,1,depth_discrimination_stimuli/002549_2014-06-24_13-41-39_094959634447_rgbf000022-resize_3/002549_2014-06-24_13-41-39_094959634447_rgbf000022-resize-original.jpg,2533,1801543,2373195,42
