subjID,experimentName,versionName,sequenceName,url,selected_row,windowWidth,windowHeight,screenWidth,screenHeight,startDate,startTime,trial,stimulus_0,stimulus_1,duration,actual_depth_0,actual_depth_1,discrim_choice,trial_RT,log_fixation,log_sceneDuration1,log_mask1,log_sceneDuration2,log_mask2,unitSelection,meanDepth_rating,navigability_rating,rated_stimulus,rating_RT,experimentTime,totalTime,age
983483,DepthScenes,v2_duration_discrimination,discrim_jsons/shuffled_g0_dr.json,http://54.211.221.249/DepthDuration/v2_depth_discrimination_MTurk/v2_DepthDiscrim_HTML.html#1,1,1368,769,1368,912,8-2-2021,8-40-25,1,depth_discrimination_stimuli/001618_2014-06-20_11-37-31_260595134347_rgbf000027-resize_3/001618_2014-06-20_11-37-31_260595134347_rgbf000027-resize_3-target.png,depth_discrimination_stimuli/000109_2014-05-14_23-41-52_260595134347_rgbf000035-resize_9/000109_2014-05-14_23-41-52_260595134347_rgbf000035-resize_9-target.png,1000,1.8725,1.3545,0,2108,507,1005,997,994,505,,,,,,905471,1227234,35
983483,DepthScenes,v2_duration_discrimination,discrim_jsons/shuffled_g0_dr.json,http://54.211.221.249/DepthDuration/v2_depth_discrimination_MTurk/v2_DepthDiscrim_HTML.html#1,1,1368,769,1368,912,8-2-2021,8-40-25,2,depth_discrimination_stimuli/002103_2014-06-25_20-00-40_260595134347_rgbf000049-resize_0/002103_2014-06-25_20-00-40_260595134347_rgbf000049-resize_0-target.png,depth_discrimination_stimuli/002444_2014-06-28_20-32-08_260595134347_rgbf000027-resize_0/002444_2014-06-28_20-32-08_260595134347_rgbf000027-resize_0-target.png,1000,4.105,4.389,0,1779,509,993,1004,997,504,,,,,,905471,1227234,35
983483,DepthScenes,v2_duration_discrimination,discrim_jsons/shuffled_g0_dr.json,http://54.211.221.249/DepthDuration/v2_depth_discrimination_MTurk/v2_DepthDiscrim_HTML.html#1,1,1368,769,1368,912,8-2-2021,8-40-25,3,depth_discrimination_stimuli/000800_2014-06-08_22-42-09_260595134347_rgbf000095-resize_3/000800_2014-06-08_22-42-09_260595134347_rgbf000095-resize_3-target.png,depth_discrimination_stimuli/000869_2014-06-09_20-50-18_260595134347_rgbf000060-resize_3/000869_2014-06-09_20-50-18_260595134347_rgbf000060-resize_3-target.png,250,2.8,2.266,0,1433,508,249,993,250,506,,,,,,905471,1227234,35
983483,DepthScenes,v2_duration_discrimination,discrim_jsons/shuffled_g0_dr.json,http://54.211.221.249/DepthDuration/v2_depth_discrimination_MTurk/v2_DepthDiscrim_HTML.html#1,1,1368,769,1368,912,8-2-2021,8-40-25,4,depth_discrimination_stimuli/001092_2014-06-15_17-34-58_260595134347_rgbf000171-resize_3/001092_2014-06-15_17-34-58_260595134347_rgbf000171-resize_3-target.png,depth_discrimination_stimuli/000502_2014-06-08_23-02-32_260595134347_rgbf000063-resize_4/000502_2014-06-08_23-02-32_260595134347_rgbf000063-resize_4-target.png,250,2.6935,2.431,0,1131,511,254,995,252,492,,,,,,905471,1227234,35
983483,DepthScenes,v2_duration_discrimination,discrim_jsons/shuffled_g0_dr.json,http://54.211.221.249/DepthDuration/v2_depth_discrimination_MTurk/v2_DepthDiscrim_HTML.html#1,1,1368,769,1368,912,8-2-2021,8-40-25,5,depth_discrimination_stimuli/000953_2014-06-08_11-42-19_260595134347_rgbf000083-resize_0/000953_2014-06-08_11-42-19_260595134347_rgbf000083-resize_0-target.png,depth_discrimination_stimuli/000787_2014-06-08_22-33-53_260595134347_rgbf000175-resize_1/000787_2014-06-08_22-33-53_260595134347_rgbf000175-resize_1-target.png,250,1.369,4.784,0,1005,516,235,1010,251,493,,,,,,905471,1227234,35
983483,DepthScenes,v2_duration_discrimination,discrim_jsons/shuffled_g0_dr.json,http://54.211.221.249/DepthDuration/v2_depth_discrimination_MTurk/v2_DepthDiscrim_HTML.html#1,1,1368,769,1368,912,8-2-2021,8-40-25,6,depth_discrimination_stimuli/003083_2014-06-15_15-21-03_094959634447_rgbf000063-resize_1/003083_2014-06-15_15-21-03_094959634447_rgbf000063-resize_1-target.png,depth_discrimination_stimuli/000742_2014-06-08_18-48-09_260595134347_rgbf000164-resize_4/000742_2014-06-08_18-48-09_260595134347_rgbf000164-resize_4-target.png,1000,4.1405,4.632,1,1581,515,990,998,1009,492,,,,,,905471,1227234,35
983483,DepthScenes,v2_duration_discrimination,discrim_jsons/shuffled_g0_dr.json,http://54.211.221.249/DepthDuration/v2_depth_discrimination_MTurk/v2_DepthDiscrim_HTML.html#1,1,1368,769,1368,912,8-2-2021,8-40-25,7,depth_discrimination_stimuli/000749_2014-06-08_21-55-06_260595134347_rgbf000070-resize_2/000749_2014-06-08_21-55-06_260595134347_rgbf000070-resize_2-target.png,depth_discrimination_stimuli/001056_2014-06-08_18-46-44_260595134347_rgbf000068-resize_0/001056_2014-06-08_18-46-44_260595134347_rgbf000068-resize_0-target.png,250,2.331,2.6625,0,1139,501,251,1007,241,503,,,,,,905471,1227234,35
983483,DepthScenes,v2_duration_discrimination,discrim_jsons/shuffled_g0_dr.json,http://54.211.221.249/DepthDuration/v2_depth_discrimination_MTurk/v2_DepthDiscrim_HTML.html#1,1,1368,769,1368,912,8-2-2021,8-40-25,8,depth_discrimination_stimuli/002043_2014-06-24_20-29-38_260595134347_rgbf000039-resize_4/002043_2014-06-24_20-29-38_260595134347_rgbf000039-resize_4-target.png,depth_discrimination_stimuli/001011_2014-06-08_23-18-54_260595134347_rgbf000044-resize_4/001011_2014-06-08_23-18-54_260595134347_rgbf000044-resize_4-target.png,1000,2.8435,2.473,0,1942,503,997,1009,1004,489,,,,,,905471,1227234,35
983483,DepthScenes,v2_duration_discrimination,discrim_jsons/shuffled_g0_dr.json,http://54.211.221.249/DepthDuration/v2_depth_discrimination_MTurk/v2_DepthDiscrim_HTML.html#1,1,1368,769,1368,912,8-2-2021,8-40-25,9,depth_discrimination_stimuli/000454_2014-06-08_16-37-28_260595134347_rgbf000048-resize_2/000454_2014-06-08_16-37-28_260595134347_rgbf000048-resize_2-target.png,depth_discrimination_stimuli/000375_2014-06-08_11-17-29_260595134347_rgbf000133-resize_2/000375_2014-06-08_11-17-29_260595134347_rgbf000133-resize_2-target.png,1000,1.213,4.718,0,1860,513,996,992,1011,491,,,,,,905471,1227234,35
983483,DepthScenes,v2_duration_discrimination,discrim_jsons/shuffled_g0_dr.json,http://54.211.221.249/DepthDuration/v2_depth_discrimination_MTurk/v2_DepthDiscrim_HTML.html#1,1,1368,769,1368,912,8-2-2021,8-40-25,10,depth_discrimination_stimuli/001532_2014-06-20_16-50-41_260595134347_rgbf000081-resize_4/001532_2014-06-20_16-50-41_260595134347_rgbf000081-resize_4-target.png,depth_discrimination_stimuli/000943_2014-06-09_19-31-07_260595134347_rgbf000128-resize_1/000943_2014-06-09_19-31-07_260595134347_rgbf000128-resize_1-target.png,250,1.5758333333333,1.9765,0,945,510,251,991,253,509,,,,,,905471,1227234,35
983483,DepthScenes,v2_duration_discrimination,discrim_jsons/shuffled_g0_dr.json,http://54.211.221.249/DepthDuration/v2_depth_discrimination_MTurk/v2_DepthDiscrim_HTML.html#1,1,1368,769,1368,912,8-2-2021,8-40-25,11,depth_discrimination_stimuli/002340_2014-06-28_20-05-46_260595134347_rgbf000113-resize_0/002340_2014-06-28_20-05-46_260595134347_rgbf000113-resize_0-target.png,depth_discrimination_stimuli/002905_2014-06-03_18-04-43_094959634447_rgbf000151-resize_2/002905_2014-06-03_18-04-43_094959634447_rgbf000151-resize_2-target.png,250,2.4735,2.0295,1,1146,510,250,998,254,490,,,,,,905471,1227234,35
983483,DepthScenes,v2_duration_discrimination,discrim_jsons/shuffled_g0_dr.json,http://54.211.221.249/DepthDuration/v2_depth_discrimination_MTurk/v2_DepthDiscrim_HTML.html#1,1,1368,769,1368,912,8-2-2021,8-40-25,12,depth_discrimination_stimuli/000691_2014-06-08_13-08-50_260595134347_rgbf000132-resize_3/000691_2014-06-08_13-08-50_260595134347_rgbf000132-resize_3-target.png,depth_discrimination_stimuli/002039_2014-06-24_20-22-38_260595134347_rgbf000084-resize_1/002039_2014-06-24_20-22-38_260595134347_rgbf000084-resize_1-target.png,250,4.153,4.408,1,1306,515,250,999,236,503,,,,,,905471,1227234,35
983483,DepthScenes,v2_duration_discrimination,discrim_jsons/shuffled_g0_dr.json,http://54.211.221.249/DepthDuration/v2_depth_discrimination_MTurk/v2_DepthDiscrim_HTML.html#1,1,1368,769,1368,912,8-2-2021,8-40-25,13,depth_discrimination_stimuli/000569_2014-06-09_22-51-47_260595134347_rgbf000141-resize_3/000569_2014-06-09_22-51-47_260595134347_rgbf000141-resize_3-target.png,depth_discrimination_stimuli/000868_2014-06-09_20-49-52_260595134347_rgbf000064-resize_4/000868_2014-06-09_20-49-52_260595134347_rgbf000064-resize_4-target.png,250,4.512,1.2815,0,938,508,255,999,251,490,,,,,,905471,1227234,35
983483,DepthScenes,v2_duration_discrimination,discrim_jsons/shuffled_g0_dr.json,http://54.211.221.249/DepthDuration/v2_depth_discrimination_MTurk/v2_DepthDiscrim_HTML.html#1,1,1368,769,1368,912,8-2-2021,8-40-25,14,depth_discrimination_stimuli/003587_2014-05-23_16-48-02_094959634447_rgbf002384-resize_2/003587_2014-05-23_16-48-02_094959634447_rgbf002384-resize_2-target.png,depth_discrimination_stimuli/000709_2014-06-08_13-51-55_260595134347_rgbf000068-resize_3/000709_2014-06-08_13-51-55_260595134347_rgbf000068-resize_3-target.png,250,1.357,1.803,1,1107,512,252,997,251,491,,,,,,905471,1227234,35
983483,DepthScenes,v2_duration_discrimination,discrim_jsons/shuffled_g0_dr.json,http://54.211.221.249/DepthDuration/v2_depth_discrimination_MTurk/v2_DepthDiscrim_HTML.html#1,1,1368,769,1368,912,8-2-2021,8-40-25,15,depth_discrimination_stimuli/002199_2014-06-28_18-33-56_260595134347_rgbf000074-resize_0/002199_2014-06-28_18-33-56_260595134347_rgbf000074-resize_0-target.png,depth_discrimination_stimuli/001016_2014-06-09_16-16-10_260595134347_rgbf000112-resize_5/001016_2014-06-09_16-16-10_260595134347_rgbf000112-resize_5-target.png,1000,1.996,1.6565,0,3247,503,998,1012,990,507,,,,,,905471,1227234,35
983483,DepthScenes,v2_duration_discrimination,discrim_jsons/shuffled_g0_dr.json,http://54.211.221.249/DepthDuration/v2_depth_discrimination_MTurk/v2_DepthDiscrim_HTML.html#1,1,1368,769,1368,912,8-2-2021,8-40-25,16,depth_discrimination_stimuli/000493_2014-06-09_21-01-18_260595134347_rgbf000196-resize_3/000493_2014-06-09_21-01-18_260595134347_rgbf000196-resize_3-target.png,depth_discrimination_stimuli/000409_2014-06-04_19-23-33_260595134347_rgbf000067-resize_0/000409_2014-06-04_19-23-33_260595134347_rgbf000067-resize_0-target.png,1000,3.44,3.7335,0,1962,506,1008,995,996,506,,,,,,905471,1227234,35
983483,DepthScenes,v2_duration_discrimination,discrim_jsons/shuffled_g0_dr.json,http://54.211.221.249/DepthDuration/v2_depth_discrimination_MTurk/v2_DepthDiscrim_HTML.html#1,1,1368,769,1368,912,8-2-2021,8-40-25,17,depth_discrimination_stimuli/002953_2014-06-08_17-32-18_094959634447_rgbf000059-resize_5/002953_2014-06-08_17-32-18_094959634447_rgbf000059-resize_5-target.png,depth_discrimination_stimuli/000470_2014-06-09_19-42-40_260595134347_rgbf000094-resize_1/000470_2014-06-09_19-42-40_260595134347_rgbf000094-resize_1-target.png,1000,1.551,1.831,0,2043,503,1009,996,996,504,,,,,,905471,1227234,35
983483,DepthScenes,v2_duration_discrimination,discrim_jsons/shuffled_g0_dr.json,http://54.211.221.249/DepthDuration/v2_depth_discrimination_MTurk/v2_DepthDiscrim_HTML.html#1,1,1368,769,1368,912,8-2-2021,8-40-25,18,depth_discrimination_stimuli/000929_2014-06-09_16-33-19_260595134347_rgbf000139-resize_0/000929_2014-06-09_16-33-19_260595134347_rgbf000139-resize_0-target.png,depth_discrimination_stimuli/001055_2014-06-08_18-45-35_260595134347_rgbf000111-resize_4/001055_2014-06-08_18-45-35_260595134347_rgbf000111-resize_4-target.png,250,2.868,2.429,0,1163,501,249,1012,252,488,,,,,,905471,1227234,35
983483,DepthScenes,v2_duration_discrimination,discrim_jsons/shuffled_g0_dr.json,http://54.211.221.249/DepthDuration/v2_depth_discrimination_MTurk/v2_DepthDiscrim_HTML.html#1,1,1368,769,1368,912,8-2-2021,8-40-25,19,depth_discrimination_stimuli/002118_2014-06-25_20-32-08_260595134347_rgbf000078-resize_1/002118_2014-06-25_20-32-08_260595134347_rgbf000078-resize_1-target.png,depth_discrimination_stimuli/001164_2014-06-17_15-35-46_260595134347_rgbf000085-resize_3/001164_2014-06-17_15-35-46_260595134347_rgbf000085-resize_3-target.png,250,2.646,2.354,1,1479,507,253,991,250,505,,,,,,905471,1227234,35
983483,DepthScenes,v2_duration_discrimination,discrim_jsons/shuffled_g0_dr.json,http://54.211.221.249/DepthDuration/v2_depth_discrimination_MTurk/v2_DepthDiscrim_HTML.html#1,1,1368,769,1368,912,8-2-2021,8-40-25,20,depth_discrimination_stimuli/002675_2014-06-13_16-08-49_094959634447_rgbf000151-resize_2/002675_2014-06-13_16-08-49_094959634447_rgbf000151-resize_2-target.png,depth_discrimination_stimuli/001222_2014-06-17_16-24-06_260595134347_rgbf000073-resize_0/001222_2014-06-17_16-24-06_260595134347_rgbf000073-resize_0-target.png,1000,4.5065,1.4385,1,2048,508,1003,991,1008,493,,,,,,905471,1227234,35
983483,DepthScenes,v2_duration_discrimination,discrim_jsons/shuffled_g0_dr.json,http://54.211.221.249/DepthDuration/v2_depth_discrimination_MTurk/v2_DepthDiscrim_HTML.html#1,1,1368,769,1368,912,8-2-2021,8-40-25,21,depth_discrimination_stimuli/000556_2014-06-09_22-42-56_260595134347_rgbf000214-resize_1/000556_2014-06-09_22-42-56_260595134347_rgbf000214-resize_1-target.png,depth_discrimination_stimuli/001148_2014-06-17_15-26-42_260595134347_rgbf000129-resize_0/001148_2014-06-17_15-26-42_260595134347_rgbf000129-resize_0-target.png,250,4.8415,4.368,0,1606,507,251,993,247,506,,,,,,905471,1227234,35
983483,DepthScenes,v2_duration_discrimination,discrim_jsons/shuffled_g0_dr.json,http://54.211.221.249/DepthDuration/v2_depth_discrimination_MTurk/v2_DepthDiscrim_HTML.html#1,1,1368,769,1368,912,8-2-2021,8-40-25,22,depth_discrimination_stimuli/002805_2014-06-22_19-54-03_094959634447_rgbf000079-resize_1/002805_2014-06-22_19-54-03_094959634447_rgbf000079-resize_1-target.png,depth_discrimination_stimuli/001584_2014-06-20_11-07-43_260595134347_rgbf000002-resize_1/001584_2014-06-20_11-07-43_260595134347_rgbf000002-resize_1-target.png,1000,3.144,3.53,1,2439,508,997,995,1009,507,,,,,,905471,1227234,35
983483,DepthScenes,v2_duration_discrimination,discrim_jsons/shuffled_g0_dr.json,http://54.211.221.249/DepthDuration/v2_depth_discrimination_MTurk/v2_DepthDiscrim_HTML.html#1,1,1368,769,1368,912,8-2-2021,8-40-25,23,depth_discrimination_stimuli/000549_2014-06-08_22-10-24_260595134347_rgbf000247-resize_3/000549_2014-06-08_22-10-24_260595134347_rgbf000247-resize_3-target.png,depth_discrimination_stimuli/002509_2014-06-24_13-19-22_094959634447_rgbf000077-resize_0/002509_2014-06-24_13-19-22_094959634447_rgbf000077-resize_0-target.png,250,1.841,1.3065,1,1339,513,251,990,253,493,,,,,,905471,1227234,35
983483,DepthScenes,v2_duration_discrimination,discrim_jsons/shuffled_g0_dr.json,http://54.211.221.249/DepthDuration/v2_depth_discrimination_MTurk/v2_DepthDiscrim_HTML.html#1,1,1368,769,1368,912,8-2-2021,8-40-25,24,depth_discrimination_stimuli/001450_2014-06-19_17-02-03_260595134347_rgbf000203-resize_4/001450_2014-06-19_17-02-03_260595134347_rgbf000203-resize_4-target.png,depth_discrimination_stimuli/002414_2014-06-28_20-24-58_260595134347_rgbf000067-resize_4/002414_2014-06-28_20-24-58_260595134347_rgbf000067-resize_4-target.png,1000,4.0106666666667,4.363,0,1807,509,996,1008,992,505,,,,,,905471,1227234,35
983483,DepthScenes,v2_duration_discrimination,discrim_jsons/shuffled_g0_dr.json,http://54.211.221.249/DepthDuration/v2_depth_discrimination_MTurk/v2_DepthDiscrim_HTML.html#1,1,1368,769,1368,912,8-2-2021,8-40-25,25,depth_discrimination_stimuli/003495_2014-05-21_16-01-51_094959634447_rgbf000100-resize_3/003495_2014-05-21_16-01-51_094959634447_rgbf000100-resize_3-target.png,depth_discrimination_stimuli/002949_2014-06-26_15-57-42_094959634447_rgbf000079-resize_1/002949_2014-06-26_15-57-42_094959634447_rgbf000079-resize_1-target.png,1000,1.6255,1.8915,0,1897,514,997,991,1008,504,,,,,,905471,1227234,35
983483,DepthScenes,v2_duration_discrimination,discrim_jsons/shuffled_g0_dr.json,http://54.211.221.249/DepthDuration/v2_depth_discrimination_MTurk/v2_DepthDiscrim_HTML.html#1,1,1368,769,1368,912,8-2-2021,8-40-25,26,depth_discrimination_stimuli/001498_2014-06-19_17-45-14_260595134347_rgbf000129-resize_4/001498_2014-06-19_17-45-14_260595134347_rgbf000129-resize_4-target.png,depth_discrimination_stimuli/003125_2014-05-12_10-39-22_094959634447_rgbf000100-resize_0/003125_2014-05-12_10-39-22_094959634447_rgbf000100-resize_0-target.png,1000,1.4075,4.8655,0,1918,502,1010,991,1010,491,,,,,,905471,1227234,35
983483,DepthScenes,v2_duration_discrimination,discrim_jsons/shuffled_g0_dr.json,http://54.211.221.249/DepthDuration/v2_depth_discrimination_MTurk/v2_DepthDiscrim_HTML.html#1,1,1368,769,1368,912,8-2-2021,8-40-25,27,depth_discrimination_stimuli/002549_2014-06-24_13-41-39_094959634447_rgbf000022-resize_3/002549_2014-06-24_13-41-39_094959634447_rgbf000022-resize_3-target.png,depth_discrimination_stimuli/001136_2014-06-17_15-19-41_260595134347_rgbf000076-resize_3/001136_2014-06-17_15-19-41_260595134347_rgbf000076-resize_3-target.png,250,1.476,1.8655,0,1160,503,254,1008,236,504,,,,,,905471,1227234,35
983483,DepthScenes,v2_duration_discrimination,discrim_jsons/shuffled_g0_dr.json,http://54.211.221.249/DepthDuration/v2_depth_discrimination_MTurk/v2_DepthDiscrim_HTML.html#1,1,1368,769,1368,912,8-2-2021,8-40-25,28,depth_discrimination_stimuli/003490_2014-05-21_15-50-11_094959634447_rgbf000101-resize_3/003490_2014-05-21_15-50-11_094959634447_rgbf000101-resize_3-target.png,depth_discrimination_stimuli/000866_2014-06-09_20-45-42_260595134347_rgbf000139-resize_1/000866_2014-06-09_20-45-42_260595134347_rgbf000139-resize_1-target.png,250,3.6445,3.2155,1,1453,514,237,1012,238,505,,,,,,905471,1227234,35
983483,DepthScenes,v2_duration_discrimination,discrim_jsons/shuffled_g0_dr.json,http://54.211.221.249/DepthDuration/v2_depth_discrimination_MTurk/v2_DepthDiscrim_HTML.html#1,1,1368,769,1368,912,8-2-2021,8-40-25,29,depth_discrimination_stimuli/003292_2014-05-14_21-53-49_094959634447_rgbf000100-resize_2/003292_2014-05-14_21-53-49_094959634447_rgbf000100-resize_2-target.png,depth_discrimination_stimuli/000542_2014-06-08_18-27-08_260595134347_rgbf000118-resize_1/000542_2014-06-08_18-27-08_260595134347_rgbf000118-resize_1-target.png,250,3.4815,3,0,1408,506,253,1007,236,503,,,,,,905471,1227234,35
983483,DepthScenes,v2_duration_discrimination,discrim_jsons/shuffled_g0_dr.json,http://54.211.221.249/DepthDuration/v2_depth_discrimination_MTurk/v2_DepthDiscrim_HTML.html#1,1,1368,769,1368,912,8-2-2021,8-40-25,30,depth_discrimination_stimuli/002072_2014-06-24_21-48-06_260595134347_rgbf000115-resize_0/002072_2014-06-24_21-48-06_260595134347_rgbf000115-resize_0-target.png,depth_discrimination_stimuli/001012_2014-06-08_23-19-38_260595134347_rgbf000057-resize_0/001012_2014-06-08_23-19-38_260595134347_rgbf000057-resize_0-target.png,250,4.702,1.38325,1,1747,504,252,1008,250,490,,,,,,905471,1227234,35
983483,DepthScenes,v2_duration_discrimination,discrim_jsons/shuffled_g0_dr.json,http://54.211.221.249/DepthDuration/v2_depth_discrimination_MTurk/v2_DepthDiscrim_HTML.html#1,1,1368,769,1368,912,8-2-2021,8-40-25,31,depth_discrimination_stimuli/000927_2014-06-09_16-32-30_260595134347_rgbf000123-resize_3/000927_2014-06-09_16-32-30_260595134347_rgbf000123-resize_3-target.png,depth_discrimination_stimuli/002678_2014-06-13_16-15-32_094959634447_rgbf000151-resize_6/002678_2014-06-13_16-15-32_094959634447_rgbf000151-resize_6-target.png,1000,2.6785,2.183,1,2524,506,1007,991,1009,487,,,,,,905471,1227234,35
983483,DepthScenes,v2_duration_discrimination,discrim_jsons/shuffled_g0_dr.json,http://54.211.221.249/DepthDuration/v2_depth_discrimination_MTurk/v2_DepthDiscrim_HTML.html#1,1,1368,769,1368,912,8-2-2021,8-40-25,32,depth_discrimination_stimuli/002660_2014-06-13_15-44-18_094959634447_rgbf001878-resize_2/002660_2014-06-13_15-44-18_094959634447_rgbf001878-resize_2-target.png,depth_discrimination_stimuli/003081_2014-06-15_15-19-16_094959634447_rgbf000150-resize_1/003081_2014-06-15_15-19-16_094959634447_rgbf000150-resize_1-target.png,250,3.576,3.9125,0,2343,504,252,1008,252,491,,,,,,905471,1227234,35
983483,DepthScenes,v2_duration_discrimination,discrim_jsons/shuffled_g0_dr.json,http://54.211.221.249/DepthDuration/v2_depth_discrimination_MTurk/v2_DepthDiscrim_HTML.html#1,1,1368,769,1368,912,8-2-2021,8-40-25,33,depth_discrimination_stimuli/001158_2014-06-17_15-32-16_260595134347_rgbf000138-resize_2/001158_2014-06-17_15-32-16_260595134347_rgbf000138-resize_2-target.png,depth_discrimination_stimuli/001181_2014-06-17_15-50-57_260595134347_rgbf000106-resize_4/001181_2014-06-17_15-50-57_260595134347_rgbf000106-resize_4-target.png,1000,4.5315,4.149,0,2538,512,997,1005,998,490,,,,,,905471,1227234,35
983483,DepthScenes,v2_duration_discrimination,discrim_jsons/shuffled_g0_dr.json,http://54.211.221.249/DepthDuration/v2_depth_discrimination_MTurk/v2_DepthDiscrim_HTML.html#1,1,1368,769,1368,912,8-2-2021,8-40-25,34,depth_discrimination_stimuli/002467_2014-06-28_20-38-07_260595134347_rgbf000026-resize_2/002467_2014-06-28_20-38-07_260595134347_rgbf000026-resize_2-target.png,depth_discrimination_stimuli/001133_2014-06-17_14-49-16_260595134347_rgbf000100-resize_0/001133_2014-06-17_14-49-16_260595134347_rgbf000100-resize_0-target.png,1000,4.742,4.2115,1,2098,513,998,992,1006,502,,,,,,905471,1227234,35
983483,DepthScenes,v2_duration_discrimination,discrim_jsons/shuffled_g0_dr.json,http://54.211.221.249/DepthDuration/v2_depth_discrimination_MTurk/v2_DepthDiscrim_HTML.html#1,1,1368,769,1368,912,8-2-2021,8-40-25,35,depth_discrimination_stimuli/001170_2014-06-17_15-43-44_260595134347_rgbf000096-resize_6/001170_2014-06-17_15-43-44_260595134347_rgbf000096-resize_6-target.png,depth_discrimination_stimuli/002364_2014-06-28_20-11-05_260595134347_rgbf000042-resize_0/002364_2014-06-28_20-11-05_260595134347_rgbf000042-resize_0-target.png,250,1.191,4.682,0,1798,511,250,993,253,504,,,,,,905471,1227234,35
983483,DepthScenes,v2_duration_discrimination,discrim_jsons/shuffled_g0_dr.json,http://54.211.221.249/DepthDuration/v2_depth_discrimination_MTurk/v2_DepthDiscrim_HTML.html#1,1,1368,769,1368,912,8-2-2021,8-40-25,36,depth_discrimination_stimuli/003423_2014-05-21_10-23-26_094959634447_rgbf002665-resize_2/003423_2014-05-21_10-23-26_094959634447_rgbf002665-resize_2-target.png,depth_discrimination_stimuli/000137_2014-05-20_17-04-49_260595134347_rgbf000120-resize_1/000137_2014-05-20_17-04-49_260595134347_rgbf000120-resize_1-target.png,1000,3.2575,3.786,1,2166,507,997,999,1007,503,,,,,,905471,1227234,35
983483,DepthScenes,v2_duration_discrimination,discrim_jsons/shuffled_g0_dr.json,http://54.211.221.249/DepthDuration/v2_depth_discrimination_MTurk/v2_DepthDiscrim_HTML.html#1,1,1368,769,1368,912,8-2-2021,8-40-25,37,depth_discrimination_stimuli/001197_2014-06-17_16-01-50_260595134347_rgbf000103-resize_4/001197_2014-06-17_16-01-50_260595134347_rgbf000103-resize_4-target.png,depth_discrimination_stimuli/001235_2014-06-17_16-37-36_260595134347_rgbf000084-resize_4/001235_2014-06-17_16-37-36_260595134347_rgbf000084-resize_4-target.png,1000,3.4025,3.6605,1,2139,502,1010,996,1002,492,,,,,,905471,1227234,35
983483,DepthScenes,v2_duration_discrimination,discrim_jsons/shuffled_g0_dr.json,http://54.211.221.249/DepthDuration/v2_depth_discrimination_MTurk/v2_DepthDiscrim_HTML.html#1,1,1368,769,1368,912,8-2-2021,8-40-25,38,depth_discrimination_stimuli/003395_2014-05-20_15-39-18_094959634447_rgbf000101-resize_0/003395_2014-05-20_15-39-18_094959634447_rgbf000101-resize_0-target.png,depth_discrimination_stimuli/001540_2014-06-20_17-01-05_260595134347_rgbf000086-resize_2/001540_2014-06-20_17-01-05_260595134347_rgbf000086-resize_2-target.png,1000,4.835,1.459,1,1871,511,992,1013,997,491,,,,,,905471,1227234,35
983483,DepthScenes,v2_duration_discrimination,discrim_jsons/shuffled_g0_dr.json,http://54.211.221.249/DepthDuration/v2_depth_discrimination_MTurk/v2_DepthDiscrim_HTML.html#1,1,1368,769,1368,912,8-2-2021,8-40-25,39,depth_discrimination_stimuli/001808_2014-06-26_20-50-58_260595134347_rgbf000029-resize_1/001808_2014-06-26_20-50-58_260595134347_rgbf000029-resize_1-target.png,depth_discrimination_stimuli/002748_2014-06-22_19-07-22_094959634447_rgbf000078-resize_1/002748_2014-06-22_19-07-22_094959634447_rgbf000078-resize_1-target.png,1000,4.249,4.6705,0,1948,503,1010,994,992,504,,,,,,905471,1227234,35
983483,DepthScenes,v2_duration_discrimination,discrim_jsons/shuffled_g0_dr.json,http://54.211.221.249/DepthDuration/v2_depth_discrimination_MTurk/v2_DepthDiscrim_HTML.html#1,1,1368,769,1368,912,8-2-2021,8-40-25,40,depth_discrimination_stimuli/002323_2014-06-28_20-01-54_260595134347_rgbf000051-resize_4/002323_2014-06-28_20-01-54_260595134347_rgbf000051-resize_4-target.png,depth_discrimination_stimuli/001032_2014-06-08_13-23-17_260595134347_rgbf000021-resize_3/001032_2014-06-08_13-23-17_260595134347_rgbf000021-resize_3-target.png,1000,3.731,3.2725,1,2090,511,993,1007,992,505,,,,,,905471,1227234,35
983483,DepthScenes,v2_duration_discrimination,discrim_jsons/shuffled_g0_dr.json,http://54.211.221.249/DepthDuration/v2_depth_discrimination_MTurk/v2_DepthDiscrim_HTML.html#1,1,1368,769,1368,912,8-2-2021,8-40-25,40,,,,,,,2090,511,993,1007,992,505,,,,,,905471,1227234,35
983483,DepthScenes,v2_duration_discrimination,discrim_jsons/shuffled_g0_dr.json,http://54.211.221.249/DepthDuration/v2_depth_discrimination_MTurk/v2_DepthDiscrim_HTML.html#1,1,1351,769,1368,912,8-2-2021,8-40-25,42,,,,,,,2090,511,993,1007,992,505,,2,4,depth_discrimination_stimuli/002039_2014-06-24_20-22-38_260595134347_rgbf000084-resize_1/002039_2014-06-24_20-22-38_260595134347_rgbf000084-resize-original.jpg,16488,905471,1227234,35
983483,DepthScenes,v2_duration_discrimination,discrim_jsons/shuffled_g0_dr.json,http://54.211.221.249/DepthDuration/v2_depth_discrimination_MTurk/v2_DepthDiscrim_HTML.html#1,1,1351,769,1368,912,8-2-2021,8-40-25,43,,,,,,,2090,511,993,1007,992,505,,1,4,depth_discrimination_stimuli/001555_2014-06-20_17-12-10_260595134347_rgbf000065-resize_4/001555_2014-06-20_17-12-10_260595134347_rgbf000065-resize-original.jpg,10625,905471,1227234,35
983483,DepthScenes,v2_duration_discrimination,discrim_jsons/shuffled_g0_dr.json,http://54.211.221.249/DepthDuration/v2_depth_discrimination_MTurk/v2_DepthDiscrim_HTML.html#1,1,1351,769,1368,912,8-2-2021,8-40-25,44,,,,,,,2090,511,993,1007,992,505,,3,3,depth_discrimination_stimuli/002467_2014-06-28_20-38-07_260595134347_rgbf000026-resize_2/002467_2014-06-28_20-38-07_260595134347_rgbf000026-resize-original.jpg,5488,905471,1227234,35
983483,DepthScenes,v2_duration_discrimination,discrim_jsons/shuffled_g0_dr.json,http://54.211.221.249/DepthDuration/v2_depth_discrimination_MTurk/v2_DepthDiscrim_HTML.html#1,1,1351,769,1368,912,8-2-2021,8-40-25,45,,,,,,,2090,511,993,1007,992,505,,2,3,depth_discrimination_stimuli/002790_2014-06-22_19-36-35_094959634447_rgbf000074-resize_4/002790_2014-06-22_19-36-35_094959634447_rgbf000074-resize-original.jpg,5004,905471,1227234,35
983483,DepthScenes,v2_duration_discrimination,discrim_jsons/shuffled_g0_dr.json,http://54.211.221.249/DepthDuration/v2_depth_discrimination_MTurk/v2_DepthDiscrim_HTML.html#1,1,1351,769,1368,912,8-2-2021,8-40-25,46,,,,,,,2090,511,993,1007,992,505,,2,3,depth_discrimination_stimuli/001016_2014-06-09_16-16-10_260595134347_rgbf000112-resize_5/001016_2014-06-09_16-16-10_260595134347_rgbf000112-resize-original.jpg,3497,905471,1227234,35
983483,DepthScenes,v2_duration_discrimination,discrim_jsons/shuffled_g0_dr.json,http://54.211.221.249/DepthDuration/v2_depth_discrimination_MTurk/v2_DepthDiscrim_HTML.html#1,1,1351,769,1368,912,8-2-2021,8-40-25,47,,,,,,,2090,511,993,1007,992,505,,3,3,depth_discrimination_stimuli/002663_2014-06-13_15-50-26_094959634447_rgbf000075-resize_1/002663_2014-06-13_15-50-26_094959634447_rgbf000075-resize-original.jpg,7238,905471,1227234,35
983483,DepthScenes,v2_duration_discrimination,discrim_jsons/shuffled_g0_dr.json,http://54.211.221.249/DepthDuration/v2_depth_discrimination_MTurk/v2_DepthDiscrim_HTML.html#1,1,1351,769,1368,912,8-2-2021,8-40-25,48,,,,,,,2090,511,993,1007,992,505,,3,3,depth_discrimination_stimuli/001199_2014-06-17_16-03-48_260595134347_rgbf000077-resize_0/001199_2014-06-17_16-03-48_260595134347_rgbf000077-resize-original.jpg,4154,905471,1227234,35
983483,DepthScenes,v2_duration_discrimination,discrim_jsons/shuffled_g0_dr.json,http://54.211.221.249/DepthDuration/v2_depth_discrimination_MTurk/v2_DepthDiscrim_HTML.html#1,1,1351,769,1368,912,8-2-2021,8-40-25,49,,,,,,,2090,511,993,1007,992,505,,3,2,depth_discrimination_stimuli/003338_2014-05-20_11-01-23_094959634447_rgbf000051-resize_6/003338_2014-05-20_11-01-23_094959634447_rgbf000051-resize-original.jpg,3575,905471,1227234,35
983483,DepthScenes,v2_duration_discrimination,discrim_jsons/shuffled_g0_dr.json,http://54.211.221.249/DepthDuration/v2_depth_discrimination_MTurk/v2_DepthDiscrim_HTML.html#1,1,1351,769,1368,912,8-2-2021,8-40-25,50,,,,,,,2090,511,993,1007,992,505,,4,3,depth_discrimination_stimuli/003423_2014-05-21_10-23-26_094959634447_rgbf002665-resize_2/003423_2014-05-21_10-23-26_094959634447_rgbf002665-resize-original.jpg,8603,905471,1227234,35
983483,DepthScenes,v2_duration_discrimination,discrim_jsons/shuffled_g0_dr.json,http://54.211.221.249/DepthDuration/v2_depth_discrimination_MTurk/v2_DepthDiscrim_HTML.html#1,1,1351,769,1368,912,8-2-2021,8-40-25,51,,,,,,,2090,511,993,1007,992,505,,3,4,depth_discrimination_stimuli/001392_2014-06-19_16-07-59_260595134347_rgbf000046-resize_1/001392_2014-06-19_16-07-59_260595134347_rgbf000046-resize-original.jpg,6746,905471,1227234,35
983483,DepthScenes,v2_duration_discrimination,discrim_jsons/shuffled_g0_dr.json,http://54.211.221.249/DepthDuration/v2_depth_discrimination_MTurk/v2_DepthDiscrim_HTML.html#1,1,1351,769,1368,912,8-2-2021,8-40-25,52,,,,,,,2090,511,993,1007,992,505,,3,3,depth_discrimination_stimuli/001450_2014-06-19_17-02-03_260595134347_rgbf000203-resize_4/001450_2014-06-19_17-02-03_260595134347_rgbf000203-resize-original.jpg,3810,905471,1227234,35
983483,DepthScenes,v2_duration_discrimination,discrim_jsons/shuffled_g0_dr.json,http://54.211.221.249/DepthDuration/v2_depth_discrimination_MTurk/v2_DepthDiscrim_HTML.html#1,1,1351,769,1368,912,8-2-2021,8-40-25,53,,,,,,,2090,511,993,1007,992,505,,3,2,depth_discrimination_stimuli/000521_2014-06-08_13-34-35_260595134347_rgbf000191-resize_2/000521_2014-06-08_13-34-35_260595134347_rgbf000191-resize-original.jpg,6464,905471,1227234,35
983483,DepthScenes,v2_duration_discrimination,discrim_jsons/shuffled_g0_dr.json,http://54.211.221.249/DepthDuration/v2_depth_discrimination_MTurk/v2_DepthDiscrim_HTML.html#1,1,1351,769,1368,912,8-2-2021,8-40-25,54,,,,,,,2090,511,993,1007,992,505,,3,3,depth_discrimination_stimuli/002340_2014-06-28_20-05-46_260595134347_rgbf000113-resize_0/002340_2014-06-28_20-05-46_260595134347_rgbf000113-resize-original.jpg,2500,905471,1227234,35
983483,DepthScenes,v2_duration_discrimination,discrim_jsons/shuffled_g0_dr.json,http://54.211.221.249/DepthDuration/v2_depth_discrimination_MTurk/v2_DepthDiscrim_HTML.html#1,1,1351,769,1368,912,8-2-2021,8-40-25,55,,,,,,,2090,511,993,1007,992,505,,4,3,depth_discrimination_stimuli/001264_2014-06-16_16-10-23_260595134347_rgbf000109-resize_1/001264_2014-06-16_16-10-23_260595134347_rgbf000109-resize-original.jpg,6191,905471,1227234,35
983483,DepthScenes,v2_duration_discrimination,discrim_jsons/shuffled_g0_dr.json,http://54.211.221.249/DepthDuration/v2_depth_discrimination_MTurk/v2_DepthDiscrim_HTML.html#1,1,1351,769,1368,912,8-2-2021,8-40-25,56,,,,,,,2090,511,993,1007,992,505,,4,2,depth_discrimination_stimuli/002323_2014-06-28_20-01-54_260595134347_rgbf000051-resize_4/002323_2014-06-28_20-01-54_260595134347_rgbf000051-resize-original.jpg,9041,905471,1227234,35
983483,DepthScenes,v2_duration_discrimination,discrim_jsons/shuffled_g0_dr.json,http://54.211.221.249/DepthDuration/v2_depth_discrimination_MTurk/v2_DepthDiscrim_HTML.html#1,1,1351,769,1368,912,8-2-2021,8-40-25,57,,,,,,,2090,511,993,1007,992,505,,4,3,depth_discrimination_stimuli/001133_2014-06-17_14-49-16_260595134347_rgbf000100-resize_0/001133_2014-06-17_14-49-16_260595134347_rgbf000100-resize-original.jpg,3067,905471,1227234,35
983483,DepthScenes,v2_duration_discrimination,discrim_jsons/shuffled_g0_dr.json,http://54.211.221.249/DepthDuration/v2_depth_discrimination_MTurk/v2_DepthDiscrim_HTML.html#1,1,1351,769,1368,912,8-2-2021,8-40-25,58,,,,,,,2090,511,993,1007,992,505,,4,3,depth_discrimination_stimuli/002199_2014-06-28_18-33-56_260595134347_rgbf000074-resize_0/002199_2014-06-28_18-33-56_260595134347_rgbf000074-resize-original.jpg,5287,905471,1227234,35
983483,DepthScenes,v2_duration_discrimination,discrim_jsons/shuffled_g0_dr.json,http://54.211.221.249/DepthDuration/v2_depth_discrimination_MTurk/v2_DepthDiscrim_HTML.html#1,1,1351,769,1368,912,8-2-2021,8-40-25,59,,,,,,,2090,511,993,1007,992,505,,3,2,depth_discrimination_stimuli/002460_2014-06-28_20-35-43_260595134347_rgbf000028-resize_4/002460_2014-06-28_20-35-43_260595134347_rgbf000028-resize-original.jpg,5308,905471,1227234,35
983483,DepthScenes,v2_duration_discrimination,discrim_jsons/shuffled_g0_dr.json,http://54.211.221.249/DepthDuration/v2_depth_discrimination_MTurk/v2_DepthDiscrim_HTML.html#1,1,1351,769,1368,912,8-2-2021,8-40-25,60,,,,,,,2090,511,993,1007,992,505,,3,3,depth_discrimination_stimuli/000009_2014-05-26_14-32-05_260595134347_rgbf000034-resize_3/000009_2014-05-26_14-32-05_260595134347_rgbf000034-resize-original.jpg,3201,905471,1227234,35
983483,DepthScenes,v2_duration_discrimination,discrim_jsons/shuffled_g0_dr.json,http://54.211.221.249/DepthDuration/v2_depth_discrimination_MTurk/v2_DepthDiscrim_HTML.html#1,1,1351,769,1368,912,8-2-2021,8-40-25,61,,,,,,,2090,511,993,1007,992,505,,2,3,depth_discrimination_stimuli/002750_2014-06-22_19-08-03_094959634447_rgbf000094-resize_4/002750_2014-06-22_19-08-03_094959634447_rgbf000094-resize-original.jpg,5068,905471,1227234,35
983483,DepthScenes,v2_duration_discrimination,discrim_jsons/shuffled_g0_dr.json,http://54.211.221.249/DepthDuration/v2_depth_discrimination_MTurk/v2_DepthDiscrim_HTML.html#1,1,1351,769,1368,912,8-2-2021,8-40-25,62,,,,,,,2090,511,993,1007,992,505,,2,4,depth_discrimination_stimuli/000409_2014-06-04_19-23-33_260595134347_rgbf000067-resize_0/000409_2014-06-04_19-23-33_260595134347_rgbf000067-resize-original.jpg,7559,905471,1227234,35
983483,DepthScenes,v2_duration_discrimination,discrim_jsons/shuffled_g0_dr.json,http://54.211.221.249/DepthDuration/v2_depth_discrimination_MTurk/v2_DepthDiscrim_HTML.html#1,1,1351,769,1368,912,8-2-2021,8-40-25,63,,,,,,,2090,511,993,1007,992,505,,3,3,depth_discrimination_stimuli/001150_2014-06-17_15-27-34_260595134347_rgbf000108-resize_2/001150_2014-06-17_15-27-34_260595134347_rgbf000108-resize-original.jpg,3046,905471,1227234,35
983483,DepthScenes,v2_duration_discrimination,discrim_jsons/shuffled_g0_dr.json,http://54.211.221.249/DepthDuration/v2_depth_discrimination_MTurk/v2_DepthDiscrim_HTML.html#1,1,1351,769,1368,912,8-2-2021,8-40-25,64,,,,,,,2090,511,993,1007,992,505,,2,3,depth_discrimination_stimuli/000636_2014-06-08_16-39-02_260595134347_rgbf000108-resize_4/000636_2014-06-08_16-39-02_260595134347_rgbf000108-resize-original.jpg,3277,905471,1227234,35
983483,DepthScenes,v2_duration_discrimination,discrim_jsons/shuffled_g0_dr.json,http://54.211.221.249/DepthDuration/v2_depth_discrimination_MTurk/v2_DepthDiscrim_HTML.html#1,1,1351,769,1368,912,8-2-2021,8-40-25,65,,,,,,,2090,511,993,1007,992,505,,2,2,depth_discrimination_stimuli/000866_2014-06-09_20-45-42_260595134347_rgbf000139-resize_1/000866_2014-06-09_20-45-42_260595134347_rgbf000139-resize-original.jpg,4453,905471,1227234,35
983483,DepthScenes,v2_duration_discrimination,discrim_jsons/shuffled_g0_dr.json,http://54.211.221.249/DepthDuration/v2_depth_discrimination_MTurk/v2_DepthDiscrim_HTML.html#1,1,1351,769,1368,912,8-2-2021,8-40-25,66,,,,,,,2090,511,993,1007,992,505,,4,3,depth_discrimination_stimuli/001724_2014-06-26_19-28-50_260595134347_rgbf000037-resize_7/001724_2014-06-26_19-28-50_260595134347_rgbf000037-resize-original.jpg,3739,905471,1227234,35
983483,DepthScenes,v2_duration_discrimination,discrim_jsons/shuffled_g0_dr.json,http://54.211.221.249/DepthDuration/v2_depth_discrimination_MTurk/v2_DepthDiscrim_HTML.html#1,1,1351,769,1368,912,8-2-2021,8-40-25,67,,,,,,,2090,511,993,1007,992,505,,3,3,depth_discrimination_stimuli/002209_2014-06-28_18-36-10_260595134347_rgbf000051-resize_1/002209_2014-06-28_18-36-10_260595134347_rgbf000051-resize-original.jpg,2646,905471,1227234,35
983483,DepthScenes,v2_duration_discrimination,discrim_jsons/shuffled_g0_dr.json,http://54.211.221.249/DepthDuration/v2_depth_discrimination_MTurk/v2_DepthDiscrim_HTML.html#1,1,1351,769,1368,912,8-2-2021,8-40-25,68,,,,,,,2090,511,993,1007,992,505,,3,2,depth_discrimination_stimuli/002788_2014-06-22_19-36-03_094959634447_rgbf000088-resize_2/002788_2014-06-22_19-36-03_094959634447_rgbf000088-resize-original.jpg,3122,905471,1227234,35
983483,DepthScenes,v2_duration_discrimination,discrim_jsons/shuffled_g0_dr.json,http://54.211.221.249/DepthDuration/v2_depth_discrimination_MTurk/v2_DepthDiscrim_HTML.html#1,1,1351,769,1368,912,8-2-2021,8-40-25,69,,,,,,,2090,511,993,1007,992,505,,2,2,depth_discrimination_stimuli/002549_2014-06-24_13-41-39_094959634447_rgbf000022-resize_3/002549_2014-06-24_13-41-39_094959634447_rgbf000022-resize-original.jpg,4367,905471,1227234,35
983483,DepthScenes,v2_duration_discrimination,discrim_jsons/shuffled_g0_dr.json,http://54.211.221.249/DepthDuration/v2_depth_discrimination_MTurk/v2_DepthDiscrim_HTML.html#1,1,1351,769,1368,912,8-2-2021,8-40-25,70,,,,,,,2090,511,993,1007,992,505,,2,3,depth_discrimination_stimuli/001164_2014-06-17_15-35-46_260595134347_rgbf000085-resize_3/001164_2014-06-17_15-35-46_260595134347_rgbf000085-resize-original.jpg,3731,905471,1227234,35
983483,DepthScenes,v2_duration_discrimination,discrim_jsons/shuffled_g0_dr.json,http://54.211.221.249/DepthDuration/v2_depth_discrimination_MTurk/v2_DepthDiscrim_HTML.html#1,1,1351,769,1368,912,8-2-2021,8-40-25,71,,,,,,,2090,511,993,1007,992,505,,3,3,depth_discrimination_stimuli/003534_2014-05-22_15-06-10_094959634447_rgbf000102-resize_4/003534_2014-05-22_15-06-10_094959634447_rgbf000102-resize-original.jpg,3270,905471,1227234,35
983483,DepthScenes,v2_duration_discrimination,discrim_jsons/shuffled_g0_dr.json,http://54.211.221.249/DepthDuration/v2_depth_discrimination_MTurk/v2_DepthDiscrim_HTML.html#1,1,1351,769,1368,912,8-2-2021,8-40-25,72,,,,,,,2090,511,993,1007,992,505,,3,3,depth_discrimination_stimuli/001052_2014-06-08_18-24-54_260595134347_rgbf000130-resize_1/001052_2014-06-08_18-24-54_260595134347_rgbf000130-resize-original.jpg,4185,905471,1227234,35
983483,DepthScenes,v2_duration_discrimination,discrim_jsons/shuffled_g0_dr.json,http://54.211.221.249/DepthDuration/v2_depth_discrimination_MTurk/v2_DepthDiscrim_HTML.html#1,1,1351,769,1368,912,8-2-2021,8-40-25,73,,,,,,,2090,511,993,1007,992,505,,2,3,depth_discrimination_stimuli/001197_2014-06-17_16-01-50_260595134347_rgbf000103-resize_4/001197_2014-06-17_16-01-50_260595134347_rgbf000103-resize-original.jpg,3661,905471,1227234,35
983483,DepthScenes,v2_duration_discrimination,discrim_jsons/shuffled_g0_dr.json,http://54.211.221.249/DepthDuration/v2_depth_discrimination_MTurk/v2_DepthDiscrim_HTML.html#1,1,1351,769,1368,912,8-2-2021,8-40-25,74,,,,,,,2090,511,993,1007,992,505,,3,3,depth_discrimination_stimuli/002153_2014-06-25_21-27-18_260595134347_rgbf000038-resize_5/002153_2014-06-25_21-27-18_260595134347_rgbf000038-resize-original.jpg,1701,905471,1227234,35
983483,DepthScenes,v2_duration_discrimination,discrim_jsons/shuffled_g0_dr.json,http://54.211.221.249/DepthDuration/v2_depth_discrimination_MTurk/v2_DepthDiscrim_HTML.html#1,1,1351,769,1368,912,8-2-2021,8-40-25,75,,,,,,,2090,511,993,1007,992,505,,3,3,depth_discrimination_stimuli/000191_2014-05-12_17-07-38_260595134347_rgbf000199-resize_0/000191_2014-05-12_17-07-38_260595134347_rgbf000199-resize-original.jpg,5160,905471,1227234,35
983483,DepthScenes,v2_duration_discrimination,discrim_jsons/shuffled_g0_dr.json,http://54.211.221.249/DepthDuration/v2_depth_discrimination_MTurk/v2_DepthDiscrim_HTML.html#1,1,1351,769,1368,912,8-2-2021,8-40-25,76,,,,,,,2090,511,993,1007,992,505,,3,3,depth_discrimination_stimuli/000810_2014-06-08_17-20-01_260595134347_rgbf000105-resize_0/000810_2014-06-08_17-20-01_260595134347_rgbf000105-resize-original.jpg,1522,905471,1227234,35
983483,DepthScenes,v2_duration_discrimination,discrim_jsons/shuffled_g0_dr.json,http://54.211.221.249/DepthDuration/v2_depth_discrimination_MTurk/v2_DepthDiscrim_HTML.html#1,1,1351,769,1368,912,8-2-2021,8-40-25,77,,,,,,,2090,511,993,1007,992,505,,3,3,depth_discrimination_stimuli/003079_2014-06-15_15-18-20_094959634447_rgbf000152-resize_8/003079_2014-06-15_15-18-20_094959634447_rgbf000152-resize-original.jpg,1390,905471,1227234,35
983483,DepthScenes,v2_duration_discrimination,discrim_jsons/shuffled_g0_dr.json,http://54.211.221.249/DepthDuration/v2_depth_discrimination_MTurk/v2_DepthDiscrim_HTML.html#1,1,1351,769,1368,912,8-2-2021,8-40-25,78,,,,,,,2090,511,993,1007,992,505,,4,3,depth_discrimination_stimuli/000709_2014-06-08_13-51-55_260595134347_rgbf000068-resize_3/000709_2014-06-08_13-51-55_260595134347_rgbf000068-resize-original.jpg,3786,905471,1227234,35
983483,DepthScenes,v2_duration_discrimination,discrim_jsons/shuffled_g0_dr.json,http://54.211.221.249/DepthDuration/v2_depth_discrimination_MTurk/v2_DepthDiscrim_HTML.html#1,1,1351,769,1368,912,8-2-2021,8-40-25,79,,,,,,,2090,511,993,1007,992,505,,3,3,depth_discrimination_stimuli/002949_2014-06-26_15-57-42_094959634447_rgbf000079-resize_1/002949_2014-06-26_15-57-42_094959634447_rgbf000079-resize-original.jpg,6948,905471,1227234,35
983483,DepthScenes,v2_duration_discrimination,discrim_jsons/shuffled_g0_dr.json,http://54.211.221.249/DepthDuration/v2_depth_discrimination_MTurk/v2_DepthDiscrim_HTML.html#1,1,1351,769,1368,912,8-2-2021,8-40-25,80,,,,,,,2090,511,993,1007,992,505,,2,2,depth_discrimination_stimuli/001235_2014-06-17_16-37-36_260595134347_rgbf000084-resize_4/001235_2014-06-17_16-37-36_260595134347_rgbf000084-resize-original.jpg,3348,905471,1227234,35
983483,DepthScenes,v2_duration_discrimination,discrim_jsons/shuffled_g0_dr.json,http://54.211.221.249/DepthDuration/v2_depth_discrimination_MTurk/v2_DepthDiscrim_HTML.html#1,1,1351,769,1368,912,8-2-2021,8-40-25,81,,,,,,,2090,511,993,1007,992,505,,3,3,depth_discrimination_stimuli/001094_2014-06-15_17-36-00_260595134347_rgbf000205-resize_0/001094_2014-06-15_17-36-00_260595134347_rgbf000205-resize-original.jpg,2546,905471,1227234,35
983483,DepthScenes,v2_duration_discrimination,discrim_jsons/shuffled_g0_dr.json,http://54.211.221.249/DepthDuration/v2_depth_discrimination_MTurk/v2_DepthDiscrim_HTML.html#1,1,1351,769,1368,912,8-2-2021,8-40-25,82,,,,,,,2090,511,993,1007,992,505,,4,3,depth_discrimination_stimuli/002600_2014-06-24_14-27-04_094959634447_rgbf000074-resize_2/002600_2014-06-24_14-27-04_094959634447_rgbf000074-resize-original.jpg,2215,905471,1227234,35
983483,DepthScenes,v2_duration_discrimination,discrim_jsons/shuffled_g0_dr.json,http://54.211.221.249/DepthDuration/v2_depth_discrimination_MTurk/v2_DepthDiscrim_HTML.html#1,1,1351,769,1368,912,8-2-2021,8-40-25,83,,,,,,,2090,511,993,1007,992,505,,4,3,depth_discrimination_stimuli/000736_2014-06-08_18-24-15_260595134347_rgbf000206-resize_3/000736_2014-06-08_18-24-15_260595134347_rgbf000206-resize-original.jpg,2044,905471,1227234,35
983483,DepthScenes,v2_duration_discrimination,discrim_jsons/shuffled_g0_dr.json,http://54.211.221.249/DepthDuration/v2_depth_discrimination_MTurk/v2_DepthDiscrim_HTML.html#1,1,1351,769,1368,912,8-2-2021,8-40-25,84,,,,,,,2090,511,993,1007,992,505,,3,3,depth_discrimination_stimuli/002043_2014-06-24_20-29-38_260595134347_rgbf000039-resize_4/002043_2014-06-24_20-29-38_260595134347_rgbf000039-resize-original.jpg,1992,905471,1227234,35
983483,DepthScenes,v2_duration_discrimination,discrim_jsons/shuffled_g0_dr.json,http://54.211.221.249/DepthDuration/v2_depth_discrimination_MTurk/v2_DepthDiscrim_HTML.html#1,1,1351,769,1368,912,8-2-2021,8-40-25,85,,,,,,,2090,511,993,1007,992,505,,2,3,depth_discrimination_stimuli/001618_2014-06-20_11-37-31_260595134347_rgbf000027-resize_3/001618_2014-06-20_11-37-31_260595134347_rgbf000027-resize-original.jpg,3240,905471,1227234,35
983483,DepthScenes,v2_duration_discrimination,discrim_jsons/shuffled_g0_dr.json,http://54.211.221.249/DepthDuration/v2_depth_discrimination_MTurk/v2_DepthDiscrim_HTML.html#1,1,1351,769,1368,912,8-2-2021,8-40-25,86,,,,,,,2090,511,993,1007,992,505,,3,3,depth_discrimination_stimuli/001570_2014-06-20_17-21-09_260595134347_rgbf000135-resize_4/001570_2014-06-20_17-21-09_260595134347_rgbf000135-resize-original.jpg,1879,905471,1227234,35
983483,DepthScenes,v2_duration_discrimination,discrim_jsons/shuffled_g0_dr.json,http://54.211.221.249/DepthDuration/v2_depth_discrimination_MTurk/v2_DepthDiscrim_HTML.html#1,1,1351,769,1368,912,8-2-2021,8-40-25,87,,,,,,,2090,511,993,1007,992,505,,4,3,depth_discrimination_stimuli/002953_2014-06-08_17-32-18_094959634447_rgbf000059-resize_5/002953_2014-06-08_17-32-18_094959634447_rgbf000059-resize-original.jpg,2288,905471,1227234,35
983483,DepthScenes,v2_duration_discrimination,discrim_jsons/shuffled_g0_dr.json,http://54.211.221.249/DepthDuration/v2_depth_discrimination_MTurk/v2_DepthDiscrim_HTML.html#1,1,1351,769,1368,912,8-2-2021,8-40-25,88,,,,,,,2090,511,993,1007,992,505,,3,3,depth_discrimination_stimuli/002639_2014-06-24_14-51-37_094959634447_rgbf000074-resize_4/002639_2014-06-24_14-51-37_094959634447_rgbf000074-resize-original.jpg,4619,905471,1227234,35
983483,DepthScenes,v2_duration_discrimination,discrim_jsons/shuffled_g0_dr.json,http://54.211.221.249/DepthDuration/v2_depth_discrimination_MTurk/v2_DepthDiscrim_HTML.html#1,1,1351,769,1368,912,8-2-2021,8-40-25,89,,,,,,,2090,511,993,1007,992,505,,3,3,depth_discrimination_stimuli/000720_2014-06-08_18-37-27_260595134347_rgbf000203-resize_4/000720_2014-06-08_18-37-27_260595134347_rgbf000203-resize-original.jpg,1357,905471,1227234,35
983483,DepthScenes,v2_duration_discrimination,discrim_jsons/shuffled_g0_dr.json,http://54.211.221.249/DepthDuration/v2_depth_discrimination_MTurk/v2_DepthDiscrim_HTML.html#1,1,1351,769,1368,912,8-2-2021,8-40-25,90,,,,,,,2090,511,993,1007,992,505,,3,3,depth_discrimination_stimuli/001571_2014-06-20_17-21-32_260595134347_rgbf000089-resize_1/001571_2014-06-20_17-21-32_260595134347_rgbf000089-resize-original.jpg,1188,905471,1227234,35
983483,DepthScenes,v2_duration_discrimination,discrim_jsons/shuffled_g0_dr.json,http://54.211.221.249/DepthDuration/v2_depth_discrimination_MTurk/v2_DepthDiscrim_HTML.html#1,1,1351,769,1368,912,8-2-2021,8-40-25,91,,,,,,,2090,511,993,1007,992,505,,4,3,depth_discrimination_stimuli/003129_2014-05-12_10-48-10_094959634447_rgbf000100-resize_0/003129_2014-05-12_10-48-10_094959634447_rgbf000100-resize-original.jpg,1707,905471,1227234,35
983483,DepthScenes,v2_duration_discrimination,discrim_jsons/shuffled_g0_dr.json,http://54.211.221.249/DepthDuration/v2_depth_discrimination_MTurk/v2_DepthDiscrim_HTML.html#1,1,1351,769,1368,912,8-2-2021,8-40-25,92,,,,,,,2090,511,993,1007,992,505,,4,2,depth_discrimination_stimuli/000642_2014-06-08_16-59-25_260595134347_rgbf000098-resize_2/000642_2014-06-08_16-59-25_260595134347_rgbf000098-resize-original.jpg,3216,905471,1227234,35
983483,DepthScenes,v2_duration_discrimination,discrim_jsons/shuffled_g0_dr.json,http://54.211.221.249/DepthDuration/v2_depth_discrimination_MTurk/v2_DepthDiscrim_HTML.html#1,1,1351,769,1368,912,8-2-2021,8-40-25,93,,,,,,,2090,511,993,1007,992,505,,3,3,depth_discrimination_stimuli/002989_2014-06-15_12-25-03_094959634447_rgbf000150-resize_3/002989_2014-06-15_12-25-03_094959634447_rgbf000150-resize-original.jpg,2255,905471,1227234,35
983483,DepthScenes,v2_duration_discrimination,discrim_jsons/shuffled_g0_dr.json,http://54.211.221.249/DepthDuration/v2_depth_discrimination_MTurk/v2_DepthDiscrim_HTML.html#1,1,1351,769,1368,912,8-2-2021,8-40-25,94,,,,,,,2090,511,993,1007,992,505,,4,3,depth_discrimination_stimuli/000735_2014-06-08_18-23-50_260595134347_rgbf000163-resize_2/000735_2014-06-08_18-23-50_260595134347_rgbf000163-resize-original.jpg,1734,905471,1227234,35
983483,DepthScenes,v2_duration_discrimination,discrim_jsons/shuffled_g0_dr.json,http://54.211.221.249/DepthDuration/v2_depth_discrimination_MTurk/v2_DepthDiscrim_HTML.html#1,1,1351,769,1368,912,8-2-2021,8-40-25,95,,,,,,,2090,511,993,1007,992,505,,3,1,depth_discrimination_stimuli/001417_2014-06-19_16-25-36_260595134347_rgbf000115-resize_5/001417_2014-06-19_16-25-36_260595134347_rgbf000115-resize-original.jpg,8384,905471,1227234,35
983483,DepthScenes,v2_duration_discrimination,discrim_jsons/shuffled_g0_dr.json,http://54.211.221.249/DepthDuration/v2_depth_discrimination_MTurk/v2_DepthDiscrim_HTML.html#1,1,1351,769,1368,912,8-2-2021,8-40-25,96,,,,,,,2090,511,993,1007,992,505,,3,2,depth_discrimination_stimuli/003621_2014-05-23_18-06-08_094959634447_rgbf000101-resize_1/003621_2014-05-23_18-06-08_094959634447_rgbf000101-resize-original.jpg,3668,905471,1227234,35
983483,DepthScenes,v2_duration_discrimination,discrim_jsons/shuffled_g0_dr.json,http://54.211.221.249/DepthDuration/v2_depth_discrimination_MTurk/v2_DepthDiscrim_HTML.html#1,1,1351,769,1368,912,8-2-2021,8-40-25,97,,,,,,,2090,511,993,1007,992,505,,3,3,depth_discrimination_stimuli/002464_2014-06-28_20-36-57_260595134347_rgbf000029-resize_0/002464_2014-06-28_20-36-57_260595134347_rgbf000029-resize-original.jpg,1710,905471,1227234,35
983483,DepthScenes,v2_duration_discrimination,discrim_jsons/shuffled_g0_dr.json,http://54.211.221.249/DepthDuration/v2_depth_discrimination_MTurk/v2_DepthDiscrim_HTML.html#1,1,1351,769,1368,912,8-2-2021,8-40-25,98,,,,,,,2090,511,993,1007,992,505,,3,3,depth_discrimination_stimuli/003092_2014-06-24_21-01-49_094959634447_rgbf000049-resize_2/003092_2014-06-24_21-01-49_094959634447_rgbf000049-resize-original.jpg,8470,905471,1227234,35
983483,DepthScenes,v2_duration_discrimination,discrim_jsons/shuffled_g0_dr.json,http://54.211.221.249/DepthDuration/v2_depth_discrimination_MTurk/v2_DepthDiscrim_HTML.html#1,1,1351,769,1368,912,8-2-2021,8-40-25,99,,,,,,,2090,511,993,1007,992,505,,3,3,depth_discrimination_stimuli/002213_2014-06-28_18-37-58_260595134347_rgbf000055-resize_1/002213_2014-06-28_18-37-58_260595134347_rgbf000055-resize-original.jpg,1750,905471,1227234,35
983483,DepthScenes,v2_duration_discrimination,discrim_jsons/shuffled_g0_dr.json,http://54.211.221.249/DepthDuration/v2_depth_discrimination_MTurk/v2_DepthDiscrim_HTML.html#1,1,1351,769,1368,912,8-2-2021,8-40-25,100,,,,,,,2090,511,993,1007,992,505,,3,3,depth_discrimination_stimuli/000927_2014-06-09_16-32-30_260595134347_rgbf000123-resize_3/000927_2014-06-09_16-32-30_260595134347_rgbf000123-resize-original.jpg,2786,905471,1227234,35
983483,DepthScenes,v2_duration_discrimination,discrim_jsons/shuffled_g0_dr.json,http://54.211.221.249/DepthDuration/v2_depth_discrimination_MTurk/v2_DepthDiscrim_HTML.html#1,1,1351,769,1368,912,8-2-2021,8-40-25,101,,,,,,,2090,511,993,1007,992,505,,3,3,depth_discrimination_stimuli/003083_2014-06-15_15-21-03_094959634447_rgbf000063-resize_1/003083_2014-06-15_15-21-03_094959634447_rgbf000063-resize-original.jpg,2082,905471,1227234,35
983483,DepthScenes,v2_duration_discrimination,discrim_jsons/shuffled_g0_dr.json,http://54.211.221.249/DepthDuration/v2_depth_discrimination_MTurk/v2_DepthDiscrim_HTML.html#1,1,1351,769,1368,912,8-2-2021,8-40-25,102,,,,,,,2090,511,993,1007,992,505,,3,3,depth_discrimination_stimuli/000739_2014-06-08_18-45-58_260595134347_rgbf000068-resize_1/000739_2014-06-08_18-45-58_260595134347_rgbf000068-resize-original.jpg,2380,905471,1227234,35
983483,DepthScenes,v2_duration_discrimination,discrim_jsons/shuffled_g0_dr.json,http://54.211.221.249/DepthDuration/v2_depth_discrimination_MTurk/v2_DepthDiscrim_HTML.html#1,1,1351,769,1368,912,8-2-2021,8-40-25,103,,,,,,,2090,511,993,1007,992,505,,3,2,depth_discrimination_stimuli/003070_2014-06-15_14-58-27_094959634447_rgbf000150-resize_3/003070_2014-06-15_14-58-27_094959634447_rgbf000150-resize-original.jpg,3436,905471,1227234,35
983483,DepthScenes,v2_duration_discrimination,discrim_jsons/shuffled_g0_dr.json,http://54.211.221.249/DepthDuration/v2_depth_discrimination_MTurk/v2_DepthDiscrim_HTML.html#1,1,1351,769,1368,912,8-2-2021,8-40-25,104,,,,,,,2090,511,993,1007,992,505,,3,2,scene_property_catch_stimuli/sun_bpzzatthlcapxzol.jpg,3215,905471,1227234,35
983483,DepthScenes,v2_duration_discrimination,discrim_jsons/shuffled_g0_dr.json,http://54.211.221.249/DepthDuration/v2_depth_discrimination_MTurk/v2_DepthDiscrim_HTML.html#1,1,1351,769,1368,912,8-2-2021,8-40-25,105,,,,,,,2090,511,993,1007,992,505,,3,3,depth_discrimination_stimuli/000917_2014-06-09_22-45-29_260595134347_rgbf000149-resize_3/000917_2014-06-09_22-45-29_260595134347_rgbf000149-resize-original.jpg,3224,905471,1227234,35
983483,DepthScenes,v2_duration_discrimination,discrim_jsons/shuffled_g0_dr.json,http://54.211.221.249/DepthDuration/v2_depth_discrimination_MTurk/v2_DepthDiscrim_HTML.html#1,1,1351,769,1368,912,8-2-2021,8-40-25,106,,,,,,,2090,511,993,1007,992,505,,3,2,depth_discrimination_stimuli/001148_2014-06-17_15-26-42_260595134347_rgbf000129-resize_0/001148_2014-06-17_15-26-42_260595134347_rgbf000129-resize-original.jpg,4900,905471,1227234,35
983483,DepthScenes,v2_duration_discrimination,discrim_jsons/shuffled_g0_dr.json,http://54.211.221.249/DepthDuration/v2_depth_discrimination_MTurk/v2_DepthDiscrim_HTML.html#1,1,1351,769,1368,912,8-2-2021,8-40-25,107,,,,,,,2090,511,993,1007,992,505,,3,2,depth_discrimination_stimuli/001032_2014-06-08_13-23-17_260595134347_rgbf000021-resize_3/001032_2014-06-08_13-23-17_260595134347_rgbf000021-resize-original.jpg,3349,905471,1227234,35
983483,DepthScenes,v2_duration_discrimination,discrim_jsons/shuffled_g0_dr.json,http://54.211.221.249/DepthDuration/v2_depth_discrimination_MTurk/v2_DepthDiscrim_HTML.html#1,1,1351,769,1368,912,8-2-2021,8-40-25,108,,,,,,,2090,511,993,1007,992,505,,4,3,depth_discrimination_stimuli/000522_2014-06-08_13-35-06_260595134347_rgbf000244-resize_1/000522_2014-06-08_13-35-06_260595134347_rgbf000244-resize-original.jpg,3060,905471,1227234,35
983483,DepthScenes,v2_duration_discrimination,discrim_jsons/shuffled_g0_dr.json,http://54.211.221.249/DepthDuration/v2_depth_discrimination_MTurk/v2_DepthDiscrim_HTML.html#1,1,1351,769,1368,912,8-2-2021,8-40-25,109,,,,,,,2090,511,993,1007,992,505,,2,2,depth_discrimination_stimuli/002784_2014-06-22_19-26-30_094959634447_rgbf000083-resize_3/002784_2014-06-22_19-26-30_094959634447_rgbf000083-resize-original.jpg,4042,905471,1227234,35
983483,DepthScenes,v2_duration_discrimination,discrim_jsons/shuffled_g0_dr.json,http://54.211.221.249/DepthDuration/v2_depth_discrimination_MTurk/v2_DepthDiscrim_HTML.html#1,1,1351,769,1368,912,8-2-2021,8-40-25,110,,,,,,,2090,511,993,1007,992,505,,3,3,depth_discrimination_stimuli/001584_2014-06-20_11-07-43_260595134347_rgbf000002-resize_1/001584_2014-06-20_11-07-43_260595134347_rgbf000002-resize-original.jpg,2780,905471,1227234,35
983483,DepthScenes,v2_duration_discrimination,discrim_jsons/shuffled_g0_dr.json,http://54.211.221.249/DepthDuration/v2_depth_discrimination_MTurk/v2_DepthDiscrim_HTML.html#1,1,1351,769,1368,912,8-2-2021,8-40-25,111,,,,,,,2090,511,993,1007,992,505,,3,3,depth_discrimination_stimuli/000691_2014-06-08_13-08-50_260595134347_rgbf000132-resize_3/000691_2014-06-08_13-08-50_260595134347_rgbf000132-resize-original.jpg,1140,905471,1227234,35
983483,DepthScenes,v2_duration_discrimination,discrim_jsons/shuffled_g0_dr.json,http://54.211.221.249/DepthDuration/v2_depth_discrimination_MTurk/v2_DepthDiscrim_HTML.html#1,1,1351,769,1368,912,8-2-2021,8-40-25,112,,,,,,,2090,511,993,1007,992,505,,3,3,depth_discrimination_stimuli/001056_2014-06-08_18-46-44_260595134347_rgbf000068-resize_0/001056_2014-06-08_18-46-44_260595134347_rgbf000068-resize-original.jpg,997,905471,1227234,35
983483,DepthScenes,v2_duration_discrimination,discrim_jsons/shuffled_g0_dr.json,http://54.211.221.249/DepthDuration/v2_depth_discrimination_MTurk/v2_DepthDiscrim_HTML.html#1,1,1351,769,1368,912,8-2-2021,8-40-25,113,,,,,,,2090,511,993,1007,992,505,,3,2,depth_discrimination_stimuli/002272_2014-06-28_18-53-56_260595134347_rgbf000067-resize_2/002272_2014-06-28_18-53-56_260595134347_rgbf000067-resize-original.jpg,2591,905471,1227234,35
983483,DepthScenes,v2_duration_discrimination,discrim_jsons/shuffled_g0_dr.json,http://54.211.221.249/DepthDuration/v2_depth_discrimination_MTurk/v2_DepthDiscrim_HTML.html#1,1,1351,769,1368,912,8-2-2021,8-40-25,114,,,,,,,2090,511,993,1007,992,505,,3,3,depth_discrimination_stimuli/001808_2014-06-26_20-50-58_260595134347_rgbf000029-resize_1/001808_2014-06-26_20-50-58_260595134347_rgbf000029-resize-original.jpg,2755,905471,1227234,35
983483,DepthScenes,v2_duration_discrimination,discrim_jsons/shuffled_g0_dr.json,http://54.211.221.249/DepthDuration/v2_depth_discrimination_MTurk/v2_DepthDiscrim_HTML.html#1,1,1351,769,1368,912,8-2-2021,8-40-25,115,,,,,,,2090,511,993,1007,992,505,,3,3,depth_discrimination_stimuli/000447_2014-06-08_16-15-46_260595134347_rgbf000130-resize_1/000447_2014-06-08_16-15-46_260595134347_rgbf000130-resize-original.jpg,8078,905471,1227234,35
983483,DepthScenes,v2_duration_discrimination,discrim_jsons/shuffled_g0_dr.json,http://54.211.221.249/DepthDuration/v2_depth_discrimination_MTurk/v2_DepthDiscrim_HTML.html#1,1,1351,769,1368,912,8-2-2021,8-40-25,116,,,,,,,2090,511,993,1007,992,505,,3,3,depth_discrimination_stimuli/002445_2014-06-28_20-32-16_260595134347_rgbf000029-resize_4/002445_2014-06-28_20-32-16_260595134347_rgbf000029-resize-original.jpg,1360,905471,1227234,35
983483,DepthScenes,v2_duration_discrimination,discrim_jsons/shuffled_g0_dr.json,http://54.211.221.249/DepthDuration/v2_depth_discrimination_MTurk/v2_DepthDiscrim_HTML.html#1,1,1351,769,1368,912,8-2-2021,8-40-25,117,,,,,,,2090,511,993,1007,992,505,,3,3,depth_discrimination_stimuli/001136_2014-06-17_15-19-41_260595134347_rgbf000076-resize_3/001136_2014-06-17_15-19-41_260595134347_rgbf000076-resize-original.jpg,1927,905471,1227234,35
983483,DepthScenes,v2_duration_discrimination,discrim_jsons/shuffled_g0_dr.json,http://54.211.221.249/DepthDuration/v2_depth_discrimination_MTurk/v2_DepthDiscrim_HTML.html#1,1,1351,769,1368,912,8-2-2021,8-40-25,118,,,,,,,2090,511,993,1007,992,505,,3,3,depth_discrimination_stimuli/000677_2014-06-08_23-10-32_260595134347_rgbf000158-resize_6/000677_2014-06-08_23-10-32_260595134347_rgbf000158-resize-original.jpg,1335,905471,1227234,35
983483,DepthScenes,v2_duration_discrimination,discrim_jsons/shuffled_g0_dr.json,http://54.211.221.249/DepthDuration/v2_depth_discrimination_MTurk/v2_DepthDiscrim_HTML.html#1,1,1351,769,1368,912,8-2-2021,8-40-25,119,,,,,,,2090,511,993,1007,992,505,,3,3,depth_discrimination_stimuli/002131_2014-06-25_21-12-01_260595134347_rgbf000083-resize_0/002131_2014-06-25_21-12-01_260595134347_rgbf000083-resize-original.jpg,3154,905471,1227234,35
983483,DepthScenes,v2_duration_discrimination,discrim_jsons/shuffled_g0_dr.json,http://54.211.221.249/DepthDuration/v2_depth_discrimination_MTurk/v2_DepthDiscrim_HTML.html#1,1,1351,769,1368,912,8-2-2021,8-40-25,120,,,,,,,2090,511,993,1007,992,505,,4,3,depth_discrimination_stimuli/000502_2014-06-08_23-02-32_260595134347_rgbf000063-resize_4/000502_2014-06-08_23-02-32_260595134347_rgbf000063-resize-original.jpg,2723,905471,1227234,35
983483,DepthScenes,v2_duration_discrimination,discrim_jsons/shuffled_g0_dr.json,http://54.211.221.249/DepthDuration/v2_depth_discrimination_MTurk/v2_DepthDiscrim_HTML.html#1,1,1351,769,1368,912,8-2-2021,8-40-25,121,,,,,,,2090,511,993,1007,992,505,,3,3,depth_discrimination_stimuli/001158_2014-06-17_15-32-16_260595134347_rgbf000138-resize_2/001158_2014-06-17_15-32-16_260595134347_rgbf000138-resize-original.jpg,2286,905471,1227234,35
983483,DepthScenes,v2_duration_discrimination,discrim_jsons/shuffled_g0_dr.json,http://54.211.221.249/DepthDuration/v2_depth_discrimination_MTurk/v2_DepthDiscrim_HTML.html#1,1,1351,769,1368,912,8-2-2021,8-40-25,122,,,,,,,2090,511,993,1007,992,505,,2,3,depth_discrimination_stimuli/002637_2014-06-24_14-51-13_094959634447_rgbf000066-resize_4/002637_2014-06-24_14-51-13_094959634447_rgbf000066-resize-original.jpg,3077,905471,1227234,35
983483,DepthScenes,v2_duration_discrimination,discrim_jsons/shuffled_g0_dr.json,http://54.211.221.249/DepthDuration/v2_depth_discrimination_MTurk/v2_DepthDiscrim_HTML.html#1,1,1351,769,1368,912,8-2-2021,8-40-25,123,,,,,,,2090,511,993,1007,992,505,,2,3,depth_discrimination_stimuli/001055_2014-06-08_18-45-35_260595134347_rgbf000111-resize_4/001055_2014-06-08_18-45-35_260595134347_rgbf000111-resize-original.jpg,3402,905471,1227234,35
983483,DepthScenes,v2_duration_discrimination,discrim_jsons/shuffled_g0_dr.json,http://54.211.221.249/DepthDuration/v2_depth_discrimination_MTurk/v2_DepthDiscrim_HTML.html#1,1,1351,769,1368,912,8-2-2021,8-40-25,124,,,,,,,2090,511,993,1007,992,505,,3,3,depth_discrimination_stimuli/002805_2014-06-22_19-54-03_094959634447_rgbf000079-resize_1/002805_2014-06-22_19-54-03_094959634447_rgbf000079-resize-original.jpg,1663,905471,1227234,35
983483,DepthScenes,v2_duration_discrimination,discrim_jsons/shuffled_g0_dr.json,http://54.211.221.249/DepthDuration/v2_depth_discrimination_MTurk/v2_DepthDiscrim_HTML.html#1,1,1351,769,1368,912,8-2-2021,8-40-25,125,,,,,,,2090,511,993,1007,992,505,,3,2,depth_discrimination_stimuli/000137_2014-05-20_17-04-49_260595134347_rgbf000120-resize_1/000137_2014-05-20_17-04-49_260595134347_rgbf000120-resize-original.jpg,4643,905471,1227234,35
983483,DepthScenes,v2_duration_discrimination,discrim_jsons/shuffled_g0_dr.json,http://54.211.221.249/DepthDuration/v2_depth_discrimination_MTurk/v2_DepthDiscrim_HTML.html#1,1,1351,769,1368,912,8-2-2021,8-40-25,126,,,,,,,2090,511,993,1007,992,505,,3,2,depth_discrimination_stimuli/002987_2014-06-08_18-48-20_094959634447_rgbf000022-resize_0/002987_2014-06-08_18-48-20_094959634447_rgbf000022-resize-original.jpg,2770,905471,1227234,35
983483,DepthScenes,v2_duration_discrimination,discrim_jsons/shuffled_g0_dr.json,http://54.211.221.249/DepthDuration/v2_depth_discrimination_MTurk/v2_DepthDiscrim_HTML.html#1,1,1351,769,1368,912,8-2-2021,8-40-25,127,,,,,,,2090,511,993,1007,992,505,,4,2,depth_discrimination_stimuli/000555_2014-06-09_22-42-23_260595134347_rgbf000037-resize_4/000555_2014-06-09_22-42-23_260595134347_rgbf000037-resize-original.jpg,3568,905471,1227234,35
983483,DepthScenes,v2_duration_discrimination,discrim_jsons/shuffled_g0_dr.json,http://54.211.221.249/DepthDuration/v2_depth_discrimination_MTurk/v2_DepthDiscrim_HTML.html#1,1,1351,769,1368,912,8-2-2021,8-40-25,128,,,,,,,2090,511,993,1007,992,505,,2,3,depth_discrimination_stimuli/000665_2014-06-09_20-42-35_260595134347_rgbf000110-resize_1/000665_2014-06-09_20-42-35_260595134347_rgbf000110-resize-original.jpg,3410,905471,1227234,35
983483,DepthScenes,v2_duration_discrimination,discrim_jsons/shuffled_g0_dr.json,http://54.211.221.249/DepthDuration/v2_depth_discrimination_MTurk/v2_DepthDiscrim_HTML.html#1,1,1351,769,1368,912,8-2-2021,8-40-25,129,,,,,,,2090,511,993,1007,992,505,,3,3,depth_discrimination_stimuli/002545_2014-06-24_13-38-53_094959634447_rgbf000080-resize_4/002545_2014-06-24_13-38-53_094959634447_rgbf000080-resize-original.jpg,2318,905471,1227234,35
983483,DepthScenes,v2_duration_discrimination,discrim_jsons/shuffled_g0_dr.json,http://54.211.221.249/DepthDuration/v2_depth_discrimination_MTurk/v2_DepthDiscrim_HTML.html#1,1,1351,769,1368,912,8-2-2021,8-40-25,130,,,,,,,2090,511,993,1007,992,505,,4,2,depth_discrimination_stimuli/000692_2014-06-08_13-09-42_260595134347_rgbf000199-resize_2/000692_2014-06-08_13-09-42_260595134347_rgbf000199-resize-original.jpg,7768,905471,1227234,35
983483,DepthScenes,v2_duration_discrimination,discrim_jsons/shuffled_g0_dr.json,http://54.211.221.249/DepthDuration/v2_depth_discrimination_MTurk/v2_DepthDiscrim_HTML.html#1,1,1351,769,1368,912,8-2-2021,8-40-25,131,,,,,,,2090,511,993,1007,992,505,,3,2,depth_discrimination_stimuli/002988_2014-06-15_12-24-20_094959634447_rgbf000150-resize_1/002988_2014-06-15_12-24-20_094959634447_rgbf000150-resize-original.jpg,2552,905471,1227234,35
983483,DepthScenes,v2_duration_discrimination,discrim_jsons/shuffled_g0_dr.json,http://54.211.221.249/DepthDuration/v2_depth_discrimination_MTurk/v2_DepthDiscrim_HTML.html#1,1,1351,769,1368,912,8-2-2021,8-40-25,132,,,,,,,2090,511,993,1007,992,505,,3,2,depth_discrimination_stimuli/000549_2014-06-08_22-10-24_260595134347_rgbf000247-resize_3/000549_2014-06-08_22-10-24_260595134347_rgbf000247-resize-original.jpg,2263,905471,1227234,35
983483,DepthScenes,v2_duration_discrimination,discrim_jsons/shuffled_g0_dr.json,http://54.211.221.249/DepthDuration/v2_depth_discrimination_MTurk/v2_DepthDiscrim_HTML.html#1,1,1351,769,1368,912,8-2-2021,8-40-25,133,,,,,,,2090,511,993,1007,992,505,,3,3,depth_discrimination_stimuli/002425_2014-06-28_20-27-29_260595134347_rgbf000031-resize_8/002425_2014-06-28_20-27-29_260595134347_rgbf000031-resize-original.jpg,1350,905471,1227234,35
983483,DepthScenes,v2_duration_discrimination,discrim_jsons/shuffled_g0_dr.json,http://54.211.221.249/DepthDuration/v2_depth_discrimination_MTurk/v2_DepthDiscrim_HTML.html#1,1,1351,769,1368,912,8-2-2021,8-40-25,134,,,,,,,2090,511,993,1007,992,505,,3,3,depth_discrimination_stimuli/001175_2014-06-17_15-45-55_260595134347_rgbf000129-resize_4/001175_2014-06-17_15-45-55_260595134347_rgbf000129-resize-original.jpg,1108,905471,1227234,35
983483,DepthScenes,v2_duration_discrimination,discrim_jsons/shuffled_g0_dr.json,http://54.211.221.249/DepthDuration/v2_depth_discrimination_MTurk/v2_DepthDiscrim_HTML.html#1,1,1351,769,1368,912,8-2-2021,8-40-25,135,,,,,,,2090,511,993,1007,992,505,,3,3,depth_discrimination_stimuli/002700_2014-06-22_11-27-02_094959634447_rgbf000124-resize_3/002700_2014-06-22_11-27-02_094959634447_rgbf000124-resize-original.jpg,1110,905471,1227234,35
983483,DepthScenes,v2_duration_discrimination,discrim_jsons/shuffled_g0_dr.json,http://54.211.221.249/DepthDuration/v2_depth_discrimination_MTurk/v2_DepthDiscrim_HTML.html#1,1,1351,769,1368,912,8-2-2021,8-40-25,136,,,,,,,2090,511,993,1007,992,505,,3,2,depth_discrimination_stimuli/002279_2014-06-28_18-55-32_260595134347_rgbf000040-resize_5/002279_2014-06-28_18-55-32_260595134347_rgbf000040-resize-original.jpg,3886,905471,1227234,35
983483,DepthScenes,v2_duration_discrimination,discrim_jsons/shuffled_g0_dr.json,http://54.211.221.249/DepthDuration/v2_depth_discrimination_MTurk/v2_DepthDiscrim_HTML.html#1,1,1351,769,1368,912,8-2-2021,8-40-25,137,,,,,,,2090,511,993,1007,992,505,,4,3,depth_discrimination_stimuli/002678_2014-06-13_16-15-32_094959634447_rgbf000151-resize_6/002678_2014-06-13_16-15-32_094959634447_rgbf000151-resize-original.jpg,2366,905471,1227234,35
983483,DepthScenes,v2_duration_discrimination,discrim_jsons/shuffled_g0_dr.json,http://54.211.221.249/DepthDuration/v2_depth_discrimination_MTurk/v2_DepthDiscrim_HTML.html#1,1,1351,769,1368,912,8-2-2021,8-40-25,138,,,,,,,2090,511,993,1007,992,505,,3,3,depth_discrimination_stimuli/003069_2014-06-15_14-57-50_094959634447_rgbf000150-resize_4/003069_2014-06-15_14-57-50_094959634447_rgbf000150-resize-original.jpg,2466,905471,1227234,35
983483,DepthScenes,v2_duration_discrimination,discrim_jsons/shuffled_g0_dr.json,http://54.211.221.249/DepthDuration/v2_depth_discrimination_MTurk/v2_DepthDiscrim_HTML.html#1,1,1351,769,1368,912,8-2-2021,8-40-25,139,,,,,,,2090,511,993,1007,992,505,,2,2,depth_discrimination_stimuli/001110_2014-06-15_17-25-28_260595134347_rgbf000150-resize_1/001110_2014-06-15_17-25-28_260595134347_rgbf000150-resize-original.jpg,2224,905471,1227234,35
983483,DepthScenes,v2_duration_discrimination,discrim_jsons/shuffled_g0_dr.json,http://54.211.221.249/DepthDuration/v2_depth_discrimination_MTurk/v2_DepthDiscrim_HTML.html#1,1,1351,769,1368,912,8-2-2021,8-40-25,140,,,,,,,2090,511,993,1007,992,505,,2,2,depth_discrimination_stimuli/001532_2014-06-20_16-50-41_260595134347_rgbf000081-resize_4/001532_2014-06-20_16-50-41_260595134347_rgbf000081-resize-original.jpg,1530,905471,1227234,35
983483,DepthScenes,v2_duration_discrimination,discrim_jsons/shuffled_g0_dr.json,http://54.211.221.249/DepthDuration/v2_depth_discrimination_MTurk/v2_DepthDiscrim_HTML.html#1,1,1351,769,1368,912,8-2-2021,8-40-25,141,,,,,,,2090,511,993,1007,992,505,,2,3,depth_discrimination_stimuli/003081_2014-06-15_15-19-16_094959634447_rgbf000150-resize_1/003081_2014-06-15_15-19-16_094959634447_rgbf000150-resize-original.jpg,2412,905471,1227234,35
983483,DepthScenes,v2_duration_discrimination,discrim_jsons/shuffled_g0_dr.json,http://54.211.221.249/DepthDuration/v2_depth_discrimination_MTurk/v2_DepthDiscrim_HTML.html#1,1,1351,769,1368,912,8-2-2021,8-40-25,142,,,,,,,2090,511,993,1007,992,505,,3,3,depth_discrimination_stimuli/001188_2014-06-17_15-54-10_260595134347_rgbf000090-resize_2/001188_2014-06-17_15-54-10_260595134347_rgbf000090-resize-original.jpg,1591,905471,1227234,35
983483,DepthScenes,v2_duration_discrimination,discrim_jsons/shuffled_g0_dr.json,http://54.211.221.249/DepthDuration/v2_depth_discrimination_MTurk/v2_DepthDiscrim_HTML.html#1,1,1351,769,1368,912,8-2-2021,8-40-25,143,,,,,,,2090,511,993,1007,992,505,,2,2,depth_discrimination_stimuli/000943_2014-06-09_19-31-07_260595134347_rgbf000128-resize_1/000943_2014-06-09_19-31-07_260595134347_rgbf000128-resize-original.jpg,2138,905471,1227234,35
983483,DepthScenes,v2_duration_discrimination,discrim_jsons/shuffled_g0_dr.json,http://54.211.221.249/DepthDuration/v2_depth_discrimination_MTurk/v2_DepthDiscrim_HTML.html#1,1,1351,769,1368,912,8-2-2021,8-40-25,144,,,,,,,2090,511,993,1007,992,505,,2,2,depth_discrimination_stimuli/002758_2014-06-22_19-11-20_094959634447_rgbf000128-resize_1/002758_2014-06-22_19-11-20_094959634447_rgbf000128-resize-original.jpg,1467,905471,1227234,35
983483,DepthScenes,v2_duration_discrimination,discrim_jsons/shuffled_g0_dr.json,http://54.211.221.249/DepthDuration/v2_depth_discrimination_MTurk/v2_DepthDiscrim_HTML.html#1,1,1351,769,1368,912,8-2-2021,8-40-25,145,,,,,,,2090,511,993,1007,992,505,,4,3,depth_discrimination_stimuli/001181_2014-06-17_15-50-57_260595134347_rgbf000106-resize_4/001181_2014-06-17_15-50-57_260595134347_rgbf000106-resize-original.jpg,1983,905471,1227234,35
983483,DepthScenes,v2_duration_discrimination,discrim_jsons/shuffled_g0_dr.json,http://54.211.221.249/DepthDuration/v2_depth_discrimination_MTurk/v2_DepthDiscrim_HTML.html#1,1,1351,769,1368,912,8-2-2021,8-40-25,146,,,,,,,2090,511,993,1007,992,505,,4,2,depth_discrimination_stimuli/002509_2014-06-24_13-19-22_094959634447_rgbf000077-resize_0/002509_2014-06-24_13-19-22_094959634447_rgbf000077-resize-original.jpg,6399,905471,1227234,35
983483,DepthScenes,v2_duration_discrimination,discrim_jsons/shuffled_g0_dr.json,http://54.211.221.249/DepthDuration/v2_depth_discrimination_MTurk/v2_DepthDiscrim_HTML.html#1,1,1351,769,1368,912,8-2-2021,8-40-25,147,,,,,,,2090,511,993,1007,992,505,,2,2,depth_discrimination_stimuli/000878_2014-06-08_22-52-45_260595134347_rgbf000045-resize_2/000878_2014-06-08_22-52-45_260595134347_rgbf000045-resize-original.jpg,2647,905471,1227234,35
983483,DepthScenes,v2_duration_discrimination,discrim_jsons/shuffled_g0_dr.json,http://54.211.221.249/DepthDuration/v2_depth_discrimination_MTurk/v2_DepthDiscrim_HTML.html#1,1,1351,769,1368,912,8-2-2021,8-40-25,148,,,,,,,2090,511,993,1007,992,505,,3,3,depth_discrimination_stimuli/000542_2014-06-08_18-27-08_260595134347_rgbf000118-resize_1/000542_2014-06-08_18-27-08_260595134347_rgbf000118-resize-original.jpg,1679,905471,1227234,35
983483,DepthScenes,v2_duration_discrimination,discrim_jsons/shuffled_g0_dr.json,http://54.211.221.249/DepthDuration/v2_depth_discrimination_MTurk/v2_DepthDiscrim_HTML.html#1,1,1351,769,1368,912,8-2-2021,8-40-25,149,,,,,,,2090,511,993,1007,992,505,,2,2,depth_discrimination_stimuli/000869_2014-06-09_20-50-18_260595134347_rgbf000060-resize_3/000869_2014-06-09_20-50-18_260595134347_rgbf000060-resize-original.jpg,7884,905471,1227234,35
983483,DepthScenes,v2_duration_discrimination,discrim_jsons/shuffled_g0_dr.json,http://54.211.221.249/DepthDuration/v2_depth_discrimination_MTurk/v2_DepthDiscrim_HTML.html#1,1,1351,769,1368,912,8-2-2021,8-40-25,150,,,,,,,2090,511,993,1007,992,505,,3,2,depth_discrimination_stimuli/001449_2014-06-19_17-01-27_260595134347_rgbf000116-resize_2/001449_2014-06-19_17-01-27_260595134347_rgbf000116-resize-original.jpg,8320,905471,1227234,35
983483,DepthScenes,v2_duration_discrimination,discrim_jsons/shuffled_g0_dr.json,http://54.211.221.249/DepthDuration/v2_depth_discrimination_MTurk/v2_DepthDiscrim_HTML.html#1,1,1351,769,1368,912,8-2-2021,8-40-25,151,,,,,,,2090,511,993,1007,992,505,,3,2,depth_discrimination_stimuli/000929_2014-06-09_16-33-19_260595134347_rgbf000139-resize_0/000929_2014-06-09_16-33-19_260595134347_rgbf000139-resize-original.jpg,3871,905471,1227234,35
983483,DepthScenes,v2_duration_discrimination,discrim_jsons/shuffled_g0_dr.json,http://54.211.221.249/DepthDuration/v2_depth_discrimination_MTurk/v2_DepthDiscrim_HTML.html#1,1,1351,769,1368,912,8-2-2021,8-40-25,152,,,,,,,2090,511,993,1007,992,505,,3,2,depth_discrimination_stimuli/000436_2014-06-09_22-25-11_260595134347_rgbf000137-resize_1/000436_2014-06-09_22-25-11_260595134347_rgbf000137-resize-original.jpg,2802,905471,1227234,35
983483,DepthScenes,v2_duration_discrimination,discrim_jsons/shuffled_g0_dr.json,http://54.211.221.249/DepthDuration/v2_depth_discrimination_MTurk/v2_DepthDiscrim_HTML.html#1,1,1351,769,1368,912,8-2-2021,8-40-25,153,,,,,,,2090,511,993,1007,992,505,,4,5,scene_property_catch_stimuli/sun_aoquhiddlfqapdlz.jpg,5719,905471,1227234,35
983483,DepthScenes,v2_duration_discrimination,discrim_jsons/shuffled_g0_dr.json,http://54.211.221.249/DepthDuration/v2_depth_discrimination_MTurk/v2_DepthDiscrim_HTML.html#1,1,1351,769,1368,912,8-2-2021,8-40-25,154,,,,,,,2090,511,993,1007,992,505,,3,3,depth_discrimination_stimuli/000788_2014-06-08_22-34-36_260595134347_rgbf000131-resize_1/000788_2014-06-08_22-34-36_260595134347_rgbf000131-resize-original.jpg,1803,905471,1227234,35
983483,DepthScenes,v2_duration_discrimination,discrim_jsons/shuffled_g0_dr.json,http://54.211.221.249/DepthDuration/v2_depth_discrimination_MTurk/v2_DepthDiscrim_HTML.html#1,1,1351,769,1368,912,8-2-2021,8-40-25,155,,,,,,,2090,511,993,1007,992,505,,3,2,depth_discrimination_stimuli/002657_2014-06-13_15-29-54_094959634447_rgbf000150-resize_1/002657_2014-06-13_15-29-54_094959634447_rgbf000150-resize-original.jpg,4949,905471,1227234,35
983483,DepthScenes,v2_duration_discrimination,discrim_jsons/shuffled_g0_dr.json,http://54.211.221.249/DepthDuration/v2_depth_discrimination_MTurk/v2_DepthDiscrim_HTML.html#1,1,1351,769,1368,912,8-2-2021,8-40-25,156,,,,,,,2090,511,993,1007,992,505,,4,2,depth_discrimination_stimuli/002468_2014-06-28_20-38-39_260595134347_rgbf000045-resize_1/002468_2014-06-28_20-38-39_260595134347_rgbf000045-resize-original.jpg,2444,905471,1227234,35
983483,DepthScenes,v2_duration_discrimination,discrim_jsons/shuffled_g0_dr.json,http://54.211.221.249/DepthDuration/v2_depth_discrimination_MTurk/v2_DepthDiscrim_HTML.html#1,1,1351,769,1368,912,8-2-2021,8-40-25,157,,,,,,,2090,511,993,1007,992,505,,3,2,depth_discrimination_stimuli/002444_2014-06-28_20-32-08_260595134347_rgbf000027-resize_0/002444_2014-06-28_20-32-08_260595134347_rgbf000027-resize-original.jpg,4496,905471,1227234,35
983483,DepthScenes,v2_duration_discrimination,discrim_jsons/shuffled_g0_dr.json,http://54.211.221.249/DepthDuration/v2_depth_discrimination_MTurk/v2_DepthDiscrim_HTML.html#1,1,1351,769,1368,912,8-2-2021,8-40-25,158,,,,,,,2090,511,993,1007,992,505,,3,3,depth_discrimination_stimuli/002136_2014-06-25_21-18-03_260595134347_rgbf000109-resize_3/002136_2014-06-25_21-18-03_260595134347_rgbf000109-resize-original.jpg,1210,905471,1227234,35
983483,DepthScenes,v2_duration_discrimination,discrim_jsons/shuffled_g0_dr.json,http://54.211.221.249/DepthDuration/v2_depth_discrimination_MTurk/v2_DepthDiscrim_HTML.html#1,1,1351,769,1368,912,8-2-2021,8-40-25,159,,,,,,,2090,511,993,1007,992,505,,3,3,depth_discrimination_stimuli/003490_2014-05-21_15-50-11_094959634447_rgbf000101-resize_3/003490_2014-05-21_15-50-11_094959634447_rgbf000101-resize-original.jpg,2928,905471,1227234,35
983483,DepthScenes,v2_duration_discrimination,discrim_jsons/shuffled_g0_dr.json,http://54.211.221.249/DepthDuration/v2_depth_discrimination_MTurk/v2_DepthDiscrim_HTML.html#1,1,1351,769,1368,912,8-2-2021,8-40-25,160,,,,,,,2090,511,993,1007,992,505,,3,2,depth_discrimination_stimuli/000109_2014-05-14_23-41-52_260595134347_rgbf000035-resize_9/000109_2014-05-14_23-41-52_260595134347_rgbf000035-resize-original.jpg,2028,905471,1227234,35
983483,DepthScenes,v2_duration_discrimination,discrim_jsons/shuffled_g0_dr.json,http://54.211.221.249/DepthDuration/v2_depth_discrimination_MTurk/v2_DepthDiscrim_HTML.html#1,1,1351,769,1368,912,8-2-2021,8-40-25,161,,,,,,,2090,511,993,1007,992,505,,3,3,depth_discrimination_stimuli/000414_2014-06-04_19-49-13_260595134347_rgbf000044-resize_0/000414_2014-06-04_19-49-13_260595134347_rgbf000044-resize-original.jpg,1828,905471,1227234,35
983483,DepthScenes,v2_duration_discrimination,discrim_jsons/shuffled_g0_dr.json,http://54.211.221.249/DepthDuration/v2_depth_discrimination_MTurk/v2_DepthDiscrim_HTML.html#1,1,1351,769,1368,912,8-2-2021,8-40-25,162,,,,,,,2090,511,993,1007,992,505,,4,3,depth_discrimination_stimuli/003587_2014-05-23_16-48-02_094959634447_rgbf002384-resize_2/003587_2014-05-23_16-48-02_094959634447_rgbf002384-resize-original.jpg,3105,905471,1227234,35
983483,DepthScenes,v2_duration_discrimination,discrim_jsons/shuffled_g0_dr.json,http://54.211.221.249/DepthDuration/v2_depth_discrimination_MTurk/v2_DepthDiscrim_HTML.html#1,1,1351,769,1368,912,8-2-2021,8-40-25,163,,,,,,,2090,511,993,1007,992,505,,3,3,depth_discrimination_stimuli/002660_2014-06-13_15-44-18_094959634447_rgbf001878-resize_2/002660_2014-06-13_15-44-18_094959634447_rgbf001878-resize-original.jpg,2044,905471,1227234,35
983483,DepthScenes,v2_duration_discrimination,discrim_jsons/shuffled_g0_dr.json,http://54.211.221.249/DepthDuration/v2_depth_discrimination_MTurk/v2_DepthDiscrim_HTML.html#1,1,1351,769,1368,912,8-2-2021,8-40-25,164,,,,,,,2090,511,993,1007,992,505,,3,3,depth_discrimination_stimuli/000505_2014-06-08_23-03-23_260595134347_rgbf000091-resize_0/000505_2014-06-08_23-03-23_260595134347_rgbf000091-resize-original.jpg,1357,905471,1227234,35
983483,DepthScenes,v2_duration_discrimination,discrim_jsons/shuffled_g0_dr.json,http://54.211.221.249/DepthDuration/v2_depth_discrimination_MTurk/v2_DepthDiscrim_HTML.html#1,1,1351,769,1368,912,8-2-2021,8-40-25,165,,,,,,,2090,511,993,1007,992,505,,2,2,depth_discrimination_stimuli/001244_2014-06-17_16-47-45_260595134347_rgbf000030-resize_4/001244_2014-06-17_16-47-45_260595134347_rgbf000030-resize-original.jpg,3851,905471,1227234,35
983483,DepthScenes,v2_duration_discrimination,discrim_jsons/shuffled_g0_dr.json,http://54.211.221.249/DepthDuration/v2_depth_discrimination_MTurk/v2_DepthDiscrim_HTML.html#1,1,1351,769,1368,912,8-2-2021,8-40-25,166,,,,,,,2090,511,993,1007,992,505,,3,2,depth_discrimination_stimuli/000486_2014-06-09_20-47-20_260595134347_rgbf000143-resize_2/000486_2014-06-09_20-47-20_260595134347_rgbf000143-resize-original.jpg,1770,905471,1227234,35
983483,DepthScenes,v2_duration_discrimination,discrim_jsons/shuffled_g0_dr.json,http://54.211.221.249/DepthDuration/v2_depth_discrimination_MTurk/v2_DepthDiscrim_HTML.html#1,1,1351,769,1368,912,8-2-2021,8-40-25,167,,,,,,,2090,511,993,1007,992,505,,3,3,depth_discrimination_stimuli/000635_2014-06-08_16-38-42_260595134347_rgbf000106-resize_1/000635_2014-06-08_16-38-42_260595134347_rgbf000106-resize-original.jpg,2161,905471,1227234,35
983483,DepthScenes,v2_duration_discrimination,discrim_jsons/shuffled_g0_dr.json,http://54.211.221.249/DepthDuration/v2_depth_discrimination_MTurk/v2_DepthDiscrim_HTML.html#1,1,1351,769,1368,912,8-2-2021,8-40-25,168,,,,,,,2090,511,993,1007,992,505,,4,2,depth_discrimination_stimuli/000368_2014-06-09_15-53-01_260595134347_rgbf000155-resize_2/000368_2014-06-09_15-53-01_260595134347_rgbf000155-resize-original.jpg,4036,905471,1227234,35
983483,DepthScenes,v2_duration_discrimination,discrim_jsons/shuffled_g0_dr.json,http://54.211.221.249/DepthDuration/v2_depth_discrimination_MTurk/v2_DepthDiscrim_HTML.html#1,1,1351,769,1368,912,8-2-2021,8-40-25,169,,,,,,,2090,511,993,1007,992,505,,3,2,depth_discrimination_stimuli/001066_2014-06-08_22-03-20_260595134347_rgbf000066-resize_4/001066_2014-06-08_22-03-20_260595134347_rgbf000066-resize-original.jpg,3044,905471,1227234,35
983483,DepthScenes,v2_duration_discrimination,discrim_jsons/shuffled_g0_dr.json,http://54.211.221.249/DepthDuration/v2_depth_discrimination_MTurk/v2_DepthDiscrim_HTML.html#1,1,1351,769,1368,912,8-2-2021,8-40-25,170,,,,,,,2090,511,993,1007,992,505,,2,2,depth_discrimination_stimuli/002763_2014-06-22_19-13-10_094959634447_rgbf000075-resize_4/002763_2014-06-22_19-13-10_094959634447_rgbf000075-resize-original.jpg,1796,905471,1227234,35
983483,DepthScenes,v2_duration_discrimination,discrim_jsons/shuffled_g0_dr.json,http://54.211.221.249/DepthDuration/v2_depth_discrimination_MTurk/v2_DepthDiscrim_HTML.html#1,1,1351,769,1368,912,8-2-2021,8-40-25,171,,,,,,,2090,511,993,1007,992,505,,3,3,depth_discrimination_stimuli/002305_2014-06-28_19-56-50_260595134347_rgbf000102-resize_7/002305_2014-06-28_19-56-50_260595134347_rgbf000102-resize-original.jpg,1489,905471,1227234,35
983483,DepthScenes,v2_duration_discrimination,discrim_jsons/shuffled_g0_dr.json,http://54.211.221.249/DepthDuration/v2_depth_discrimination_MTurk/v2_DepthDiscrim_HTML.html#1,1,1351,769,1368,912,8-2-2021,8-40-25,172,,,,,,,2090,511,993,1007,992,505,,3,3,depth_discrimination_stimuli/001289_2014-06-16_16-25-52_260595134347_rgbf000067-resize_1/001289_2014-06-16_16-25-52_260595134347_rgbf000067-resize-original.jpg,2116,905471,1227234,35
983483,DepthScenes,v2_duration_discrimination,discrim_jsons/shuffled_g0_dr.json,http://54.211.221.249/DepthDuration/v2_depth_discrimination_MTurk/v2_DepthDiscrim_HTML.html#1,1,1351,769,1368,912,8-2-2021,8-40-25,173,,,,,,,2090,511,993,1007,992,505,,3,2,depth_discrimination_stimuli/002579_2014-06-24_14-08-03_094959634447_rgbf000061-resize_2/002579_2014-06-24_14-08-03_094959634447_rgbf000061-resize-original.jpg,3356,905471,1227234,35
983483,DepthScenes,v2_duration_discrimination,discrim_jsons/shuffled_g0_dr.json,http://54.211.221.249/DepthDuration/v2_depth_discrimination_MTurk/v2_DepthDiscrim_HTML.html#1,1,1351,769,1368,912,8-2-2021,8-40-25,174,,,,,,,2090,511,993,1007,992,505,,3,2,depth_discrimination_stimuli/000780_2014-06-08_22-28-29_260595134347_rgbf000126-resize_1/000780_2014-06-08_22-28-29_260595134347_rgbf000126-resize-original.jpg,2523,905471,1227234,35
983483,DepthScenes,v2_duration_discrimination,discrim_jsons/shuffled_g0_dr.json,http://54.211.221.249/DepthDuration/v2_depth_discrimination_MTurk/v2_DepthDiscrim_HTML.html#1,1,1351,769,1368,912,8-2-2021,8-40-25,175,,,,,,,2090,511,993,1007,992,505,,2,2,depth_discrimination_stimuli/001011_2014-06-08_23-18-54_260595134347_rgbf000044-resize_4/001011_2014-06-08_23-18-54_260595134347_rgbf000044-resize-original.jpg,3731,905471,1227234,35
983483,DepthScenes,v2_duration_discrimination,discrim_jsons/shuffled_g0_dr.json,http://54.211.221.249/DepthDuration/v2_depth_discrimination_MTurk/v2_DepthDiscrim_HTML.html#1,1,1351,769,1368,912,8-2-2021,8-40-25,176,,,,,,,2090,511,993,1007,992,505,,3,3,depth_discrimination_stimuli/000506_2014-06-08_23-21-00_260595134347_rgbf000070-resize_7/000506_2014-06-08_23-21-00_260595134347_rgbf000070-resize-original.jpg,3105,905471,1227234,35
983483,DepthScenes,v2_duration_discrimination,discrim_jsons/shuffled_g0_dr.json,http://54.211.221.249/DepthDuration/v2_depth_discrimination_MTurk/v2_DepthDiscrim_HTML.html#1,1,1351,769,1368,912,8-2-2021,8-40-25,177,,,,,,,2090,511,993,1007,992,505,,3,2,depth_discrimination_stimuli/002995_2014-06-15_12-31-26_094959634447_rgbf000150-resize_1/002995_2014-06-15_12-31-26_094959634447_rgbf000150-resize-original.jpg,2584,905471,1227234,35
983483,DepthScenes,v2_duration_discrimination,discrim_jsons/shuffled_g0_dr.json,http://54.211.221.249/DepthDuration/v2_depth_discrimination_MTurk/v2_DepthDiscrim_HTML.html#1,1,1351,769,1368,912,8-2-2021,8-40-25,178,,,,,,,2090,511,993,1007,992,505,,2,2,depth_discrimination_stimuli/000753_2014-06-08_21-57-44_260595134347_rgbf000123-resize_3/000753_2014-06-08_21-57-44_260595134347_rgbf000123-resize-original.jpg,1725,905471,1227234,35
983483,DepthScenes,v2_duration_discrimination,discrim_jsons/shuffled_g0_dr.json,http://54.211.221.249/DepthDuration/v2_depth_discrimination_MTurk/v2_DepthDiscrim_HTML.html#1,1,1351,769,1368,912,8-2-2021,8-40-25,179,,,,,,,2090,511,993,1007,992,505,,2,2,depth_discrimination_stimuli/000740_2014-06-08_18-46-23_260595134347_rgbf000049-resize_6/000740_2014-06-08_18-46-23_260595134347_rgbf000049-resize-original.jpg,2279,905471,1227234,35
983483,DepthScenes,v2_duration_discrimination,discrim_jsons/shuffled_g0_dr.json,http://54.211.221.249/DepthDuration/v2_depth_discrimination_MTurk/v2_DepthDiscrim_HTML.html#1,1,1351,769,1368,912,8-2-2021,8-40-25,180,,,,,,,2090,511,993,1007,992,505,,3,3,depth_discrimination_stimuli/002414_2014-06-28_20-24-58_260595134347_rgbf000067-resize_4/002414_2014-06-28_20-24-58_260595134347_rgbf000067-resize-original.jpg,3114,905471,1227234,35
983483,DepthScenes,v2_duration_discrimination,discrim_jsons/shuffled_g0_dr.json,http://54.211.221.249/DepthDuration/v2_depth_discrimination_MTurk/v2_DepthDiscrim_HTML.html#1,1,1351,769,1368,912,8-2-2021,8-40-25,181,,,,,,,2090,511,993,1007,992,505,,3,2,depth_discrimination_stimuli/000734_2014-06-08_17-39-11_260595134347_rgbf000128-resize_2/000734_2014-06-08_17-39-11_260595134347_rgbf000128-resize-original.jpg,2051,905471,1227234,35
983483,DepthScenes,v2_duration_discrimination,discrim_jsons/shuffled_g0_dr.json,http://54.211.221.249/DepthDuration/v2_depth_discrimination_MTurk/v2_DepthDiscrim_HTML.html#1,1,1351,769,1368,912,8-2-2021,8-40-25,182,,,,,,,2090,511,993,1007,992,505,,2,3,depth_discrimination_stimuli/000758_2014-06-08_22-05-08_260595134347_rgbf000085-resize_0/000758_2014-06-08_22-05-08_260595134347_rgbf000085-resize-original.jpg,2317,905471,1227234,35
983483,DepthScenes,v2_duration_discrimination,discrim_jsons/shuffled_g0_dr.json,http://54.211.221.249/DepthDuration/v2_depth_discrimination_MTurk/v2_DepthDiscrim_HTML.html#1,1,1351,769,1368,912,8-2-2021,8-40-25,183,,,,,,,2090,511,993,1007,992,505,,2,2,depth_discrimination_stimuli/000854_2014-06-09_19-43-13_260595134347_rgbf000066-resize_0/000854_2014-06-09_19-43-13_260595134347_rgbf000066-resize-original.jpg,2811,905471,1227234,35
983483,DepthScenes,v2_duration_discrimination,discrim_jsons/shuffled_g0_dr.json,http://54.211.221.249/DepthDuration/v2_depth_discrimination_MTurk/v2_DepthDiscrim_HTML.html#1,1,1351,769,1368,912,8-2-2021,8-40-25,184,,,,,,,2090,511,993,1007,992,505,,2,2,depth_discrimination_stimuli/001029_2014-06-08_13-17-57_260595134347_rgbf000065-resize_1/001029_2014-06-08_13-17-57_260595134347_rgbf000065-resize-original.jpg,2645,905471,1227234,35
983483,DepthScenes,v2_duration_discrimination,discrim_jsons/shuffled_g0_dr.json,http://54.211.221.249/DepthDuration/v2_depth_discrimination_MTurk/v2_DepthDiscrim_HTML.html#1,1,1351,769,1368,912,8-2-2021,8-40-25,185,,,,,,,2090,511,993,1007,992,505,,3,2,depth_discrimination_stimuli/003492_2014-05-21_15-50-55_094959634447_rgbf000828-resize_1/003492_2014-05-21_15-50-55_094959634447_rgbf000828-resize-original.jpg,3326,905471,1227234,35
983483,DepthScenes,v2_duration_discrimination,discrim_jsons/shuffled_g0_dr.json,http://54.211.221.249/DepthDuration/v2_depth_discrimination_MTurk/v2_DepthDiscrim_HTML.html#1,1,1351,769,1368,912,8-2-2021,8-40-25,186,,,,,,,2090,511,993,1007,992,505,,5,2,scene_property_catch_stimuli/sun_aatxlublfjchvvzu.jpg,4941,905471,1227234,35
983483,DepthScenes,v2_duration_discrimination,discrim_jsons/shuffled_g0_dr.json,http://54.211.221.249/DepthDuration/v2_depth_discrimination_MTurk/v2_DepthDiscrim_HTML.html#1,1,1351,769,1368,912,8-2-2021,8-40-25,187,,,,,,,2090,511,993,1007,992,505,,4,2,depth_discrimination_stimuli/000556_2014-06-09_22-42-56_260595134347_rgbf000214-resize_1/000556_2014-06-09_22-42-56_260595134347_rgbf000214-resize-original.jpg,5001,905471,1227234,35
983483,DepthScenes,v2_duration_discrimination,discrim_jsons/shuffled_g0_dr.json,http://54.211.221.249/DepthDuration/v2_depth_discrimination_MTurk/v2_DepthDiscrim_HTML.html#1,1,1351,769,1368,912,8-2-2021,8-40-25,188,,,,,,,2090,511,993,1007,992,505,,4,3,depth_discrimination_stimuli/002375_2014-06-28_20-13-44_260595134347_rgbf000032-resize_1/002375_2014-06-28_20-13-44_260595134347_rgbf000032-resize-original.jpg,2609,905471,1227234,35
983483,DepthScenes,v2_duration_discrimination,discrim_jsons/shuffled_g0_dr.json,http://54.211.221.249/DepthDuration/v2_depth_discrimination_MTurk/v2_DepthDiscrim_HTML.html#1,1,1351,769,1368,912,8-2-2021,8-40-25,189,,,,,,,2090,511,993,1007,992,505,,3,3,depth_discrimination_stimuli/001815_2014-06-26_20-52-55_260595134347_rgbf000020-resize_0/001815_2014-06-26_20-52-55_260595134347_rgbf000020-resize-original.jpg,2154,905471,1227234,35
983483,DepthScenes,v2_duration_discrimination,discrim_jsons/shuffled_g0_dr.json,http://54.211.221.249/DepthDuration/v2_depth_discrimination_MTurk/v2_DepthDiscrim_HTML.html#1,1,1351,769,1368,912,8-2-2021,8-40-25,190,,,,,,,2090,511,993,1007,992,505,,4,3,depth_discrimination_stimuli/002365_2014-06-28_20-11-21_260595134347_rgbf000102-resize_1/002365_2014-06-28_20-11-21_260595134347_rgbf000102-resize-original.jpg,3175,905471,1227234,35
983483,DepthScenes,v2_duration_discrimination,discrim_jsons/shuffled_g0_dr.json,http://54.211.221.249/DepthDuration/v2_depth_discrimination_MTurk/v2_DepthDiscrim_HTML.html#1,1,1351,769,1368,912,8-2-2021,8-40-25,191,,,,,,,2090,511,993,1007,992,505,,2,2,scene_property_catch_stimuli/000675_2014-06-08_22-59-18_260595134347_rgbf000096-resize.jpg,2203,905471,1227234,35
983483,DepthScenes,v2_duration_discrimination,discrim_jsons/shuffled_g0_dr.json,http://54.211.221.249/DepthDuration/v2_depth_discrimination_MTurk/v2_DepthDiscrim_HTML.html#1,1,1351,769,1368,912,8-2-2021,8-40-25,192,,,,,,,2090,511,993,1007,992,505,,3,2,depth_discrimination_stimuli/003228_2014-05-14_13-42-35_094959634447_rgbf000101-resize_1/003228_2014-05-14_13-42-35_094959634447_rgbf000101-resize-original.jpg,2390,905471,1227234,35
983483,DepthScenes,v2_duration_discrimination,discrim_jsons/shuffled_g0_dr.json,http://54.211.221.249/DepthDuration/v2_depth_discrimination_MTurk/v2_DepthDiscrim_HTML.html#1,1,1351,769,1368,912,8-2-2021,8-40-25,193,,,,,,,2090,511,993,1007,992,505,,4,2,depth_discrimination_stimuli/001650_2014-06-20_12-09-00_260595134347_rgbf000087-resize_3/001650_2014-06-20_12-09-00_260595134347_rgbf000087-resize-original.jpg,2481,905471,1227234,35
983483,DepthScenes,v2_duration_discrimination,discrim_jsons/shuffled_g0_dr.json,http://54.211.221.249/DepthDuration/v2_depth_discrimination_MTurk/v2_DepthDiscrim_HTML.html#1,1,1351,769,1368,912,8-2-2021,8-40-25,194,,,,,,,2090,511,993,1007,992,505,,4,3,depth_discrimination_stimuli/001447_2014-06-19_17-00-32_260595134347_rgbf000082-resize_5/001447_2014-06-19_17-00-32_260595134347_rgbf000082-resize-original.jpg,3434,905471,1227234,35
983483,DepthScenes,v2_duration_discrimination,discrim_jsons/shuffled_g0_dr.json,http://54.211.221.249/DepthDuration/v2_depth_discrimination_MTurk/v2_DepthDiscrim_HTML.html#1,1,1351,769,1368,912,8-2-2021,8-40-25,195,,,,,,,2090,511,993,1007,992,505,,3,3,depth_discrimination_stimuli/000682_2014-06-08_23-14-58_260595134347_rgbf000041-resize_5/000682_2014-06-08_23-14-58_260595134347_rgbf000041-resize-original.jpg,2154,905471,1227234,35
983483,DepthScenes,v2_duration_discrimination,discrim_jsons/shuffled_g0_dr.json,http://54.211.221.249/DepthDuration/v2_depth_discrimination_MTurk/v2_DepthDiscrim_HTML.html#1,1,1351,769,1368,912,8-2-2021,8-40-25,196,,,,,,,2090,511,993,1007,992,505,,3,3,depth_discrimination_stimuli/003288_2014-05-14_21-50-30_094959634447_rgbf000028-resize_3/003288_2014-05-14_21-50-30_094959634447_rgbf000028-resize-original.jpg,4800,905471,1227234,35
983483,DepthScenes,v2_duration_discrimination,discrim_jsons/shuffled_g0_dr.json,http://54.211.221.249/DepthDuration/v2_depth_discrimination_MTurk/v2_DepthDiscrim_HTML.html#1,1,1351,769,1368,912,8-2-2021,8-40-25,197,,,,,,,2090,511,993,1007,992,505,,3,2,depth_discrimination_stimuli/002748_2014-06-22_19-07-22_094959634447_rgbf000078-resize_1/002748_2014-06-22_19-07-22_094959634447_rgbf000078-resize-original.jpg,1906,905471,1227234,35
983483,DepthScenes,v2_duration_discrimination,discrim_jsons/shuffled_g0_dr.json,http://54.211.221.249/DepthDuration/v2_depth_discrimination_MTurk/v2_DepthDiscrim_HTML.html#1,1,1351,769,1368,912,8-2-2021,8-40-25,198,,,,,,,2090,511,993,1007,992,505,,3,3,depth_discrimination_stimuli/000493_2014-06-09_21-01-18_260595134347_rgbf000196-resize_3/000493_2014-06-09_21-01-18_260595134347_rgbf000196-resize-original.jpg,1608,905471,1227234,35
983483,DepthScenes,v2_duration_discrimination,discrim_jsons/shuffled_g0_dr.json,http://54.211.221.249/DepthDuration/v2_depth_discrimination_MTurk/v2_DepthDiscrim_HTML.html#1,1,1351,769,1368,912,8-2-2021,8-40-25,199,,,,,,,2090,511,993,1007,992,505,,5,2,depth_discrimination_stimuli/002118_2014-06-25_20-32-08_260595134347_rgbf000078-resize_1/002118_2014-06-25_20-32-08_260595134347_rgbf000078-resize-original.jpg,3427,905471,1227234,35
983483,DepthScenes,v2_duration_discrimination,discrim_jsons/shuffled_g0_dr.json,http://54.211.221.249/DepthDuration/v2_depth_discrimination_MTurk/v2_DepthDiscrim_HTML.html#1,1,1351,769,1368,912,8-2-2021,8-40-25,200,,,,,,,2090,511,993,1007,992,505,,3,2,depth_discrimination_stimuli/000773_2014-06-08_22-24-54_260595134347_rgbf000093-resize_1/000773_2014-06-08_22-24-54_260595134347_rgbf000093-resize-original.jpg,2997,905471,1227234,35
983483,DepthScenes,v2_duration_discrimination,discrim_jsons/shuffled_g0_dr.json,http://54.211.221.249/DepthDuration/v2_depth_discrimination_MTurk/v2_DepthDiscrim_HTML.html#1,1,1351,769,1368,912,8-2-2021,8-40-25,201,,,,,,,2090,511,993,1007,992,505,,3,2,depth_discrimination_stimuli/001214_2014-06-17_16-13-55_260595134347_rgbf000111-resize_0/001214_2014-06-17_16-13-55_260595134347_rgbf000111-resize-original.jpg,2663,905471,1227234,35
983483,DepthScenes,v2_duration_discrimination,discrim_jsons/shuffled_g0_dr.json,http://54.211.221.249/DepthDuration/v2_depth_discrimination_MTurk/v2_DepthDiscrim_HTML.html#1,1,1351,769,1368,912,8-2-2021,8-40-25,202,,,,,,,2090,511,993,1007,992,505,,3,4,depth_discrimination_stimuli/002568_2014-06-24_13-59-21_094959634447_rgbf000062-resize_4/002568_2014-06-24_13-59-21_094959634447_rgbf000062-resize-original.jpg,2605,905471,1227234,35
983483,DepthScenes,v2_duration_discrimination,discrim_jsons/shuffled_g0_dr.json,http://54.211.221.249/DepthDuration/v2_depth_discrimination_MTurk/v2_DepthDiscrim_HTML.html#1,1,1351,769,1368,912,8-2-2021,8-40-25,203,,,,,,,2090,511,993,1007,992,505,,3,2,depth_discrimination_stimuli/002057_2014-06-24_21-00-13_260595134347_rgbf000120-resize_1/002057_2014-06-24_21-00-13_260595134347_rgbf000120-resize-original.jpg,2054,905471,1227234,35
983483,DepthScenes,v2_duration_discrimination,discrim_jsons/shuffled_g0_dr.json,http://54.211.221.249/DepthDuration/v2_depth_discrimination_MTurk/v2_DepthDiscrim_HTML.html#1,1,1351,769,1368,912,8-2-2021,8-40-25,204,,,,,,,2090,511,993,1007,992,505,,3,2,depth_discrimination_stimuli/001100_2014-06-15_17-46-26_260595134347_rgbf000225-resize_2/001100_2014-06-15_17-46-26_260595134347_rgbf000225-resize-original.jpg,2153,905471,1227234,35
983483,DepthScenes,v2_duration_discrimination,discrim_jsons/shuffled_g0_dr.json,http://54.211.221.249/DepthDuration/v2_depth_discrimination_MTurk/v2_DepthDiscrim_HTML.html#1,1,1351,769,1368,912,8-2-2021,8-40-25,205,,,,,,,2090,511,993,1007,992,505,,3,3,depth_discrimination_stimuli/002905_2014-06-03_18-04-43_094959634447_rgbf000151-resize_2/002905_2014-06-03_18-04-43_094959634447_rgbf000151-resize-original.jpg,1867,905471,1227234,35
983483,DepthScenes,v2_duration_discrimination,discrim_jsons/shuffled_g0_dr.json,http://54.211.221.249/DepthDuration/v2_depth_discrimination_MTurk/v2_DepthDiscrim_HTML.html#1,1,1351,769,1368,912,8-2-2021,8-40-25,206,,,,,,,2090,511,993,1007,992,505,,2,2,depth_discrimination_stimuli/001516_2014-06-20_16-25-09_260595134347_rgbf000076-resize_2/001516_2014-06-20_16-25-09_260595134347_rgbf000076-resize-original.jpg,1951,905471,1227234,35
983483,DepthScenes,v2_duration_discrimination,discrim_jsons/shuffled_g0_dr.json,http://54.211.221.249/DepthDuration/v2_depth_discrimination_MTurk/v2_DepthDiscrim_HTML.html#1,1,1351,769,1368,912,8-2-2021,8-40-25,207,,,,,,,2090,511,993,1007,992,505,,3,2,depth_discrimination_stimuli/001132_2014-06-17_14-48-54_260595134347_rgbf000100-resize_2/001132_2014-06-17_14-48-54_260595134347_rgbf000100-resize-original.jpg,2092,905471,1227234,35
983483,DepthScenes,v2_duration_discrimination,discrim_jsons/shuffled_g0_dr.json,http://54.211.221.249/DepthDuration/v2_depth_discrimination_MTurk/v2_DepthDiscrim_HTML.html#1,1,1351,769,1368,912,8-2-2021,8-40-25,208,,,,,,,2090,511,993,1007,992,505,,3,3,depth_discrimination_stimuli/000469_2014-06-09_19-42-10_260595134347_rgbf000081-resize_1/000469_2014-06-09_19-42-10_260595134347_rgbf000081-resize-original.jpg,2707,905471,1227234,35
983483,DepthScenes,v2_duration_discrimination,discrim_jsons/shuffled_g0_dr.json,http://54.211.221.249/DepthDuration/v2_depth_discrimination_MTurk/v2_DepthDiscrim_HTML.html#1,1,1351,769,1368,912,8-2-2021,8-40-25,209,,,,,,,2090,511,993,1007,992,505,,2,4,depth_discrimination_stimuli/002103_2014-06-25_20-00-40_260595134347_rgbf000049-resize_0/002103_2014-06-25_20-00-40_260595134347_rgbf000049-resize-original.jpg,3733,905471,1227234,35
983483,DepthScenes,v2_duration_discrimination,discrim_jsons/shuffled_g0_dr.json,http://54.211.221.249/DepthDuration/v2_depth_discrimination_MTurk/v2_DepthDiscrim_HTML.html#1,1,1351,769,1368,912,8-2-2021,8-40-25,210,,,,,,,2090,511,993,1007,992,505,,3,2,depth_discrimination_stimuli/000483_2014-06-09_20-41-45_260595134347_rgbf000116-resize_4/000483_2014-06-09_20-41-45_260595134347_rgbf000116-resize-original.jpg,2116,905471,1227234,35
983483,DepthScenes,v2_duration_discrimination,discrim_jsons/shuffled_g0_dr.json,http://54.211.221.249/DepthDuration/v2_depth_discrimination_MTurk/v2_DepthDiscrim_HTML.html#1,1,1351,769,1368,912,8-2-2021,8-40-25,211,,,,,,,2090,511,993,1007,992,505,,3,3,depth_discrimination_stimuli/001810_2014-06-26_20-51-35_260595134347_rgbf000040-resize_3/001810_2014-06-26_20-51-35_260595134347_rgbf000040-resize-original.jpg,1264,905471,1227234,35
983483,DepthScenes,v2_duration_discrimination,discrim_jsons/shuffled_g0_dr.json,http://54.211.221.249/DepthDuration/v2_depth_discrimination_MTurk/v2_DepthDiscrim_HTML.html#1,1,1351,769,1368,912,8-2-2021,8-40-25,212,,,,,,,2090,511,993,1007,992,505,,3,4,depth_discrimination_stimuli/003010_2014-06-15_12-54-35_094959634447_rgbf000112-resize_0/003010_2014-06-15_12-54-35_094959634447_rgbf000112-resize-original.jpg,4716,905471,1227234,35
983483,DepthScenes,v2_duration_discrimination,discrim_jsons/shuffled_g0_dr.json,http://54.211.221.249/DepthDuration/v2_depth_discrimination_MTurk/v2_DepthDiscrim_HTML.html#1,1,1351,769,1368,912,8-2-2021,8-40-25,213,,,,,,,2090,511,993,1007,992,505,,4,2,depth_discrimination_stimuli/000103_2014-05-14_22-01-17_260595134347_rgbf000152-resize_5/000103_2014-05-14_22-01-17_260595134347_rgbf000152-resize-original.jpg,4464,905471,1227234,35
983483,DepthScenes,v2_duration_discrimination,discrim_jsons/shuffled_g0_dr.json,http://54.211.221.249/DepthDuration/v2_depth_discrimination_MTurk/v2_DepthDiscrim_HTML.html#1,1,1351,769,1368,912,8-2-2021,8-40-25,214,,,,,,,2090,511,993,1007,992,505,,3,2,depth_discrimination_stimuli/002630_2014-06-24_14-47-50_094959634447_rgbf000055-resize_1/002630_2014-06-24_14-47-50_094959634447_rgbf000055-resize-original.jpg,3802,905471,1227234,35
