subjID,experimentName,versionName,sequenceName,url,selected_row,windowWidth,windowHeight,screenWidth,screenHeight,startDate,startTime,trial,stimulus_0,stimulus_1,duration,actual_depth_0,actual_depth_1,discrim_choice,trial_RT,log_fixation,log_sceneDuration1,log_mask1,log_sceneDuration2,log_mask2,unitSelection,meanDepth_rating,navigability_rating,rated_stimulus,rating_RT,experimentTime,totalTime,age
579100,DepthScenes,v2_duration_discrimination,discrim_jsons/shuffled_g0_rotated.json,http://54.211.221.249/DepthDuration/v2_depth_discrimination_MTurk/v2_DepthDiscrim_HTML.html#3,3,1364,625,1364,768,8-2-2021,9-10-41,1,depth_discrimination_stimuli/000109_2014-05-14_23-41-52_260595134347_rgbf000035-resize_9/000109_2014-05-14_23-41-52_260595134347_rgbf000035-resize_9-target.png,depth_discrimination_stimuli/001618_2014-06-20_11-37-31_260595134347_rgbf000027-resize_3/001618_2014-06-20_11-37-31_260595134347_rgbf000027-resize_3-target.png,250,1.3545,1.8725,1,541,501,347,1481,30,495,,,,,,1096370,1418419,38
579100,DepthScenes,v2_duration_discrimination,discrim_jsons/shuffled_g0_rotated.json,http://54.211.221.249/DepthDuration/v2_depth_discrimination_MTurk/v2_DepthDiscrim_HTML.html#3,3,1364,625,1364,768,8-2-2021,9-10-41,2,depth_discrimination_stimuli/000502_2014-06-08_23-02-32_260595134347_rgbf000063-resize_4/000502_2014-06-08_23-02-32_260595134347_rgbf000063-resize_4-target.png,depth_discrimination_stimuli/001092_2014-06-15_17-34-58_260595134347_rgbf000171-resize_3/001092_2014-06-15_17-34-58_260595134347_rgbf000171-resize_3-target.png,1000,2.431,2.6935,0,6301,543,966,997,1003,588,,,,,,1096370,1418419,38
579100,DepthScenes,v2_duration_discrimination,discrim_jsons/shuffled_g0_rotated.json,http://54.211.221.249/DepthDuration/v2_depth_discrimination_MTurk/v2_DepthDiscrim_HTML.html#3,3,1364,625,1364,768,8-2-2021,9-10-41,3,depth_discrimination_stimuli/000953_2014-06-08_11-42-19_260595134347_rgbf000083-resize_0/000953_2014-06-08_11-42-19_260595134347_rgbf000083-resize_0-target.png,depth_discrimination_stimuli/000787_2014-06-08_22-33-53_260595134347_rgbf000175-resize_1/000787_2014-06-08_22-33-53_260595134347_rgbf000175-resize_1-target.png,250,1.369,4.784,0,2423,511,392,914,182,501,,,,,,1096370,1418419,38
579100,DepthScenes,v2_duration_discrimination,discrim_jsons/shuffled_g0_rotated.json,http://54.211.221.249/DepthDuration/v2_depth_discrimination_MTurk/v2_DepthDiscrim_HTML.html#3,3,1364,625,1364,768,8-2-2021,9-10-41,4,depth_discrimination_stimuli/000742_2014-06-08_18-48-09_260595134347_rgbf000164-resize_4/000742_2014-06-08_18-48-09_260595134347_rgbf000164-resize_4-target.png,depth_discrimination_stimuli/003083_2014-06-15_15-21-03_094959634447_rgbf000063-resize_1/003083_2014-06-15_15-21-03_094959634447_rgbf000063-resize_1-target.png,250,4.632,4.1405,1,2694,506,443,854,219,706,,,,,,1096370,1418419,38
579100,DepthScenes,v2_duration_discrimination,discrim_jsons/shuffled_g0_rotated.json,http://54.211.221.249/DepthDuration/v2_depth_discrimination_MTurk/v2_DepthDiscrim_HTML.html#3,3,1364,625,1364,768,8-2-2021,9-10-41,5,depth_discrimination_stimuli/000943_2014-06-09_19-31-07_260595134347_rgbf000128-resize_1/000943_2014-06-09_19-31-07_260595134347_rgbf000128-resize_1-target.png,depth_discrimination_stimuli/001532_2014-06-20_16-50-41_260595134347_rgbf000081-resize_4/001532_2014-06-20_16-50-41_260595134347_rgbf000081-resize_4-target.png,1000,1.9765,1.5758333333333,0,12017,656,845,1052,949,1171,,,,,,1096370,1418419,38
579100,DepthScenes,v2_duration_discrimination,discrim_jsons/shuffled_g0_rotated.json,http://54.211.221.249/DepthDuration/v2_depth_discrimination_MTurk/v2_DepthDiscrim_HTML.html#3,3,1364,625,1364,768,8-2-2021,9-10-41,6,depth_discrimination_stimuli/001056_2014-06-08_18-46-44_260595134347_rgbf000068-resize_0/001056_2014-06-08_18-46-44_260595134347_rgbf000068-resize_0-target.png,depth_discrimination_stimuli/000749_2014-06-08_21-55-06_260595134347_rgbf000070-resize_2/000749_2014-06-08_21-55-06_260595134347_rgbf000070-resize_2-target.png,1000,2.6625,2.331,1,2462,506,1387,676,1069,378,,,,,,1096370,1418419,38
579100,DepthScenes,v2_duration_discrimination,discrim_jsons/shuffled_g0_rotated.json,http://54.211.221.249/DepthDuration/v2_depth_discrimination_MTurk/v2_DepthDiscrim_HTML.html#3,3,1364,625,1364,768,8-2-2021,9-10-41,7,depth_discrimination_stimuli/000869_2014-06-09_20-50-18_260595134347_rgbf000060-resize_3/000869_2014-06-09_20-50-18_260595134347_rgbf000060-resize_3-target.png,depth_discrimination_stimuli/000800_2014-06-08_22-42-09_260595134347_rgbf000095-resize_3/000800_2014-06-08_22-42-09_260595134347_rgbf000095-resize_3-target.png,1000,2.266,2.8,1,2652,891,611,1040,987,562,,,,,,1096370,1418419,38
579100,DepthScenes,v2_duration_discrimination,discrim_jsons/shuffled_g0_rotated.json,http://54.211.221.249/DepthDuration/v2_depth_discrimination_MTurk/v2_DepthDiscrim_HTML.html#3,3,1364,625,1364,768,8-2-2021,9-10-41,8,depth_discrimination_stimuli/002444_2014-06-28_20-32-08_260595134347_rgbf000027-resize_0/002444_2014-06-28_20-32-08_260595134347_rgbf000027-resize_0-target.png,depth_discrimination_stimuli/002103_2014-06-25_20-00-40_260595134347_rgbf000049-resize_0/002103_2014-06-25_20-00-40_260595134347_rgbf000049-resize_0-target.png,250,4.389,4.105,0,1853,1559,33,158,677,112,,,,,,1096370,1418419,38
579100,DepthScenes,v2_duration_discrimination,discrim_jsons/shuffled_g0_rotated.json,http://54.211.221.249/DepthDuration/v2_depth_discrimination_MTurk/v2_DepthDiscrim_HTML.html#3,3,1364,625,1364,768,8-2-2021,9-10-41,9,depth_discrimination_stimuli/001011_2014-06-08_23-18-54_260595134347_rgbf000044-resize_4/001011_2014-06-08_23-18-54_260595134347_rgbf000044-resize_4-target.png,depth_discrimination_stimuli/002043_2014-06-24_20-29-38_260595134347_rgbf000039-resize_4/002043_2014-06-24_20-29-38_260595134347_rgbf000039-resize_4-target.png,250,2.473,2.8435,0,2658,547,339,870,511,238,,,,,,1096370,1418419,38
579100,DepthScenes,v2_duration_discrimination,discrim_jsons/shuffled_g0_rotated.json,http://54.211.221.249/DepthDuration/v2_depth_discrimination_MTurk/v2_DepthDiscrim_HTML.html#3,3,1364,625,1364,768,8-2-2021,9-10-41,10,depth_discrimination_stimuli/000454_2014-06-08_16-37-28_260595134347_rgbf000048-resize_2/000454_2014-06-08_16-37-28_260595134347_rgbf000048-resize_2-target.png,depth_discrimination_stimuli/000375_2014-06-08_11-17-29_260595134347_rgbf000133-resize_2/000375_2014-06-08_11-17-29_260595134347_rgbf000133-resize_2-target.png,1000,1.213,4.718,0,2605,638,923,946,995,531,,,,,,1096370,1418419,38
579100,DepthScenes,v2_duration_discrimination,discrim_jsons/shuffled_g0_rotated.json,http://54.211.221.249/DepthDuration/v2_depth_discrimination_MTurk/v2_DepthDiscrim_HTML.html#3,3,1364,625,1364,768,8-2-2021,9-10-41,11,depth_discrimination_stimuli/002039_2014-06-24_20-22-38_260595134347_rgbf000084-resize_1/002039_2014-06-24_20-22-38_260595134347_rgbf000084-resize_1-target.png,depth_discrimination_stimuli/000691_2014-06-08_13-08-50_260595134347_rgbf000132-resize_3/000691_2014-06-08_13-08-50_260595134347_rgbf000132-resize_3-target.png,1000,4.408,4.153,1,2249,517,1043,1252,688,554,,,,,,1096370,1418419,38
579100,DepthScenes,v2_duration_discrimination,discrim_jsons/shuffled_g0_rotated.json,http://54.211.221.249/DepthDuration/v2_depth_discrimination_MTurk/v2_DepthDiscrim_HTML.html#3,3,1364,625,1364,768,8-2-2021,9-10-41,12,depth_discrimination_stimuli/000709_2014-06-08_13-51-55_260595134347_rgbf000068-resize_3/000709_2014-06-08_13-51-55_260595134347_rgbf000068-resize_3-target.png,depth_discrimination_stimuli/003587_2014-05-23_16-48-02_094959634447_rgbf002384-resize_2/003587_2014-05-23_16-48-02_094959634447_rgbf002384-resize_2-target.png,1000,1.803,1.357,1,1645,548,1128,826,997,526,,,,,,1096370,1418419,38
579100,DepthScenes,v2_duration_discrimination,discrim_jsons/shuffled_g0_rotated.json,http://54.211.221.249/DepthDuration/v2_depth_discrimination_MTurk/v2_DepthDiscrim_HTML.html#3,3,1364,625,1364,768,8-2-2021,9-10-41,13,depth_discrimination_stimuli/002905_2014-06-03_18-04-43_094959634447_rgbf000151-resize_2/002905_2014-06-03_18-04-43_094959634447_rgbf000151-resize_2-target.png,depth_discrimination_stimuli/002340_2014-06-28_20-05-46_260595134347_rgbf000113-resize_0/002340_2014-06-28_20-05-46_260595134347_rgbf000113-resize_0-target.png,1000,2.0295,2.4735,0,3826,583,1291,720,1000,405,,,,,,1096370,1418419,38
579100,DepthScenes,v2_duration_discrimination,discrim_jsons/shuffled_g0_rotated.json,http://54.211.221.249/DepthDuration/v2_depth_discrimination_MTurk/v2_DepthDiscrim_HTML.html#3,3,1364,625,1364,768,8-2-2021,9-10-41,14,depth_discrimination_stimuli/000409_2014-06-04_19-23-33_260595134347_rgbf000067-resize_0/000409_2014-06-04_19-23-33_260595134347_rgbf000067-resize_0-target.png,depth_discrimination_stimuli/000493_2014-06-09_21-01-18_260595134347_rgbf000196-resize_3/000493_2014-06-09_21-01-18_260595134347_rgbf000196-resize_3-target.png,250,3.7335,3.44,0,2618,502,260,1085,206,454,,,,,,1096370,1418419,38
579100,DepthScenes,v2_duration_discrimination,discrim_jsons/shuffled_g0_rotated.json,http://54.211.221.249/DepthDuration/v2_depth_discrimination_MTurk/v2_DepthDiscrim_HTML.html#3,3,1364,625,1364,768,8-2-2021,9-10-41,15,depth_discrimination_stimuli/002675_2014-06-13_16-08-49_094959634447_rgbf000151-resize_2/002675_2014-06-13_16-08-49_094959634447_rgbf000151-resize_2-target.png,depth_discrimination_stimuli/001222_2014-06-17_16-24-06_260595134347_rgbf000073-resize_0/001222_2014-06-17_16-24-06_260595134347_rgbf000073-resize_0-target.png,1000,4.5065,1.4385,0,2656,617,1504,416,967,714,,,,,,1096370,1418419,38
579100,DepthScenes,v2_duration_discrimination,discrim_jsons/shuffled_g0_rotated.json,http://54.211.221.249/DepthDuration/v2_depth_discrimination_MTurk/v2_DepthDiscrim_HTML.html#3,3,1364,625,1364,768,8-2-2021,9-10-41,16,depth_discrimination_stimuli/001016_2014-06-09_16-16-10_260595134347_rgbf000112-resize_5/001016_2014-06-09_16-16-10_260595134347_rgbf000112-resize_5-target.png,depth_discrimination_stimuli/002199_2014-06-28_18-33-56_260595134347_rgbf000074-resize_0/002199_2014-06-28_18-33-56_260595134347_rgbf000074-resize_0-target.png,250,1.6565,1.996,0,9183,873,15,962,404,243,,,,,,1096370,1418419,38
579100,DepthScenes,v2_duration_discrimination,discrim_jsons/shuffled_g0_rotated.json,http://54.211.221.249/DepthDuration/v2_depth_discrimination_MTurk/v2_DepthDiscrim_HTML.html#3,3,1364,625,1364,768,8-2-2021,9-10-41,17,depth_discrimination_stimuli/000470_2014-06-09_19-42-40_260595134347_rgbf000094-resize_1/000470_2014-06-09_19-42-40_260595134347_rgbf000094-resize_1-target.png,depth_discrimination_stimuli/002953_2014-06-08_17-32-18_094959634447_rgbf000059-resize_5/002953_2014-06-08_17-32-18_094959634447_rgbf000059-resize_5-target.png,250,1.831,1.551,1,1684,665,171,1255,14,407,,,,,,1096370,1418419,38
579100,DepthScenes,v2_duration_discrimination,discrim_jsons/shuffled_g0_rotated.json,http://54.211.221.249/DepthDuration/v2_depth_discrimination_MTurk/v2_DepthDiscrim_HTML.html#3,3,1364,625,1364,768,8-2-2021,9-10-41,18,depth_discrimination_stimuli/000569_2014-06-09_22-51-47_260595134347_rgbf000141-resize_3/000569_2014-06-09_22-51-47_260595134347_rgbf000141-resize_3-target.png,depth_discrimination_stimuli/000868_2014-06-09_20-49-52_260595134347_rgbf000064-resize_4/000868_2014-06-09_20-49-52_260595134347_rgbf000064-resize_4-target.png,250,4.512,1.2815,0,782,544,271,984,219,534,,,,,,1096370,1418419,38
579100,DepthScenes,v2_duration_discrimination,discrim_jsons/shuffled_g0_rotated.json,http://54.211.221.249/DepthDuration/v2_depth_discrimination_MTurk/v2_DepthDiscrim_HTML.html#3,3,1364,625,1364,768,8-2-2021,9-10-41,19,depth_discrimination_stimuli/001055_2014-06-08_18-45-35_260595134347_rgbf000111-resize_4/001055_2014-06-08_18-45-35_260595134347_rgbf000111-resize_4-target.png,depth_discrimination_stimuli/000929_2014-06-09_16-33-19_260595134347_rgbf000139-resize_0/000929_2014-06-09_16-33-19_260595134347_rgbf000139-resize_0-target.png,1000,2.429,2.868,1,1904,506,1002,1076,916,591,,,,,,1096370,1418419,38
579100,DepthScenes,v2_duration_discrimination,discrim_jsons/shuffled_g0_rotated.json,http://54.211.221.249/DepthDuration/v2_depth_discrimination_MTurk/v2_DepthDiscrim_HTML.html#3,3,1364,625,1364,768,8-2-2021,9-10-41,20,depth_discrimination_stimuli/001164_2014-06-17_15-35-46_260595134347_rgbf000085-resize_3/001164_2014-06-17_15-35-46_260595134347_rgbf000085-resize_3-target.png,depth_discrimination_stimuli/002118_2014-06-25_20-32-08_260595134347_rgbf000078-resize_1/002118_2014-06-25_20-32-08_260595134347_rgbf000078-resize_1-target.png,1000,2.354,2.646,0,1729,662,839,1190,815,508,,,,,,1096370,1418419,38
579100,DepthScenes,v2_duration_discrimination,discrim_jsons/shuffled_g0_rotated.json,http://54.211.221.249/DepthDuration/v2_depth_discrimination_MTurk/v2_DepthDiscrim_HTML.html#3,3,1364,625,1364,768,8-2-2021,9-10-41,21,depth_discrimination_stimuli/000866_2014-06-09_20-45-42_260595134347_rgbf000139-resize_1/000866_2014-06-09_20-45-42_260595134347_rgbf000139-resize_1-target.png,depth_discrimination_stimuli/003490_2014-05-21_15-50-11_094959634447_rgbf000101-resize_3/003490_2014-05-21_15-50-11_094959634447_rgbf000101-resize_3-target.png,1000,3.2155,3.6445,0,4035,550,1212,1287,562,392,,,,,,1096370,1418419,38
579100,DepthScenes,v2_duration_discrimination,discrim_jsons/shuffled_g0_rotated.json,http://54.211.221.249/DepthDuration/v2_depth_discrimination_MTurk/v2_DepthDiscrim_HTML.html#3,3,1364,625,1364,768,8-2-2021,9-10-41,22,depth_discrimination_stimuli/001584_2014-06-20_11-07-43_260595134347_rgbf000002-resize_1/001584_2014-06-20_11-07-43_260595134347_rgbf000002-resize_1-target.png,depth_discrimination_stimuli/002805_2014-06-22_19-54-03_094959634447_rgbf000079-resize_1/002805_2014-06-22_19-54-03_094959634447_rgbf000079-resize_1-target.png,250,3.53,3.144,0,2169,519,247,1013,287,437,,,,,,1096370,1418419,38
579100,DepthScenes,v2_duration_discrimination,discrim_jsons/shuffled_g0_rotated.json,http://54.211.221.249/DepthDuration/v2_depth_discrimination_MTurk/v2_DepthDiscrim_HTML.html#3,3,1364,625,1364,768,8-2-2021,9-10-41,23,depth_discrimination_stimuli/002414_2014-06-28_20-24-58_260595134347_rgbf000067-resize_4/002414_2014-06-28_20-24-58_260595134347_rgbf000067-resize_4-target.png,depth_discrimination_stimuli/001450_2014-06-19_17-02-03_260595134347_rgbf000203-resize_4/001450_2014-06-19_17-02-03_260595134347_rgbf000203-resize_4-target.png,250,4.363,4.0106666666667,1,2197,531,232,1282,23,439,,,,,,1096370,1418419,38
579100,DepthScenes,v2_duration_discrimination,discrim_jsons/shuffled_g0_rotated.json,http://54.211.221.249/DepthDuration/v2_depth_discrimination_MTurk/v2_DepthDiscrim_HTML.html#3,3,1364,625,1364,768,8-2-2021,9-10-41,24,depth_discrimination_stimuli/002072_2014-06-24_21-48-06_260595134347_rgbf000115-resize_0/002072_2014-06-24_21-48-06_260595134347_rgbf000115-resize_0-target.png,depth_discrimination_stimuli/001012_2014-06-08_23-19-38_260595134347_rgbf000057-resize_0/001012_2014-06-08_23-19-38_260595134347_rgbf000057-resize_0-target.png,250,4.702,1.38325,0,2126,501,268,988,251,544,,,,,,1096370,1418419,38
579100,DepthScenes,v2_duration_discrimination,discrim_jsons/shuffled_g0_rotated.json,http://54.211.221.249/DepthDuration/v2_depth_discrimination_MTurk/v2_DepthDiscrim_HTML.html#3,3,1364,625,1364,768,8-2-2021,9-10-41,25,depth_discrimination_stimuli/001498_2014-06-19_17-45-14_260595134347_rgbf000129-resize_4/001498_2014-06-19_17-45-14_260595134347_rgbf000129-resize_4-target.png,depth_discrimination_stimuli/003125_2014-05-12_10-39-22_094959634447_rgbf000100-resize_0/003125_2014-05-12_10-39-22_094959634447_rgbf000100-resize_0-target.png,1000,1.4075,4.8655,0,11527,613,1012,912,1134,352,,,,,,1096370,1418419,38
579100,DepthScenes,v2_duration_discrimination,discrim_jsons/shuffled_g0_rotated.json,http://54.211.221.249/DepthDuration/v2_depth_discrimination_MTurk/v2_DepthDiscrim_HTML.html#3,3,1364,625,1364,768,8-2-2021,9-10-41,26,depth_discrimination_stimuli/002949_2014-06-26_15-57-42_094959634447_rgbf000079-resize_1/002949_2014-06-26_15-57-42_094959634447_rgbf000079-resize_1-target.png,depth_discrimination_stimuli/003495_2014-05-21_16-01-51_094959634447_rgbf000100-resize_3/003495_2014-05-21_16-01-51_094959634447_rgbf000100-resize_3-target.png,250,1.8915,1.6255,1,909,541,226,1003,247,550,,,,,,1096370,1418419,38
579100,DepthScenes,v2_duration_discrimination,discrim_jsons/shuffled_g0_rotated.json,http://54.211.221.249/DepthDuration/v2_depth_discrimination_MTurk/v2_DepthDiscrim_HTML.html#3,3,1364,625,1364,768,8-2-2021,9-10-41,27,depth_discrimination_stimuli/001136_2014-06-17_15-19-41_260595134347_rgbf000076-resize_3/001136_2014-06-17_15-19-41_260595134347_rgbf000076-resize_3-target.png,depth_discrimination_stimuli/002549_2014-06-24_13-41-39_094959634447_rgbf000022-resize_3/002549_2014-06-24_13-41-39_094959634447_rgbf000022-resize_3-target.png,1000,1.8655,1.476,0,2260,579,918,1071,937,500,,,,,,1096370,1418419,38
579100,DepthScenes,v2_duration_discrimination,discrim_jsons/shuffled_g0_rotated.json,http://54.211.221.249/DepthDuration/v2_depth_discrimination_MTurk/v2_DepthDiscrim_HTML.html#3,3,1364,625,1364,768,8-2-2021,9-10-41,28,depth_discrimination_stimuli/002509_2014-06-24_13-19-22_094959634447_rgbf000077-resize_0/002509_2014-06-24_13-19-22_094959634447_rgbf000077-resize_0-target.png,depth_discrimination_stimuli/000549_2014-06-08_22-10-24_260595134347_rgbf000247-resize_3/000549_2014-06-08_22-10-24_260595134347_rgbf000247-resize_3-target.png,1000,1.3065,1.841,0,1673,505,1002,1001,1029,473,,,,,,1096370,1418419,38
579100,DepthScenes,v2_duration_discrimination,discrim_jsons/shuffled_g0_rotated.json,http://54.211.221.249/DepthDuration/v2_depth_discrimination_MTurk/v2_DepthDiscrim_HTML.html#3,3,1364,625,1364,768,8-2-2021,9-10-41,29,depth_discrimination_stimuli/000542_2014-06-08_18-27-08_260595134347_rgbf000118-resize_1/000542_2014-06-08_18-27-08_260595134347_rgbf000118-resize_1-target.png,depth_discrimination_stimuli/003292_2014-05-14_21-53-49_094959634447_rgbf000100-resize_2/003292_2014-05-14_21-53-49_094959634447_rgbf000100-resize_2-target.png,1000,3,3.4815,0,6429,505,997,1000,1000,526,,,,,,1096370,1418419,38
579100,DepthScenes,v2_duration_discrimination,discrim_jsons/shuffled_g0_rotated.json,http://54.211.221.249/DepthDuration/v2_depth_discrimination_MTurk/v2_DepthDiscrim_HTML.html#3,3,1364,625,1364,768,8-2-2021,9-10-41,30,depth_discrimination_stimuli/001148_2014-06-17_15-26-42_260595134347_rgbf000129-resize_0/001148_2014-06-17_15-26-42_260595134347_rgbf000129-resize_0-target.png,depth_discrimination_stimuli/000556_2014-06-09_22-42-56_260595134347_rgbf000214-resize_1/000556_2014-06-09_22-42-56_260595134347_rgbf000214-resize_1-target.png,1000,4.368,4.8415,1,4609,542,961,1003,1007,491,,,,,,1096370,1418419,38
579100,DepthScenes,v2_duration_discrimination,discrim_jsons/shuffled_g0_rotated.json,http://54.211.221.249/DepthDuration/v2_depth_discrimination_MTurk/v2_DepthDiscrim_HTML.html#3,3,1364,625,1364,768,8-2-2021,9-10-41,31,depth_discrimination_stimuli/001181_2014-06-17_15-50-57_260595134347_rgbf000106-resize_4/001181_2014-06-17_15-50-57_260595134347_rgbf000106-resize_4-target.png,depth_discrimination_stimuli/001158_2014-06-17_15-32-16_260595134347_rgbf000138-resize_2/001158_2014-06-17_15-32-16_260595134347_rgbf000138-resize_2-target.png,250,4.149,4.5315,1,3511,880,16,948,165,505,,,,,,1096370,1418419,38
579100,DepthScenes,v2_duration_discrimination,discrim_jsons/shuffled_g0_rotated.json,http://54.211.221.249/DepthDuration/v2_depth_discrimination_MTurk/v2_DepthDiscrim_HTML.html#3,3,1364,625,1364,768,8-2-2021,9-10-41,32,depth_discrimination_stimuli/001235_2014-06-17_16-37-36_260595134347_rgbf000084-resize_4/001235_2014-06-17_16-37-36_260595134347_rgbf000084-resize_4-target.png,depth_discrimination_stimuli/001197_2014-06-17_16-01-50_260595134347_rgbf000103-resize_4/001197_2014-06-17_16-01-50_260595134347_rgbf000103-resize_4-target.png,250,3.6605,3.4025,0,2352,547,206,1002,247,614,,,,,,1096370,1418419,38
579100,DepthScenes,v2_duration_discrimination,discrim_jsons/shuffled_g0_rotated.json,http://54.211.221.249/DepthDuration/v2_depth_discrimination_MTurk/v2_DepthDiscrim_HTML.html#3,3,1364,625,1364,768,8-2-2021,9-10-41,33,depth_discrimination_stimuli/001032_2014-06-08_13-23-17_260595134347_rgbf000021-resize_3/001032_2014-06-08_13-23-17_260595134347_rgbf000021-resize_3-target.png,depth_discrimination_stimuli/002323_2014-06-28_20-01-54_260595134347_rgbf000051-resize_4/002323_2014-06-28_20-01-54_260595134347_rgbf000051-resize_4-target.png,250,3.2725,3.731,0,2373,503,478,770,307,890,,,,,,1096370,1418419,38
579100,DepthScenes,v2_duration_discrimination,discrim_jsons/shuffled_g0_rotated.json,http://54.211.221.249/DepthDuration/v2_depth_discrimination_MTurk/v2_DepthDiscrim_HTML.html#3,3,1364,625,1364,768,8-2-2021,9-10-41,34,depth_discrimination_stimuli/003395_2014-05-20_15-39-18_094959634447_rgbf000101-resize_0/003395_2014-05-20_15-39-18_094959634447_rgbf000101-resize_0-target.png,depth_discrimination_stimuli/001540_2014-06-20_17-01-05_260595134347_rgbf000086-resize_2/001540_2014-06-20_17-01-05_260595134347_rgbf000086-resize_2-target.png,1000,4.835,1.459,0,2251,954,554,999,1329,188,,,,,,1096370,1418419,38
579100,DepthScenes,v2_duration_discrimination,discrim_jsons/shuffled_g0_rotated.json,http://54.211.221.249/DepthDuration/v2_depth_discrimination_MTurk/v2_DepthDiscrim_HTML.html#3,3,1364,625,1364,768,8-2-2021,9-10-41,35,depth_discrimination_stimuli/001170_2014-06-17_15-43-44_260595134347_rgbf000096-resize_6/001170_2014-06-17_15-43-44_260595134347_rgbf000096-resize_6-target.png,depth_discrimination_stimuli/002364_2014-06-28_20-11-05_260595134347_rgbf000042-resize_0/002364_2014-06-28_20-11-05_260595134347_rgbf000042-resize_0-target.png,250,1.191,4.682,0,5794,504,373,922,254,573,,,,,,1096370,1418419,38
579100,DepthScenes,v2_duration_discrimination,discrim_jsons/shuffled_g0_rotated.json,http://54.211.221.249/DepthDuration/v2_depth_discrimination_MTurk/v2_DepthDiscrim_HTML.html#3,3,1364,625,1364,768,8-2-2021,9-10-41,36,depth_discrimination_stimuli/000137_2014-05-20_17-04-49_260595134347_rgbf000120-resize_1/000137_2014-05-20_17-04-49_260595134347_rgbf000120-resize_1-target.png,depth_discrimination_stimuli/003423_2014-05-21_10-23-26_094959634447_rgbf002665-resize_2/003423_2014-05-21_10-23-26_094959634447_rgbf002665-resize_2-target.png,250,3.786,3.2575,1,2745,650,830,401,128,643,,,,,,1096370,1418419,38
579100,DepthScenes,v2_duration_discrimination,discrim_jsons/shuffled_g0_rotated.json,http://54.211.221.249/DepthDuration/v2_depth_discrimination_MTurk/v2_DepthDiscrim_HTML.html#3,3,1364,625,1364,768,8-2-2021,9-10-41,37,depth_discrimination_stimuli/002678_2014-06-13_16-15-32_094959634447_rgbf000151-resize_6/002678_2014-06-13_16-15-32_094959634447_rgbf000151-resize_6-target.png,depth_discrimination_stimuli/000927_2014-06-09_16-32-30_260595134347_rgbf000123-resize_3/000927_2014-06-09_16-32-30_260595134347_rgbf000123-resize_3-target.png,250,2.183,2.6785,1,974,699,53,1056,207,665,,,,,,1096370,1418419,38
579100,DepthScenes,v2_duration_discrimination,discrim_jsons/shuffled_g0_rotated.json,http://54.211.221.249/DepthDuration/v2_depth_discrimination_MTurk/v2_DepthDiscrim_HTML.html#3,3,1364,625,1364,768,8-2-2021,9-10-41,38,depth_discrimination_stimuli/002748_2014-06-22_19-07-22_094959634447_rgbf000078-resize_1/002748_2014-06-22_19-07-22_094959634447_rgbf000078-resize_1-target.png,depth_discrimination_stimuli/001808_2014-06-26_20-50-58_260595134347_rgbf000029-resize_1/001808_2014-06-26_20-50-58_260595134347_rgbf000029-resize_1-target.png,250,4.6705,4.249,1,1645,518,413,874,208,510,,,,,,1096370,1418419,38
579100,DepthScenes,v2_duration_discrimination,discrim_jsons/shuffled_g0_rotated.json,http://54.211.221.249/DepthDuration/v2_depth_discrimination_MTurk/v2_DepthDiscrim_HTML.html#3,3,1364,625,1364,768,8-2-2021,9-10-41,39,depth_discrimination_stimuli/001133_2014-06-17_14-49-16_260595134347_rgbf000100-resize_0/001133_2014-06-17_14-49-16_260595134347_rgbf000100-resize_0-target.png,depth_discrimination_stimuli/002467_2014-06-28_20-38-07_260595134347_rgbf000026-resize_2/002467_2014-06-28_20-38-07_260595134347_rgbf000026-resize_2-target.png,250,4.2115,4.742,0,1608,513,301,940,247,513,,,,,,1096370,1418419,38
579100,DepthScenes,v2_duration_discrimination,discrim_jsons/shuffled_g0_rotated.json,http://54.211.221.249/DepthDuration/v2_depth_discrimination_MTurk/v2_DepthDiscrim_HTML.html#3,3,1364,625,1364,768,8-2-2021,9-10-41,40,depth_discrimination_stimuli/003081_2014-06-15_15-19-16_094959634447_rgbf000150-resize_1/003081_2014-06-15_15-19-16_094959634447_rgbf000150-resize_1-target.png,depth_discrimination_stimuli/002660_2014-06-13_15-44-18_094959634447_rgbf001878-resize_2/002660_2014-06-13_15-44-18_094959634447_rgbf001878-resize_2-target.png,1000,3.9125,3.576,0,4744,557,1250,759,1359,177,,,,,,1096370,1418419,38
579100,DepthScenes,v2_duration_discrimination,discrim_jsons/shuffled_g0_rotated.json,http://54.211.221.249/DepthDuration/v2_depth_discrimination_MTurk/v2_DepthDiscrim_HTML.html#3,3,1364,625,1364,768,8-2-2021,9-10-41,40,,,,,,,4744,557,1250,759,1359,177,,,,,,1096370,1418419,38
579100,DepthScenes,v2_duration_discrimination,discrim_jsons/shuffled_g0_rotated.json,http://54.211.221.249/DepthDuration/v2_depth_discrimination_MTurk/v2_DepthDiscrim_HTML.html#3,3,1347,625,1364,768,8-2-2021,9-10-41,42,,,,,,,4744,557,1250,759,1359,177,,2,4,depth_discrimination_stimuli/002953_2014-06-08_17-32-18_094959634447_rgbf000059-resize_5/002953_2014-06-08_17-32-18_094959634447_rgbf000059-resize-original.jpg,12647,1096370,1418419,38
579100,DepthScenes,v2_duration_discrimination,discrim_jsons/shuffled_g0_rotated.json,http://54.211.221.249/DepthDuration/v2_depth_discrimination_MTurk/v2_DepthDiscrim_HTML.html#3,3,1347,625,1364,768,8-2-2021,9-10-41,43,,,,,,,4744,557,1250,759,1359,177,,3,2,depth_discrimination_stimuli/002323_2014-06-28_20-01-54_260595134347_rgbf000051-resize_4/002323_2014-06-28_20-01-54_260595134347_rgbf000051-resize-original.jpg,7337,1096370,1418419,38
579100,DepthScenes,v2_duration_discrimination,discrim_jsons/shuffled_g0_rotated.json,http://54.211.221.249/DepthDuration/v2_depth_discrimination_MTurk/v2_DepthDiscrim_HTML.html#3,3,1347,625,1364,768,8-2-2021,9-10-41,44,,,,,,,4744,557,1250,759,1359,177,,5,5,depth_discrimination_stimuli/002118_2014-06-25_20-32-08_260595134347_rgbf000078-resize_1/002118_2014-06-25_20-32-08_260595134347_rgbf000078-resize-original.jpg,8053,1096370,1418419,38
579100,DepthScenes,v2_duration_discrimination,discrim_jsons/shuffled_g0_rotated.json,http://54.211.221.249/DepthDuration/v2_depth_discrimination_MTurk/v2_DepthDiscrim_HTML.html#3,3,1347,625,1364,768,8-2-2021,9-10-41,45,,,,,,,4744,557,1250,759,1359,177,,2,2,depth_discrimination_stimuli/001449_2014-06-19_17-01-27_260595134347_rgbf000116-resize_2/001449_2014-06-19_17-01-27_260595134347_rgbf000116-resize-original.jpg,5754,1096370,1418419,38
579100,DepthScenes,v2_duration_discrimination,discrim_jsons/shuffled_g0_rotated.json,http://54.211.221.249/DepthDuration/v2_depth_discrimination_MTurk/v2_DepthDiscrim_HTML.html#3,3,1347,625,1364,768,8-2-2021,9-10-41,46,,,,,,,4744,557,1250,759,1359,177,,4,4,depth_discrimination_stimuli/002136_2014-06-25_21-18-03_260595134347_rgbf000109-resize_3/002136_2014-06-25_21-18-03_260595134347_rgbf000109-resize-original.jpg,6512,1096370,1418419,38
579100,DepthScenes,v2_duration_discrimination,discrim_jsons/shuffled_g0_rotated.json,http://54.211.221.249/DepthDuration/v2_depth_discrimination_MTurk/v2_DepthDiscrim_HTML.html#3,3,1347,625,1364,768,8-2-2021,9-10-41,47,,,,,,,4744,557,1250,759,1359,177,,2,5,depth_discrimination_stimuli/000773_2014-06-08_22-24-54_260595134347_rgbf000093-resize_1/000773_2014-06-08_22-24-54_260595134347_rgbf000093-resize-original.jpg,11664,1096370,1418419,38
579100,DepthScenes,v2_duration_discrimination,discrim_jsons/shuffled_g0_rotated.json,http://54.211.221.249/DepthDuration/v2_depth_discrimination_MTurk/v2_DepthDiscrim_HTML.html#3,3,1347,625,1364,768,8-2-2021,9-10-41,48,,,,,,,4744,557,1250,759,1359,177,,2,4,depth_discrimination_stimuli/000943_2014-06-09_19-31-07_260595134347_rgbf000128-resize_1/000943_2014-06-09_19-31-07_260595134347_rgbf000128-resize-original.jpg,3845,1096370,1418419,38
579100,DepthScenes,v2_duration_discrimination,discrim_jsons/shuffled_g0_rotated.json,http://54.211.221.249/DepthDuration/v2_depth_discrimination_MTurk/v2_DepthDiscrim_HTML.html#3,3,1347,625,1364,768,8-2-2021,9-10-41,49,,,,,,,4744,557,1250,759,1359,177,,5,3,depth_discrimination_stimuli/001181_2014-06-17_15-50-57_260595134347_rgbf000106-resize_4/001181_2014-06-17_15-50-57_260595134347_rgbf000106-resize-original.jpg,4852,1096370,1418419,38
579100,DepthScenes,v2_duration_discrimination,discrim_jsons/shuffled_g0_rotated.json,http://54.211.221.249/DepthDuration/v2_depth_discrimination_MTurk/v2_DepthDiscrim_HTML.html#3,3,1347,625,1364,768,8-2-2021,9-10-41,50,,,,,,,4744,557,1250,759,1359,177,,4,3,depth_discrimination_stimuli/003490_2014-05-21_15-50-11_094959634447_rgbf000101-resize_3/003490_2014-05-21_15-50-11_094959634447_rgbf000101-resize-original.jpg,3341,1096370,1418419,38
579100,DepthScenes,v2_duration_discrimination,discrim_jsons/shuffled_g0_rotated.json,http://54.211.221.249/DepthDuration/v2_depth_discrimination_MTurk/v2_DepthDiscrim_HTML.html#3,3,1347,625,1364,768,8-2-2021,9-10-41,51,,,,,,,4744,557,1250,759,1359,177,,4,2,depth_discrimination_stimuli/002905_2014-06-03_18-04-43_094959634447_rgbf000151-resize_2/002905_2014-06-03_18-04-43_094959634447_rgbf000151-resize-original.jpg,3826,1096370,1418419,38
579100,DepthScenes,v2_duration_discrimination,discrim_jsons/shuffled_g0_rotated.json,http://54.211.221.249/DepthDuration/v2_depth_discrimination_MTurk/v2_DepthDiscrim_HTML.html#3,3,1347,625,1364,768,8-2-2021,9-10-41,52,,,,,,,4744,557,1250,759,1359,177,,2,3,depth_discrimination_stimuli/001570_2014-06-20_17-21-09_260595134347_rgbf000135-resize_4/001570_2014-06-20_17-21-09_260595134347_rgbf000135-resize-original.jpg,3394,1096370,1418419,38
579100,DepthScenes,v2_duration_discrimination,discrim_jsons/shuffled_g0_rotated.json,http://54.211.221.249/DepthDuration/v2_depth_discrimination_MTurk/v2_DepthDiscrim_HTML.html#3,3,1347,625,1364,768,8-2-2021,9-10-41,53,,,,,,,4744,557,1250,759,1359,177,,2,4,depth_discrimination_stimuli/002039_2014-06-24_20-22-38_260595134347_rgbf000084-resize_1/002039_2014-06-24_20-22-38_260595134347_rgbf000084-resize-original.jpg,4278,1096370,1418419,38
579100,DepthScenes,v2_duration_discrimination,discrim_jsons/shuffled_g0_rotated.json,http://54.211.221.249/DepthDuration/v2_depth_discrimination_MTurk/v2_DepthDiscrim_HTML.html#3,3,1347,625,1364,768,8-2-2021,9-10-41,54,,,,,,,4744,557,1250,759,1359,177,,4,4,depth_discrimination_stimuli/003129_2014-05-12_10-48-10_094959634447_rgbf000100-resize_0/003129_2014-05-12_10-48-10_094959634447_rgbf000100-resize-original.jpg,2562,1096370,1418419,38
579100,DepthScenes,v2_duration_discrimination,discrim_jsons/shuffled_g0_rotated.json,http://54.211.221.249/DepthDuration/v2_depth_discrimination_MTurk/v2_DepthDiscrim_HTML.html#3,3,1347,625,1364,768,8-2-2021,9-10-41,55,,,,,,,4744,557,1250,759,1359,177,,3,4,depth_discrimination_stimuli/001571_2014-06-20_17-21-32_260595134347_rgbf000089-resize_1/001571_2014-06-20_17-21-32_260595134347_rgbf000089-resize-original.jpg,3280,1096370,1418419,38
579100,DepthScenes,v2_duration_discrimination,discrim_jsons/shuffled_g0_rotated.json,http://54.211.221.249/DepthDuration/v2_depth_discrimination_MTurk/v2_DepthDiscrim_HTML.html#3,3,1347,625,1364,768,8-2-2021,9-10-41,56,,,,,,,4744,557,1250,759,1359,177,,4,4,depth_discrimination_stimuli/000734_2014-06-08_17-39-11_260595134347_rgbf000128-resize_2/000734_2014-06-08_17-39-11_260595134347_rgbf000128-resize-original.jpg,3661,1096370,1418419,38
579100,DepthScenes,v2_duration_discrimination,discrim_jsons/shuffled_g0_rotated.json,http://54.211.221.249/DepthDuration/v2_depth_discrimination_MTurk/v2_DepthDiscrim_HTML.html#3,3,1347,625,1364,768,8-2-2021,9-10-41,57,,,,,,,4744,557,1250,759,1359,177,,3,4,depth_discrimination_stimuli/001815_2014-06-26_20-52-55_260595134347_rgbf000020-resize_0/001815_2014-06-26_20-52-55_260595134347_rgbf000020-resize-original.jpg,3936,1096370,1418419,38
579100,DepthScenes,v2_duration_discrimination,discrim_jsons/shuffled_g0_rotated.json,http://54.211.221.249/DepthDuration/v2_depth_discrimination_MTurk/v2_DepthDiscrim_HTML.html#3,3,1347,625,1364,768,8-2-2021,9-10-41,58,,,,,,,4744,557,1250,759,1359,177,,4,4,depth_discrimination_stimuli/000109_2014-05-14_23-41-52_260595134347_rgbf000035-resize_9/000109_2014-05-14_23-41-52_260595134347_rgbf000035-resize-original.jpg,4894,1096370,1418419,38
579100,DepthScenes,v2_duration_discrimination,discrim_jsons/shuffled_g0_rotated.json,http://54.211.221.249/DepthDuration/v2_depth_discrimination_MTurk/v2_DepthDiscrim_HTML.html#3,3,1347,625,1364,768,8-2-2021,9-10-41,59,,,,,,,4744,557,1250,759,1359,177,,3,3,depth_discrimination_stimuli/001532_2014-06-20_16-50-41_260595134347_rgbf000081-resize_4/001532_2014-06-20_16-50-41_260595134347_rgbf000081-resize-original.jpg,3502,1096370,1418419,38
579100,DepthScenes,v2_duration_discrimination,discrim_jsons/shuffled_g0_rotated.json,http://54.211.221.249/DepthDuration/v2_depth_discrimination_MTurk/v2_DepthDiscrim_HTML.html#3,3,1347,625,1364,768,8-2-2021,9-10-41,60,,,,,,,4744,557,1250,759,1359,177,,2,4,depth_discrimination_stimuli/002568_2014-06-24_13-59-21_094959634447_rgbf000062-resize_4/002568_2014-06-24_13-59-21_094959634447_rgbf000062-resize-original.jpg,9561,1096370,1418419,38
579100,DepthScenes,v2_duration_discrimination,discrim_jsons/shuffled_g0_rotated.json,http://54.211.221.249/DepthDuration/v2_depth_discrimination_MTurk/v2_DepthDiscrim_HTML.html#3,3,1347,625,1364,768,8-2-2021,9-10-41,61,,,,,,,4744,557,1250,759,1359,177,,4,4,depth_discrimination_stimuli/001029_2014-06-08_13-17-57_260595134347_rgbf000065-resize_1/001029_2014-06-08_13-17-57_260595134347_rgbf000065-resize-original.jpg,4414,1096370,1418419,38
579100,DepthScenes,v2_duration_discrimination,discrim_jsons/shuffled_g0_rotated.json,http://54.211.221.249/DepthDuration/v2_depth_discrimination_MTurk/v2_DepthDiscrim_HTML.html#3,3,1347,625,1364,768,8-2-2021,9-10-41,62,,,,,,,4744,557,1250,759,1359,177,,4,4,depth_discrimination_stimuli/000682_2014-06-08_23-14-58_260595134347_rgbf000041-resize_5/000682_2014-06-08_23-14-58_260595134347_rgbf000041-resize-original.jpg,7745,1096370,1418419,38
579100,DepthScenes,v2_duration_discrimination,discrim_jsons/shuffled_g0_rotated.json,http://54.211.221.249/DepthDuration/v2_depth_discrimination_MTurk/v2_DepthDiscrim_HTML.html#3,3,1347,625,1364,768,8-2-2021,9-10-41,63,,,,,,,4744,557,1250,759,1359,177,,3,3,depth_discrimination_stimuli/002748_2014-06-22_19-07-22_094959634447_rgbf000078-resize_1/002748_2014-06-22_19-07-22_094959634447_rgbf000078-resize-original.jpg,3073,1096370,1418419,38
579100,DepthScenes,v2_duration_discrimination,discrim_jsons/shuffled_g0_rotated.json,http://54.211.221.249/DepthDuration/v2_depth_discrimination_MTurk/v2_DepthDiscrim_HTML.html#3,3,1347,625,1364,768,8-2-2021,9-10-41,64,,,,,,,4744,557,1250,759,1359,177,,4,4,depth_discrimination_stimuli/000735_2014-06-08_18-23-50_260595134347_rgbf000163-resize_2/000735_2014-06-08_18-23-50_260595134347_rgbf000163-resize-original.jpg,3536,1096370,1418419,38
579100,DepthScenes,v2_duration_discrimination,discrim_jsons/shuffled_g0_rotated.json,http://54.211.221.249/DepthDuration/v2_depth_discrimination_MTurk/v2_DepthDiscrim_HTML.html#3,3,1347,625,1364,768,8-2-2021,9-10-41,65,,,,,,,4744,557,1250,759,1359,177,,4,4,depth_discrimination_stimuli/002199_2014-06-28_18-33-56_260595134347_rgbf000074-resize_0/002199_2014-06-28_18-33-56_260595134347_rgbf000074-resize-original.jpg,5596,1096370,1418419,38
579100,DepthScenes,v2_duration_discrimination,discrim_jsons/shuffled_g0_rotated.json,http://54.211.221.249/DepthDuration/v2_depth_discrimination_MTurk/v2_DepthDiscrim_HTML.html#3,3,1347,625,1364,768,8-2-2021,9-10-41,66,,,,,,,4744,557,1250,759,1359,177,,4,4,depth_discrimination_stimuli/003079_2014-06-15_15-18-20_094959634447_rgbf000152-resize_8/003079_2014-06-15_15-18-20_094959634447_rgbf000152-resize-original.jpg,2932,1096370,1418419,38
579100,DepthScenes,v2_duration_discrimination,discrim_jsons/shuffled_g0_rotated.json,http://54.211.221.249/DepthDuration/v2_depth_discrimination_MTurk/v2_DepthDiscrim_HTML.html#3,3,1347,625,1364,768,8-2-2021,9-10-41,67,,,,,,,4744,557,1250,759,1359,177,,3,4,depth_discrimination_stimuli/002467_2014-06-28_20-38-07_260595134347_rgbf000026-resize_2/002467_2014-06-28_20-38-07_260595134347_rgbf000026-resize-original.jpg,3939,1096370,1418419,38
579100,DepthScenes,v2_duration_discrimination,discrim_jsons/shuffled_g0_rotated.json,http://54.211.221.249/DepthDuration/v2_depth_discrimination_MTurk/v2_DepthDiscrim_HTML.html#3,3,1347,625,1364,768,8-2-2021,9-10-41,68,,,,,,,4744,557,1250,759,1359,177,,4,4,depth_discrimination_stimuli/000409_2014-06-04_19-23-33_260595134347_rgbf000067-resize_0/000409_2014-06-04_19-23-33_260595134347_rgbf000067-resize-original.jpg,2353,1096370,1418419,38
579100,DepthScenes,v2_duration_discrimination,discrim_jsons/shuffled_g0_rotated.json,http://54.211.221.249/DepthDuration/v2_depth_discrimination_MTurk/v2_DepthDiscrim_HTML.html#3,3,1347,625,1364,768,8-2-2021,9-10-41,69,,,,,,,4744,557,1250,759,1359,177,,4,3,depth_discrimination_stimuli/000555_2014-06-09_22-42-23_260595134347_rgbf000037-resize_4/000555_2014-06-09_22-42-23_260595134347_rgbf000037-resize-original.jpg,3274,1096370,1418419,38
579100,DepthScenes,v2_duration_discrimination,discrim_jsons/shuffled_g0_rotated.json,http://54.211.221.249/DepthDuration/v2_depth_discrimination_MTurk/v2_DepthDiscrim_HTML.html#3,3,1347,625,1364,768,8-2-2021,9-10-41,70,,,,,,,4744,557,1250,759,1359,177,,4,3,depth_discrimination_stimuli/001011_2014-06-08_23-18-54_260595134347_rgbf000044-resize_4/001011_2014-06-08_23-18-54_260595134347_rgbf000044-resize-original.jpg,2723,1096370,1418419,38
579100,DepthScenes,v2_duration_discrimination,discrim_jsons/shuffled_g0_rotated.json,http://54.211.221.249/DepthDuration/v2_depth_discrimination_MTurk/v2_DepthDiscrim_HTML.html#3,3,1347,625,1364,768,8-2-2021,9-10-41,71,,,,,,,4744,557,1250,759,1359,177,,4,3,depth_discrimination_stimuli/001417_2014-06-19_16-25-36_260595134347_rgbf000115-resize_5/001417_2014-06-19_16-25-36_260595134347_rgbf000115-resize-original.jpg,2716,1096370,1418419,38
579100,DepthScenes,v2_duration_discrimination,discrim_jsons/shuffled_g0_rotated.json,http://54.211.221.249/DepthDuration/v2_depth_discrimination_MTurk/v2_DepthDiscrim_HTML.html#3,3,1347,625,1364,768,8-2-2021,9-10-41,72,,,,,,,4744,557,1250,759,1359,177,,4,5,depth_discrimination_stimuli/000486_2014-06-09_20-47-20_260595134347_rgbf000143-resize_2/000486_2014-06-09_20-47-20_260595134347_rgbf000143-resize-original.jpg,2705,1096370,1418419,38
579100,DepthScenes,v2_duration_discrimination,discrim_jsons/shuffled_g0_rotated.json,http://54.211.221.249/DepthDuration/v2_depth_discrimination_MTurk/v2_DepthDiscrim_HTML.html#3,3,1347,625,1364,768,8-2-2021,9-10-41,73,,,,,,,4744,557,1250,759,1359,177,,4,3,depth_discrimination_stimuli/000917_2014-06-09_22-45-29_260595134347_rgbf000149-resize_3/000917_2014-06-09_22-45-29_260595134347_rgbf000149-resize-original.jpg,3565,1096370,1418419,38
579100,DepthScenes,v2_duration_discrimination,discrim_jsons/shuffled_g0_rotated.json,http://54.211.221.249/DepthDuration/v2_depth_discrimination_MTurk/v2_DepthDiscrim_HTML.html#3,3,1347,625,1364,768,8-2-2021,9-10-41,74,,,,,,,4744,557,1250,759,1359,177,,4,3,depth_discrimination_stimuli/001136_2014-06-17_15-19-41_260595134347_rgbf000076-resize_3/001136_2014-06-17_15-19-41_260595134347_rgbf000076-resize-original.jpg,2883,1096370,1418419,38
579100,DepthScenes,v2_duration_discrimination,discrim_jsons/shuffled_g0_rotated.json,http://54.211.221.249/DepthDuration/v2_depth_discrimination_MTurk/v2_DepthDiscrim_HTML.html#3,3,1347,625,1364,768,8-2-2021,9-10-41,75,,,,,,,4744,557,1250,759,1359,177,,3,1,depth_discrimination_stimuli/003092_2014-06-24_21-01-49_094959634447_rgbf000049-resize_2/003092_2014-06-24_21-01-49_094959634447_rgbf000049-resize-original.jpg,3284,1096370,1418419,38
579100,DepthScenes,v2_duration_discrimination,discrim_jsons/shuffled_g0_rotated.json,http://54.211.221.249/DepthDuration/v2_depth_discrimination_MTurk/v2_DepthDiscrim_HTML.html#3,3,1347,625,1364,768,8-2-2021,9-10-41,76,,,,,,,4744,557,1250,759,1359,177,,5,2,depth_discrimination_stimuli/003546_2014-05-22_15-48-53_094959634447_rgbf004816-resize_3/003546_2014-05-22_15-48-53_094959634447_rgbf004816-resize-original.jpg,4453,1096370,1418419,38
579100,DepthScenes,v2_duration_discrimination,discrim_jsons/shuffled_g0_rotated.json,http://54.211.221.249/DepthDuration/v2_depth_discrimination_MTurk/v2_DepthDiscrim_HTML.html#3,3,1347,625,1364,768,8-2-2021,9-10-41,77,,,,,,,4744,557,1250,759,1359,177,,5,3,depth_discrimination_stimuli/001056_2014-06-08_18-46-44_260595134347_rgbf000068-resize_0/001056_2014-06-08_18-46-44_260595134347_rgbf000068-resize-original.jpg,3570,1096370,1418419,38
579100,DepthScenes,v2_duration_discrimination,discrim_jsons/shuffled_g0_rotated.json,http://54.211.221.249/DepthDuration/v2_depth_discrimination_MTurk/v2_DepthDiscrim_HTML.html#3,3,1347,625,1364,768,8-2-2021,9-10-41,78,,,,,,,4744,557,1250,759,1359,177,,5,4,depth_discrimination_stimuli/002579_2014-06-24_14-08-03_094959634447_rgbf000061-resize_2/002579_2014-06-24_14-08-03_094959634447_rgbf000061-resize-original.jpg,3344,1096370,1418419,38
579100,DepthScenes,v2_duration_discrimination,discrim_jsons/shuffled_g0_rotated.json,http://54.211.221.249/DepthDuration/v2_depth_discrimination_MTurk/v2_DepthDiscrim_HTML.html#3,3,1347,625,1364,768,8-2-2021,9-10-41,79,,,,,,,4744,557,1250,759,1359,177,,3,4,depth_discrimination_stimuli/001584_2014-06-20_11-07-43_260595134347_rgbf000002-resize_1/001584_2014-06-20_11-07-43_260595134347_rgbf000002-resize-original.jpg,3072,1096370,1418419,38
579100,DepthScenes,v2_duration_discrimination,discrim_jsons/shuffled_g0_rotated.json,http://54.211.221.249/DepthDuration/v2_depth_discrimination_MTurk/v2_DepthDiscrim_HTML.html#3,3,1347,625,1364,768,8-2-2021,9-10-41,80,,,,,,,4744,557,1250,759,1359,177,,5,4,scene_property_catch_stimuli/sun_aatxlublfjchvvzu.jpg,5987,1096370,1418419,38
579100,DepthScenes,v2_duration_discrimination,discrim_jsons/shuffled_g0_rotated.json,http://54.211.221.249/DepthDuration/v2_depth_discrimination_MTurk/v2_DepthDiscrim_HTML.html#3,3,1347,625,1364,768,8-2-2021,9-10-41,81,,,,,,,4744,557,1250,759,1359,177,,4,4,depth_discrimination_stimuli/002788_2014-06-22_19-36-03_094959634447_rgbf000088-resize_2/002788_2014-06-22_19-36-03_094959634447_rgbf000088-resize-original.jpg,5316,1096370,1418419,38
579100,DepthScenes,v2_duration_discrimination,discrim_jsons/shuffled_g0_rotated.json,http://54.211.221.249/DepthDuration/v2_depth_discrimination_MTurk/v2_DepthDiscrim_HTML.html#3,3,1347,625,1364,768,8-2-2021,9-10-41,82,,,,,,,4744,557,1250,759,1359,177,,3,5,depth_discrimination_stimuli/000506_2014-06-08_23-21-00_260595134347_rgbf000070-resize_7/000506_2014-06-08_23-21-00_260595134347_rgbf000070-resize-original.jpg,6561,1096370,1418419,38
579100,DepthScenes,v2_duration_discrimination,discrim_jsons/shuffled_g0_rotated.json,http://54.211.221.249/DepthDuration/v2_depth_discrimination_MTurk/v2_DepthDiscrim_HTML.html#3,3,1347,625,1364,768,8-2-2021,9-10-41,83,,,,,,,4744,557,1250,759,1359,177,,4,4,depth_discrimination_stimuli/002272_2014-06-28_18-53-56_260595134347_rgbf000067-resize_2/002272_2014-06-28_18-53-56_260595134347_rgbf000067-resize-original.jpg,5169,1096370,1418419,38
579100,DepthScenes,v2_duration_discrimination,discrim_jsons/shuffled_g0_rotated.json,http://54.211.221.249/DepthDuration/v2_depth_discrimination_MTurk/v2_DepthDiscrim_HTML.html#3,3,1347,625,1364,768,8-2-2021,9-10-41,84,,,,,,,4744,557,1250,759,1359,177,,4,3,depth_discrimination_stimuli/003048_2014-06-15_13-49-43_094959634447_rgbf000150-resize_1/003048_2014-06-15_13-49-43_094959634447_rgbf000150-resize-original.jpg,3468,1096370,1418419,38
579100,DepthScenes,v2_duration_discrimination,discrim_jsons/shuffled_g0_rotated.json,http://54.211.221.249/DepthDuration/v2_depth_discrimination_MTurk/v2_DepthDiscrim_HTML.html#3,3,1347,625,1364,768,8-2-2021,9-10-41,85,,,,,,,4744,557,1250,759,1359,177,,4,3,depth_discrimination_stimuli/000869_2014-06-09_20-50-18_260595134347_rgbf000060-resize_3/000869_2014-06-09_20-50-18_260595134347_rgbf000060-resize-original.jpg,3628,1096370,1418419,38
579100,DepthScenes,v2_duration_discrimination,discrim_jsons/shuffled_g0_rotated.json,http://54.211.221.249/DepthDuration/v2_depth_discrimination_MTurk/v2_DepthDiscrim_HTML.html#3,3,1347,625,1364,768,8-2-2021,9-10-41,86,,,,,,,4744,557,1250,759,1359,177,,3,2,depth_discrimination_stimuli/000749_2014-06-08_21-55-06_260595134347_rgbf000070-resize_2/000749_2014-06-08_21-55-06_260595134347_rgbf000070-resize-original.jpg,3225,1096370,1418419,38
579100,DepthScenes,v2_duration_discrimination,discrim_jsons/shuffled_g0_rotated.json,http://54.211.221.249/DepthDuration/v2_depth_discrimination_MTurk/v2_DepthDiscrim_HTML.html#3,3,1347,625,1364,768,8-2-2021,9-10-41,87,,,,,,,4744,557,1250,759,1359,177,,2,4,depth_discrimination_stimuli/001092_2014-06-15_17-34-58_260595134347_rgbf000171-resize_3/001092_2014-06-15_17-34-58_260595134347_rgbf000171-resize-original.jpg,3159,1096370,1418419,38
579100,DepthScenes,v2_duration_discrimination,discrim_jsons/shuffled_g0_rotated.json,http://54.211.221.249/DepthDuration/v2_depth_discrimination_MTurk/v2_DepthDiscrim_HTML.html#3,3,1347,625,1364,768,8-2-2021,9-10-41,88,,,,,,,4744,557,1250,759,1359,177,,4,3,depth_discrimination_stimuli/001197_2014-06-17_16-01-50_260595134347_rgbf000103-resize_4/001197_2014-06-17_16-01-50_260595134347_rgbf000103-resize-original.jpg,3634,1096370,1418419,38
579100,DepthScenes,v2_duration_discrimination,discrim_jsons/shuffled_g0_rotated.json,http://54.211.221.249/DepthDuration/v2_depth_discrimination_MTurk/v2_DepthDiscrim_HTML.html#3,3,1347,625,1364,768,8-2-2021,9-10-41,89,,,,,,,4744,557,1250,759,1359,177,,3,2,depth_discrimination_stimuli/000878_2014-06-08_22-52-45_260595134347_rgbf000045-resize_2/000878_2014-06-08_22-52-45_260595134347_rgbf000045-resize-original.jpg,2742,1096370,1418419,38
579100,DepthScenes,v2_duration_discrimination,discrim_jsons/shuffled_g0_rotated.json,http://54.211.221.249/DepthDuration/v2_depth_discrimination_MTurk/v2_DepthDiscrim_HTML.html#3,3,1347,625,1364,768,8-2-2021,9-10-41,90,,,,,,,4744,557,1250,759,1359,177,,3,5,depth_discrimination_stimuli/000830_2014-06-04_19-49-31_260595134347_rgbf000096-resize_2/000830_2014-06-04_19-49-31_260595134347_rgbf000096-resize-original.jpg,3319,1096370,1418419,38
579100,DepthScenes,v2_duration_discrimination,discrim_jsons/shuffled_g0_rotated.json,http://54.211.221.249/DepthDuration/v2_depth_discrimination_MTurk/v2_DepthDiscrim_HTML.html#3,3,1347,625,1364,768,8-2-2021,9-10-41,91,,,,,,,4744,557,1250,759,1359,177,,3,4,depth_discrimination_stimuli/000665_2014-06-09_20-42-35_260595134347_rgbf000110-resize_1/000665_2014-06-09_20-42-35_260595134347_rgbf000110-resize-original.jpg,3903,1096370,1418419,38
579100,DepthScenes,v2_duration_discrimination,discrim_jsons/shuffled_g0_rotated.json,http://54.211.221.249/DepthDuration/v2_depth_discrimination_MTurk/v2_DepthDiscrim_HTML.html#3,3,1347,625,1364,768,8-2-2021,9-10-41,92,,,,,,,4744,557,1250,759,1359,177,,4,4,depth_discrimination_stimuli/003492_2014-05-21_15-50-55_094959634447_rgbf000828-resize_1/003492_2014-05-21_15-50-55_094959634447_rgbf000828-resize-original.jpg,4166,1096370,1418419,38
579100,DepthScenes,v2_duration_discrimination,discrim_jsons/shuffled_g0_rotated.json,http://54.211.221.249/DepthDuration/v2_depth_discrimination_MTurk/v2_DepthDiscrim_HTML.html#3,3,1347,625,1364,768,8-2-2021,9-10-41,93,,,,,,,4744,557,1250,759,1359,177,,4,2,depth_discrimination_stimuli/000677_2014-06-08_23-10-32_260595134347_rgbf000158-resize_6/000677_2014-06-08_23-10-32_260595134347_rgbf000158-resize-original.jpg,3424,1096370,1418419,38
579100,DepthScenes,v2_duration_discrimination,discrim_jsons/shuffled_g0_rotated.json,http://54.211.221.249/DepthDuration/v2_depth_discrimination_MTurk/v2_DepthDiscrim_HTML.html#3,3,1347,625,1364,768,8-2-2021,9-10-41,94,,,,,,,4744,557,1250,759,1359,177,,2,3,depth_discrimination_stimuli/002468_2014-06-28_20-38-39_260595134347_rgbf000045-resize_1/002468_2014-06-28_20-38-39_260595134347_rgbf000045-resize-original.jpg,3316,1096370,1418419,38
579100,DepthScenes,v2_duration_discrimination,discrim_jsons/shuffled_g0_rotated.json,http://54.211.221.249/DepthDuration/v2_depth_discrimination_MTurk/v2_DepthDiscrim_HTML.html#3,3,1347,625,1364,768,8-2-2021,9-10-41,95,,,,,,,4744,557,1250,759,1359,177,,4,2,depth_discrimination_stimuli/002678_2014-06-13_16-15-32_094959634447_rgbf000151-resize_6/002678_2014-06-13_16-15-32_094959634447_rgbf000151-resize-original.jpg,2844,1096370,1418419,38
579100,DepthScenes,v2_duration_discrimination,discrim_jsons/shuffled_g0_rotated.json,http://54.211.221.249/DepthDuration/v2_depth_discrimination_MTurk/v2_DepthDiscrim_HTML.html#3,3,1347,625,1364,768,8-2-2021,9-10-41,96,,,,,,,4744,557,1250,759,1359,177,,3,3,depth_discrimination_stimuli/000810_2014-06-08_17-20-01_260595134347_rgbf000105-resize_0/000810_2014-06-08_17-20-01_260595134347_rgbf000105-resize-original.jpg,3121,1096370,1418419,38
579100,DepthScenes,v2_duration_discrimination,discrim_jsons/shuffled_g0_rotated.json,http://54.211.221.249/DepthDuration/v2_depth_discrimination_MTurk/v2_DepthDiscrim_HTML.html#3,3,1347,625,1364,768,8-2-2021,9-10-41,97,,,,,,,4744,557,1250,759,1359,177,,2,4,scene_property_catch_stimuli/sun_bpzzatthlcapxzol.jpg,3514,1096370,1418419,38
579100,DepthScenes,v2_duration_discrimination,discrim_jsons/shuffled_g0_rotated.json,http://54.211.221.249/DepthDuration/v2_depth_discrimination_MTurk/v2_DepthDiscrim_HTML.html#3,3,1347,625,1364,768,8-2-2021,9-10-41,98,,,,,,,4744,557,1250,759,1359,177,,5,5,depth_discrimination_stimuli/001450_2014-06-19_17-02-03_260595134347_rgbf000203-resize_4/001450_2014-06-19_17-02-03_260595134347_rgbf000203-resize-original.jpg,6161,1096370,1418419,38
579100,DepthScenes,v2_duration_discrimination,discrim_jsons/shuffled_g0_rotated.json,http://54.211.221.249/DepthDuration/v2_depth_discrimination_MTurk/v2_DepthDiscrim_HTML.html#3,3,1347,625,1364,768,8-2-2021,9-10-41,99,,,,,,,4744,557,1250,759,1359,177,,3,4,depth_discrimination_stimuli/001100_2014-06-15_17-46-26_260595134347_rgbf000225-resize_2/001100_2014-06-15_17-46-26_260595134347_rgbf000225-resize-original.jpg,2949,1096370,1418419,38
579100,DepthScenes,v2_duration_discrimination,discrim_jsons/shuffled_g0_rotated.json,http://54.211.221.249/DepthDuration/v2_depth_discrimination_MTurk/v2_DepthDiscrim_HTML.html#3,3,1347,625,1364,768,8-2-2021,9-10-41,100,,,,,,,4744,557,1250,759,1359,177,,4,4,depth_discrimination_stimuli/000436_2014-06-09_22-25-11_260595134347_rgbf000137-resize_1/000436_2014-06-09_22-25-11_260595134347_rgbf000137-resize-original.jpg,2610,1096370,1418419,38
579100,DepthScenes,v2_duration_discrimination,discrim_jsons/shuffled_g0_rotated.json,http://54.211.221.249/DepthDuration/v2_depth_discrimination_MTurk/v2_DepthDiscrim_HTML.html#3,3,1347,625,1364,768,8-2-2021,9-10-41,101,,,,,,,4744,557,1250,759,1359,177,,4,3,depth_discrimination_stimuli/000414_2014-06-04_19-49-13_260595134347_rgbf000044-resize_0/000414_2014-06-04_19-49-13_260595134347_rgbf000044-resize-original.jpg,2016,1096370,1418419,38
579100,DepthScenes,v2_duration_discrimination,discrim_jsons/shuffled_g0_rotated.json,http://54.211.221.249/DepthDuration/v2_depth_discrimination_MTurk/v2_DepthDiscrim_HTML.html#3,3,1347,625,1364,768,8-2-2021,9-10-41,102,,,,,,,4744,557,1250,759,1359,177,,4,3,depth_discrimination_stimuli/000691_2014-06-08_13-08-50_260595134347_rgbf000132-resize_3/000691_2014-06-08_13-08-50_260595134347_rgbf000132-resize-original.jpg,2590,1096370,1418419,38
579100,DepthScenes,v2_duration_discrimination,discrim_jsons/shuffled_g0_rotated.json,http://54.211.221.249/DepthDuration/v2_depth_discrimination_MTurk/v2_DepthDiscrim_HTML.html#3,3,1347,625,1364,768,8-2-2021,9-10-41,103,,,,,,,4744,557,1250,759,1359,177,,3,5,depth_discrimination_stimuli/002790_2014-06-22_19-36-35_094959634447_rgbf000074-resize_4/002790_2014-06-22_19-36-35_094959634447_rgbf000074-resize-original.jpg,4046,1096370,1418419,38
579100,DepthScenes,v2_duration_discrimination,discrim_jsons/shuffled_g0_rotated.json,http://54.211.221.249/DepthDuration/v2_depth_discrimination_MTurk/v2_DepthDiscrim_HTML.html#3,3,1347,625,1364,768,8-2-2021,9-10-41,104,,,,,,,4744,557,1250,759,1359,177,,3,4,depth_discrimination_stimuli/003081_2014-06-15_15-19-16_094959634447_rgbf000150-resize_1/003081_2014-06-15_15-19-16_094959634447_rgbf000150-resize-original.jpg,4415,1096370,1418419,38
579100,DepthScenes,v2_duration_discrimination,discrim_jsons/shuffled_g0_rotated.json,http://54.211.221.249/DepthDuration/v2_depth_discrimination_MTurk/v2_DepthDiscrim_HTML.html#3,3,1347,625,1364,768,8-2-2021,9-10-41,105,,,,,,,4744,557,1250,759,1359,177,,4,4,depth_discrimination_stimuli/002875_2014-06-01_15-19-00_094959634447_rgbf000151-resize_1/002875_2014-06-01_15-19-00_094959634447_rgbf000151-resize-original.jpg,41408,1096370,1418419,38
579100,DepthScenes,v2_duration_discrimination,discrim_jsons/shuffled_g0_rotated.json,http://54.211.221.249/DepthDuration/v2_depth_discrimination_MTurk/v2_DepthDiscrim_HTML.html#3,3,1347,625,1364,768,8-2-2021,9-10-41,106,,,,,,,4744,557,1250,759,1359,177,,4,3,depth_discrimination_stimuli/000103_2014-05-14_22-01-17_260595134347_rgbf000152-resize_5/000103_2014-05-14_22-01-17_260595134347_rgbf000152-resize-original.jpg,6900,1096370,1418419,38
579100,DepthScenes,v2_duration_discrimination,discrim_jsons/shuffled_g0_rotated.json,http://54.211.221.249/DepthDuration/v2_depth_discrimination_MTurk/v2_DepthDiscrim_HTML.html#3,3,1347,625,1364,768,8-2-2021,9-10-41,107,,,,,,,4744,557,1250,759,1359,177,,3,4,depth_discrimination_stimuli/001828_2014-06-26_21-40-03_260595134347_rgbf000024-resize_0/001828_2014-06-26_21-40-03_260595134347_rgbf000024-resize-original.jpg,17927,1096370,1418419,38
579100,DepthScenes,v2_duration_discrimination,discrim_jsons/shuffled_g0_rotated.json,http://54.211.221.249/DepthDuration/v2_depth_discrimination_MTurk/v2_DepthDiscrim_HTML.html#3,3,1347,625,1364,768,8-2-2021,9-10-41,108,,,,,,,4744,557,1250,759,1359,177,,2,4,depth_discrimination_stimuli/003083_2014-06-15_15-21-03_094959634447_rgbf000063-resize_1/003083_2014-06-15_15-21-03_094959634447_rgbf000063-resize-original.jpg,3672,1096370,1418419,38
579100,DepthScenes,v2_duration_discrimination,discrim_jsons/shuffled_g0_rotated.json,http://54.211.221.249/DepthDuration/v2_depth_discrimination_MTurk/v2_DepthDiscrim_HTML.html#3,3,1347,625,1364,768,8-2-2021,9-10-41,109,,,,,,,4744,557,1250,759,1359,177,,3,4,depth_discrimination_stimuli/002464_2014-06-28_20-36-57_260595134347_rgbf000029-resize_0/002464_2014-06-28_20-36-57_260595134347_rgbf000029-resize-original.jpg,3052,1096370,1418419,38
579100,DepthScenes,v2_duration_discrimination,discrim_jsons/shuffled_g0_rotated.json,http://54.211.221.249/DepthDuration/v2_depth_discrimination_MTurk/v2_DepthDiscrim_HTML.html#3,3,1347,625,1364,768,8-2-2021,9-10-41,110,,,,,,,4744,557,1250,759,1359,177,,3,5,depth_discrimination_stimuli/001650_2014-06-20_12-09-00_260595134347_rgbf000087-resize_3/001650_2014-06-20_12-09-00_260595134347_rgbf000087-resize-original.jpg,3230,1096370,1418419,38
579100,DepthScenes,v2_duration_discrimination,discrim_jsons/shuffled_g0_rotated.json,http://54.211.221.249/DepthDuration/v2_depth_discrimination_MTurk/v2_DepthDiscrim_HTML.html#3,3,1347,625,1364,768,8-2-2021,9-10-41,111,,,,,,,4744,557,1250,759,1359,177,,2,4,depth_discrimination_stimuli/003423_2014-05-21_10-23-26_094959634447_rgbf002665-resize_2/003423_2014-05-21_10-23-26_094959634447_rgbf002665-resize-original.jpg,3223,1096370,1418419,38
579100,DepthScenes,v2_duration_discrimination,discrim_jsons/shuffled_g0_rotated.json,http://54.211.221.249/DepthDuration/v2_depth_discrimination_MTurk/v2_DepthDiscrim_HTML.html#3,3,1347,625,1364,768,8-2-2021,9-10-41,112,,,,,,,4744,557,1250,759,1359,177,,3,4,depth_discrimination_stimuli/002340_2014-06-28_20-05-46_260595134347_rgbf000113-resize_0/002340_2014-06-28_20-05-46_260595134347_rgbf000113-resize-original.jpg,2748,1096370,1418419,38
579100,DepthScenes,v2_duration_discrimination,discrim_jsons/shuffled_g0_rotated.json,http://54.211.221.249/DepthDuration/v2_depth_discrimination_MTurk/v2_DepthDiscrim_HTML.html#3,3,1347,625,1364,768,8-2-2021,9-10-41,113,,,,,,,4744,557,1250,759,1359,177,,2,5,depth_discrimination_stimuli/003534_2014-05-22_15-06-10_094959634447_rgbf000102-resize_4/003534_2014-05-22_15-06-10_094959634447_rgbf000102-resize-original.jpg,3299,1096370,1418419,38
579100,DepthScenes,v2_duration_discrimination,discrim_jsons/shuffled_g0_rotated.json,http://54.211.221.249/DepthDuration/v2_depth_discrimination_MTurk/v2_DepthDiscrim_HTML.html#3,3,1347,625,1364,768,8-2-2021,9-10-41,114,,,,,,,4744,557,1250,759,1359,177,,3,4,depth_discrimination_stimuli/001167_2014-06-17_15-38-07_260595134347_rgbf000108-resize_0/001167_2014-06-17_15-38-07_260595134347_rgbf000108-resize-original.jpg,3439,1096370,1418419,38
579100,DepthScenes,v2_duration_discrimination,discrim_jsons/shuffled_g0_rotated.json,http://54.211.221.249/DepthDuration/v2_depth_discrimination_MTurk/v2_DepthDiscrim_HTML.html#3,3,1347,625,1364,768,8-2-2021,9-10-41,115,,,,,,,4744,557,1250,759,1359,177,,5,5,depth_discrimination_stimuli/002995_2014-06-15_12-31-26_094959634447_rgbf000150-resize_1/002995_2014-06-15_12-31-26_094959634447_rgbf000150-resize-original.jpg,7055,1096370,1418419,38
579100,DepthScenes,v2_duration_discrimination,discrim_jsons/shuffled_g0_rotated.json,http://54.211.221.249/DepthDuration/v2_depth_discrimination_MTurk/v2_DepthDiscrim_HTML.html#3,3,1347,625,1364,768,8-2-2021,9-10-41,116,,,,,,,4744,557,1250,759,1359,177,,4,4,depth_discrimination_stimuli/001032_2014-06-08_13-23-17_260595134347_rgbf000021-resize_3/001032_2014-06-08_13-23-17_260595134347_rgbf000021-resize-original.jpg,5590,1096370,1418419,38
579100,DepthScenes,v2_duration_discrimination,discrim_jsons/shuffled_g0_rotated.json,http://54.211.221.249/DepthDuration/v2_depth_discrimination_MTurk/v2_DepthDiscrim_HTML.html#3,3,1347,625,1364,768,8-2-2021,9-10-41,117,,,,,,,4744,557,1250,759,1359,177,,4,5,depth_discrimination_stimuli/002758_2014-06-22_19-11-20_094959634447_rgbf000128-resize_1/002758_2014-06-22_19-11-20_094959634447_rgbf000128-resize-original.jpg,9412,1096370,1418419,38
579100,DepthScenes,v2_duration_discrimination,discrim_jsons/shuffled_g0_rotated.json,http://54.211.221.249/DepthDuration/v2_depth_discrimination_MTurk/v2_DepthDiscrim_HTML.html#3,3,1347,625,1364,768,8-2-2021,9-10-41,118,,,,,,,4744,557,1250,759,1359,177,,5,5,depth_discrimination_stimuli/000542_2014-06-08_18-27-08_260595134347_rgbf000118-resize_1/000542_2014-06-08_18-27-08_260595134347_rgbf000118-resize-original.jpg,3926,1096370,1418419,38
579100,DepthScenes,v2_duration_discrimination,discrim_jsons/shuffled_g0_rotated.json,http://54.211.221.249/DepthDuration/v2_depth_discrimination_MTurk/v2_DepthDiscrim_HTML.html#3,3,1347,625,1364,768,8-2-2021,9-10-41,119,,,,,,,4744,557,1250,759,1359,177,,3,3,depth_discrimination_stimuli/001059_2014-06-08_21-53-27_260595134347_rgbf000061-resize_4/001059_2014-06-08_21-53-27_260595134347_rgbf000061-resize-original.jpg,3167,1096370,1418419,38
579100,DepthScenes,v2_duration_discrimination,discrim_jsons/shuffled_g0_rotated.json,http://54.211.221.249/DepthDuration/v2_depth_discrimination_MTurk/v2_DepthDiscrim_HTML.html#3,3,1347,625,1364,768,8-2-2021,9-10-41,120,,,,,,,4744,557,1250,759,1359,177,,4,5,depth_discrimination_stimuli/002057_2014-06-24_21-00-13_260595134347_rgbf000120-resize_1/002057_2014-06-24_21-00-13_260595134347_rgbf000120-resize-original.jpg,3665,1096370,1418419,38
579100,DepthScenes,v2_duration_discrimination,discrim_jsons/shuffled_g0_rotated.json,http://54.211.221.249/DepthDuration/v2_depth_discrimination_MTurk/v2_DepthDiscrim_HTML.html#3,3,1347,625,1364,768,8-2-2021,9-10-41,121,,,,,,,4744,557,1250,759,1359,177,,3,5,depth_discrimination_stimuli/002344_2014-06-28_20-06-29_260595134347_rgbf000030-resize_1/002344_2014-06-28_20-06-29_260595134347_rgbf000030-resize-original.jpg,4807,1096370,1418419,38
579100,DepthScenes,v2_duration_discrimination,discrim_jsons/shuffled_g0_rotated.json,http://54.211.221.249/DepthDuration/v2_depth_discrimination_MTurk/v2_DepthDiscrim_HTML.html#3,3,1347,625,1364,768,8-2-2021,9-10-41,122,,,,,,,4744,557,1250,759,1359,177,,2,5,depth_discrimination_stimuli/001244_2014-06-17_16-47-45_260595134347_rgbf000030-resize_4/001244_2014-06-17_16-47-45_260595134347_rgbf000030-resize-original.jpg,4521,1096370,1418419,38
579100,DepthScenes,v2_duration_discrimination,discrim_jsons/shuffled_g0_rotated.json,http://54.211.221.249/DepthDuration/v2_depth_discrimination_MTurk/v2_DepthDiscrim_HTML.html#3,3,1347,625,1364,768,8-2-2021,9-10-41,123,,,,,,,4744,557,1250,759,1359,177,,2,4,depth_discrimination_stimuli/000758_2014-06-08_22-05-08_260595134347_rgbf000085-resize_0/000758_2014-06-08_22-05-08_260595134347_rgbf000085-resize-original.jpg,3913,1096370,1418419,38
579100,DepthScenes,v2_duration_discrimination,discrim_jsons/shuffled_g0_rotated.json,http://54.211.221.249/DepthDuration/v2_depth_discrimination_MTurk/v2_DepthDiscrim_HTML.html#3,3,1347,625,1364,768,8-2-2021,9-10-41,124,,,,,,,4744,557,1250,759,1359,177,,3,5,depth_discrimination_stimuli/000720_2014-06-08_18-37-27_260595134347_rgbf000203-resize_4/000720_2014-06-08_18-37-27_260595134347_rgbf000203-resize-original.jpg,5592,1096370,1418419,38
579100,DepthScenes,v2_duration_discrimination,discrim_jsons/shuffled_g0_rotated.json,http://54.211.221.249/DepthDuration/v2_depth_discrimination_MTurk/v2_DepthDiscrim_HTML.html#3,3,1347,625,1364,768,8-2-2021,9-10-41,125,,,,,,,4744,557,1250,759,1359,177,,4,5,depth_discrimination_stimuli/001148_2014-06-17_15-26-42_260595134347_rgbf000129-resize_0/001148_2014-06-17_15-26-42_260595134347_rgbf000129-resize-original.jpg,3018,1096370,1418419,38
579100,DepthScenes,v2_duration_discrimination,discrim_jsons/shuffled_g0_rotated.json,http://54.211.221.249/DepthDuration/v2_depth_discrimination_MTurk/v2_DepthDiscrim_HTML.html#3,3,1347,625,1364,768,8-2-2021,9-10-41,126,,,,,,,4744,557,1250,759,1359,177,,2,5,depth_discrimination_stimuli/003069_2014-06-15_14-57-50_094959634447_rgbf000150-resize_4/003069_2014-06-15_14-57-50_094959634447_rgbf000150-resize-original.jpg,3545,1096370,1418419,38
579100,DepthScenes,v2_duration_discrimination,discrim_jsons/shuffled_g0_rotated.json,http://54.211.221.249/DepthDuration/v2_depth_discrimination_MTurk/v2_DepthDiscrim_HTML.html#3,3,1347,625,1364,768,8-2-2021,9-10-41,127,,,,,,,4744,557,1250,759,1359,177,,5,5,depth_discrimination_stimuli/002988_2014-06-15_12-24-20_094959634447_rgbf000150-resize_1/002988_2014-06-15_12-24-20_094959634447_rgbf000150-resize-original.jpg,3971,1096370,1418419,38
579100,DepthScenes,v2_duration_discrimination,discrim_jsons/shuffled_g0_rotated.json,http://54.211.221.249/DepthDuration/v2_depth_discrimination_MTurk/v2_DepthDiscrim_HTML.html#3,3,1347,625,1364,768,8-2-2021,9-10-41,128,,,,,,,4744,557,1250,759,1359,177,,4,3,depth_discrimination_stimuli/002153_2014-06-25_21-27-18_260595134347_rgbf000038-resize_5/002153_2014-06-25_21-27-18_260595134347_rgbf000038-resize-original.jpg,3393,1096370,1418419,38
579100,DepthScenes,v2_duration_discrimination,discrim_jsons/shuffled_g0_rotated.json,http://54.211.221.249/DepthDuration/v2_depth_discrimination_MTurk/v2_DepthDiscrim_HTML.html#3,3,1347,625,1364,768,8-2-2021,9-10-41,129,,,,,,,4744,557,1250,759,1359,177,,5,2,depth_discrimination_stimuli/002600_2014-06-24_14-27-04_094959634447_rgbf000074-resize_2/002600_2014-06-24_14-27-04_094959634447_rgbf000074-resize-original.jpg,3474,1096370,1418419,38
579100,DepthScenes,v2_duration_discrimination,discrim_jsons/shuffled_g0_rotated.json,http://54.211.221.249/DepthDuration/v2_depth_discrimination_MTurk/v2_DepthDiscrim_HTML.html#3,3,1347,625,1364,768,8-2-2021,9-10-41,130,,,,,,,4744,557,1250,759,1359,177,,4,3,depth_discrimination_stimuli/002209_2014-06-28_18-36-10_260595134347_rgbf000051-resize_1/002209_2014-06-28_18-36-10_260595134347_rgbf000051-resize-original.jpg,3278,1096370,1418419,38
579100,DepthScenes,v2_duration_discrimination,discrim_jsons/shuffled_g0_rotated.json,http://54.211.221.249/DepthDuration/v2_depth_discrimination_MTurk/v2_DepthDiscrim_HTML.html#3,3,1347,625,1364,768,8-2-2021,9-10-41,131,,,,,,,4744,557,1250,759,1359,177,,3,2,depth_discrimination_stimuli/001188_2014-06-17_15-54-10_260595134347_rgbf000090-resize_2/001188_2014-06-17_15-54-10_260595134347_rgbf000090-resize-original.jpg,3165,1096370,1418419,38
579100,DepthScenes,v2_duration_discrimination,discrim_jsons/shuffled_g0_rotated.json,http://54.211.221.249/DepthDuration/v2_depth_discrimination_MTurk/v2_DepthDiscrim_HTML.html#3,3,1347,625,1364,768,8-2-2021,9-10-41,132,,,,,,,4744,557,1250,759,1359,177,,4,5,depth_discrimination_stimuli/002784_2014-06-22_19-26-30_094959634447_rgbf000083-resize_3/002784_2014-06-22_19-26-30_094959634447_rgbf000083-resize-original.jpg,3049,1096370,1418419,38
579100,DepthScenes,v2_duration_discrimination,discrim_jsons/shuffled_g0_rotated.json,http://54.211.221.249/DepthDuration/v2_depth_discrimination_MTurk/v2_DepthDiscrim_HTML.html#3,3,1347,625,1364,768,8-2-2021,9-10-41,133,,,,,,,4744,557,1250,759,1359,177,,3,3,depth_discrimination_stimuli/003621_2014-05-23_18-06-08_094959634447_rgbf000101-resize_1/003621_2014-05-23_18-06-08_094959634447_rgbf000101-resize-original.jpg,3213,1096370,1418419,38
579100,DepthScenes,v2_duration_discrimination,discrim_jsons/shuffled_g0_rotated.json,http://54.211.221.249/DepthDuration/v2_depth_discrimination_MTurk/v2_DepthDiscrim_HTML.html#3,3,1347,625,1364,768,8-2-2021,9-10-41,134,,,,,,,4744,557,1250,759,1359,177,,4,4,depth_discrimination_stimuli/000505_2014-06-08_23-03-23_260595134347_rgbf000091-resize_0/000505_2014-06-08_23-03-23_260595134347_rgbf000091-resize-original.jpg,3849,1096370,1418419,38
579100,DepthScenes,v2_duration_discrimination,discrim_jsons/shuffled_g0_rotated.json,http://54.211.221.249/DepthDuration/v2_depth_discrimination_MTurk/v2_DepthDiscrim_HTML.html#3,3,1347,625,1364,768,8-2-2021,9-10-41,135,,,,,,,4744,557,1250,759,1359,177,,4,2,scene_property_catch_stimuli/sun_aoquhiddlfqapdlz.jpg,4544,1096370,1418419,38
579100,DepthScenes,v2_duration_discrimination,discrim_jsons/shuffled_g0_rotated.json,http://54.211.221.249/DepthDuration/v2_depth_discrimination_MTurk/v2_DepthDiscrim_HTML.html#3,3,1347,625,1364,768,8-2-2021,9-10-41,136,,,,,,,4744,557,1250,759,1359,177,,3,4,depth_discrimination_stimuli/001066_2014-06-08_22-03-20_260595134347_rgbf000066-resize_4/001066_2014-06-08_22-03-20_260595134347_rgbf000066-resize-original.jpg,3821,1096370,1418419,38
579100,DepthScenes,v2_duration_discrimination,discrim_jsons/shuffled_g0_rotated.json,http://54.211.221.249/DepthDuration/v2_depth_discrimination_MTurk/v2_DepthDiscrim_HTML.html#3,3,1347,625,1364,768,8-2-2021,9-10-41,137,,,,,,,4744,557,1250,759,1359,177,,3,5,depth_discrimination_stimuli/000800_2014-06-08_22-42-09_260595134347_rgbf000095-resize_3/000800_2014-06-08_22-42-09_260595134347_rgbf000095-resize-original.jpg,3506,1096370,1418419,38
579100,DepthScenes,v2_duration_discrimination,discrim_jsons/shuffled_g0_rotated.json,http://54.211.221.249/DepthDuration/v2_depth_discrimination_MTurk/v2_DepthDiscrim_HTML.html#3,3,1347,625,1364,768,8-2-2021,9-10-41,138,,,,,,,4744,557,1250,759,1359,177,,4,5,depth_discrimination_stimuli/001133_2014-06-17_14-49-16_260595134347_rgbf000100-resize_0/001133_2014-06-17_14-49-16_260595134347_rgbf000100-resize-original.jpg,3696,1096370,1418419,38
579100,DepthScenes,v2_duration_discrimination,discrim_jsons/shuffled_g0_rotated.json,http://54.211.221.249/DepthDuration/v2_depth_discrimination_MTurk/v2_DepthDiscrim_HTML.html#3,3,1347,625,1364,768,8-2-2021,9-10-41,139,,,,,,,4744,557,1250,759,1359,177,,4,5,depth_discrimination_stimuli/002509_2014-06-24_13-19-22_094959634447_rgbf000077-resize_0/002509_2014-06-24_13-19-22_094959634447_rgbf000077-resize-original.jpg,2560,1096370,1418419,38
579100,DepthScenes,v2_duration_discrimination,discrim_jsons/shuffled_g0_rotated.json,http://54.211.221.249/DepthDuration/v2_depth_discrimination_MTurk/v2_DepthDiscrim_HTML.html#3,3,1347,625,1364,768,8-2-2021,9-10-41,140,,,,,,,4744,557,1250,759,1359,177,,4,3,depth_discrimination_stimuli/003070_2014-06-15_14-58-27_094959634447_rgbf000150-resize_3/003070_2014-06-15_14-58-27_094959634447_rgbf000150-resize-original.jpg,4278,1096370,1418419,38
579100,DepthScenes,v2_duration_discrimination,discrim_jsons/shuffled_g0_rotated.json,http://54.211.221.249/DepthDuration/v2_depth_discrimination_MTurk/v2_DepthDiscrim_HTML.html#3,3,1347,625,1364,768,8-2-2021,9-10-41,141,,,,,,,4744,557,1250,759,1359,177,,4,2,depth_discrimination_stimuli/000742_2014-06-08_18-48-09_260595134347_rgbf000164-resize_4/000742_2014-06-08_18-48-09_260595134347_rgbf000164-resize-original.jpg,4212,1096370,1418419,38
579100,DepthScenes,v2_duration_discrimination,discrim_jsons/shuffled_g0_rotated.json,http://54.211.221.249/DepthDuration/v2_depth_discrimination_MTurk/v2_DepthDiscrim_HTML.html#3,3,1347,625,1364,768,8-2-2021,9-10-41,142,,,,,,,4744,557,1250,759,1359,177,,5,3,depth_discrimination_stimuli/002725_2014-06-22_11-47-51_094959634447_rgbf000070-resize_1/002725_2014-06-22_11-47-51_094959634447_rgbf000070-resize-original.jpg,4282,1096370,1418419,38
579100,DepthScenes,v2_duration_discrimination,discrim_jsons/shuffled_g0_rotated.json,http://54.211.221.249/DepthDuration/v2_depth_discrimination_MTurk/v2_DepthDiscrim_HTML.html#3,3,1347,625,1364,768,8-2-2021,9-10-41,143,,,,,,,4744,557,1250,759,1359,177,,4,2,depth_discrimination_stimuli/000740_2014-06-08_18-46-23_260595134347_rgbf000049-resize_6/000740_2014-06-08_18-46-23_260595134347_rgbf000049-resize-original.jpg,3339,1096370,1418419,38
579100,DepthScenes,v2_duration_discrimination,discrim_jsons/shuffled_g0_rotated.json,http://54.211.221.249/DepthDuration/v2_depth_discrimination_MTurk/v2_DepthDiscrim_HTML.html#3,3,1347,625,1364,768,8-2-2021,9-10-41,144,,,,,,,4744,557,1250,759,1359,177,,5,3,depth_discrimination_stimuli/002213_2014-06-28_18-37-58_260595134347_rgbf000055-resize_1/002213_2014-06-28_18-37-58_260595134347_rgbf000055-resize-original.jpg,7379,1096370,1418419,38
579100,DepthScenes,v2_duration_discrimination,discrim_jsons/shuffled_g0_rotated.json,http://54.211.221.249/DepthDuration/v2_depth_discrimination_MTurk/v2_DepthDiscrim_HTML.html#3,3,1347,625,1364,768,8-2-2021,9-10-41,145,,,,,,,4744,557,1250,759,1359,177,,4,3,depth_discrimination_stimuli/003587_2014-05-23_16-48-02_094959634447_rgbf002384-resize_2/003587_2014-05-23_16-48-02_094959634447_rgbf002384-resize-original.jpg,2869,1096370,1418419,38
579100,DepthScenes,v2_duration_discrimination,discrim_jsons/shuffled_g0_rotated.json,http://54.211.221.249/DepthDuration/v2_depth_discrimination_MTurk/v2_DepthDiscrim_HTML.html#3,3,1347,625,1364,768,8-2-2021,9-10-41,146,,,,,,,4744,557,1250,759,1359,177,,4,2,depth_discrimination_stimuli/001214_2014-06-17_16-13-55_260595134347_rgbf000111-resize_0/001214_2014-06-17_16-13-55_260595134347_rgbf000111-resize-original.jpg,3502,1096370,1418419,38
579100,DepthScenes,v2_duration_discrimination,discrim_jsons/shuffled_g0_rotated.json,http://54.211.221.249/DepthDuration/v2_depth_discrimination_MTurk/v2_DepthDiscrim_HTML.html#3,3,1347,625,1364,768,8-2-2021,9-10-41,147,,,,,,,4744,557,1250,759,1359,177,,5,3,depth_discrimination_stimuli/002964_2014-06-08_17-46-11_094959634447_rgbf000091-resize_4/002964_2014-06-08_17-46-11_094959634447_rgbf000091-resize-original.jpg,3914,1096370,1418419,38
579100,DepthScenes,v2_duration_discrimination,discrim_jsons/shuffled_g0_rotated.json,http://54.211.221.249/DepthDuration/v2_depth_discrimination_MTurk/v2_DepthDiscrim_HTML.html#3,3,1347,625,1364,768,8-2-2021,9-10-41,148,,,,,,,4744,557,1250,759,1359,177,,2,4,depth_discrimination_stimuli/002657_2014-06-13_15-29-54_094959634447_rgbf000150-resize_1/002657_2014-06-13_15-29-54_094959634447_rgbf000150-resize-original.jpg,20951,1096370,1418419,38
579100,DepthScenes,v2_duration_discrimination,discrim_jsons/shuffled_g0_rotated.json,http://54.211.221.249/DepthDuration/v2_depth_discrimination_MTurk/v2_DepthDiscrim_HTML.html#3,3,1347,625,1364,768,8-2-2021,9-10-41,149,,,,,,,4744,557,1250,759,1359,177,,3,5,depth_discrimination_stimuli/001110_2014-06-15_17-25-28_260595134347_rgbf000150-resize_1/001110_2014-06-15_17-25-28_260595134347_rgbf000150-resize-original.jpg,4530,1096370,1418419,38
579100,DepthScenes,v2_duration_discrimination,discrim_jsons/shuffled_g0_rotated.json,http://54.211.221.249/DepthDuration/v2_depth_discrimination_MTurk/v2_DepthDiscrim_HTML.html#3,3,1347,625,1364,768,8-2-2021,9-10-41,150,,,,,,,4744,557,1250,759,1359,177,,5,4,depth_discrimination_stimuli/000493_2014-06-09_21-01-18_260595134347_rgbf000196-resize_3/000493_2014-06-09_21-01-18_260595134347_rgbf000196-resize-original.jpg,3620,1096370,1418419,38
579100,DepthScenes,v2_duration_discrimination,discrim_jsons/shuffled_g0_rotated.json,http://54.211.221.249/DepthDuration/v2_depth_discrimination_MTurk/v2_DepthDiscrim_HTML.html#3,3,1347,625,1364,768,8-2-2021,9-10-41,151,,,,,,,4744,557,1250,759,1359,177,,4,2,depth_discrimination_stimuli/001175_2014-06-17_15-45-55_260595134347_rgbf000129-resize_4/001175_2014-06-17_15-45-55_260595134347_rgbf000129-resize-original.jpg,3101,1096370,1418419,38
579100,DepthScenes,v2_duration_discrimination,discrim_jsons/shuffled_g0_rotated.json,http://54.211.221.249/DepthDuration/v2_depth_discrimination_MTurk/v2_DepthDiscrim_HTML.html#3,3,1347,625,1364,768,8-2-2021,9-10-41,152,,,,,,,4744,557,1250,759,1359,177,,2,3,depth_discrimination_stimuli/000788_2014-06-08_22-34-36_260595134347_rgbf000131-resize_1/000788_2014-06-08_22-34-36_260595134347_rgbf000131-resize-original.jpg,2216,1096370,1418419,38
579100,DepthScenes,v2_duration_discrimination,discrim_jsons/shuffled_g0_rotated.json,http://54.211.221.249/DepthDuration/v2_depth_discrimination_MTurk/v2_DepthDiscrim_HTML.html#3,3,1347,625,1364,768,8-2-2021,9-10-41,153,,,,,,,4744,557,1250,759,1359,177,,2,4,depth_discrimination_stimuli/001808_2014-06-26_20-50-58_260595134347_rgbf000029-resize_1/001808_2014-06-26_20-50-58_260595134347_rgbf000029-resize-original.jpg,13742,1096370,1418419,38
579100,DepthScenes,v2_duration_discrimination,discrim_jsons/shuffled_g0_rotated.json,http://54.211.221.249/DepthDuration/v2_depth_discrimination_MTurk/v2_DepthDiscrim_HTML.html#3,3,1347,625,1364,768,8-2-2021,9-10-41,154,,,,,,,4744,557,1250,759,1359,177,,3,4,depth_discrimination_stimuli/002805_2014-06-22_19-54-03_094959634447_rgbf000079-resize_1/002805_2014-06-22_19-54-03_094959634447_rgbf000079-resize-original.jpg,2676,1096370,1418419,38
579100,DepthScenes,v2_duration_discrimination,discrim_jsons/shuffled_g0_rotated.json,http://54.211.221.249/DepthDuration/v2_depth_discrimination_MTurk/v2_DepthDiscrim_HTML.html#3,3,1347,625,1364,768,8-2-2021,9-10-41,155,,,,,,,4744,557,1250,759,1359,177,,2,4,depth_discrimination_stimuli/000009_2014-05-26_14-32-05_260595134347_rgbf000034-resize_3/000009_2014-05-26_14-32-05_260595134347_rgbf000034-resize-original.jpg,3078,1096370,1418419,38
579100,DepthScenes,v2_duration_discrimination,discrim_jsons/shuffled_g0_rotated.json,http://54.211.221.249/DepthDuration/v2_depth_discrimination_MTurk/v2_DepthDiscrim_HTML.html#3,3,1347,625,1364,768,8-2-2021,9-10-41,156,,,,,,,4744,557,1250,759,1359,177,,3,2,depth_discrimination_stimuli/000927_2014-06-09_16-32-30_260595134347_rgbf000123-resize_3/000927_2014-06-09_16-32-30_260595134347_rgbf000123-resize-original.jpg,1723,1096370,1418419,38
579100,DepthScenes,v2_duration_discrimination,discrim_jsons/shuffled_g0_rotated.json,http://54.211.221.249/DepthDuration/v2_depth_discrimination_MTurk/v2_DepthDiscrim_HTML.html#3,3,1347,625,1364,768,8-2-2021,9-10-41,157,,,,,,,4744,557,1250,759,1359,177,,2,4,depth_discrimination_stimuli/000906_2014-06-08_13-35-43_260595134347_rgbf000155-resize_1/000906_2014-06-08_13-35-43_260595134347_rgbf000155-resize-original.jpg,3314,1096370,1418419,38
579100,DepthScenes,v2_duration_discrimination,discrim_jsons/shuffled_g0_rotated.json,http://54.211.221.249/DepthDuration/v2_depth_discrimination_MTurk/v2_DepthDiscrim_HTML.html#3,3,1347,625,1364,768,8-2-2021,9-10-41,158,,,,,,,4744,557,1250,759,1359,177,,2,3,depth_discrimination_stimuli/002131_2014-06-25_21-12-01_260595134347_rgbf000083-resize_0/002131_2014-06-25_21-12-01_260595134347_rgbf000083-resize-original.jpg,4052,1096370,1418419,38
579100,DepthScenes,v2_duration_discrimination,discrim_jsons/shuffled_g0_rotated.json,http://54.211.221.249/DepthDuration/v2_depth_discrimination_MTurk/v2_DepthDiscrim_HTML.html#3,3,1347,625,1364,768,8-2-2021,9-10-41,159,,,,,,,4744,557,1250,759,1359,177,,5,4,depth_discrimination_stimuli/001235_2014-06-17_16-37-36_260595134347_rgbf000084-resize_4/001235_2014-06-17_16-37-36_260595134347_rgbf000084-resize-original.jpg,4815,1096370,1418419,38
579100,DepthScenes,v2_duration_discrimination,discrim_jsons/shuffled_g0_rotated.json,http://54.211.221.249/DepthDuration/v2_depth_discrimination_MTurk/v2_DepthDiscrim_HTML.html#3,3,1347,625,1364,768,8-2-2021,9-10-41,160,,,,,,,4744,557,1250,759,1359,177,,3,2,depth_discrimination_stimuli/002460_2014-06-28_20-35-43_260595134347_rgbf000028-resize_4/002460_2014-06-28_20-35-43_260595134347_rgbf000028-resize-original.jpg,4110,1096370,1418419,38
579100,DepthScenes,v2_duration_discrimination,discrim_jsons/shuffled_g0_rotated.json,http://54.211.221.249/DepthDuration/v2_depth_discrimination_MTurk/v2_DepthDiscrim_HTML.html#3,3,1347,625,1364,768,8-2-2021,9-10-41,161,,,,,,,4744,557,1250,759,1359,177,,5,4,depth_discrimination_stimuli/000522_2014-06-08_13-35-06_260595134347_rgbf000244-resize_1/000522_2014-06-08_13-35-06_260595134347_rgbf000244-resize-original.jpg,2965,1096370,1418419,38
579100,DepthScenes,v2_duration_discrimination,discrim_jsons/shuffled_g0_rotated.json,http://54.211.221.249/DepthDuration/v2_depth_discrimination_MTurk/v2_DepthDiscrim_HTML.html#3,3,1347,625,1364,768,8-2-2021,9-10-41,162,,,,,,,4744,557,1250,759,1359,177,,4,3,depth_discrimination_stimuli/001392_2014-06-19_16-07-59_260595134347_rgbf000046-resize_1/001392_2014-06-19_16-07-59_260595134347_rgbf000046-resize-original.jpg,3234,1096370,1418419,38
579100,DepthScenes,v2_duration_discrimination,discrim_jsons/shuffled_g0_rotated.json,http://54.211.221.249/DepthDuration/v2_depth_discrimination_MTurk/v2_DepthDiscrim_HTML.html#3,3,1347,625,1364,768,8-2-2021,9-10-41,163,,,,,,,4744,557,1250,759,1359,177,,4,5,depth_discrimination_stimuli/002549_2014-06-24_13-41-39_094959634447_rgbf000022-resize_3/002549_2014-06-24_13-41-39_094959634447_rgbf000022-resize-original.jpg,3256,1096370,1418419,38
579100,DepthScenes,v2_duration_discrimination,discrim_jsons/shuffled_g0_rotated.json,http://54.211.221.249/DepthDuration/v2_depth_discrimination_MTurk/v2_DepthDiscrim_HTML.html#3,3,1347,625,1364,768,8-2-2021,9-10-41,164,,,,,,,4744,557,1250,759,1359,177,,2,3,depth_discrimination_stimuli/000709_2014-06-08_13-51-55_260595134347_rgbf000068-resize_3/000709_2014-06-08_13-51-55_260595134347_rgbf000068-resize-original.jpg,2778,1096370,1418419,38
579100,DepthScenes,v2_duration_discrimination,discrim_jsons/shuffled_g0_rotated.json,http://54.211.221.249/DepthDuration/v2_depth_discrimination_MTurk/v2_DepthDiscrim_HTML.html#3,3,1347,625,1364,768,8-2-2021,9-10-41,165,,,,,,,4744,557,1250,759,1359,177,,4,3,depth_discrimination_stimuli/001132_2014-06-17_14-48-54_260595134347_rgbf000100-resize_2/001132_2014-06-17_14-48-54_260595134347_rgbf000100-resize-original.jpg,2655,1096370,1418419,38
579100,DepthScenes,v2_duration_discrimination,discrim_jsons/shuffled_g0_rotated.json,http://54.211.221.249/DepthDuration/v2_depth_discrimination_MTurk/v2_DepthDiscrim_HTML.html#3,3,1347,625,1364,768,8-2-2021,9-10-41,166,,,,,,,4744,557,1250,759,1359,177,,4,3,depth_discrimination_stimuli/002365_2014-06-28_20-11-21_260595134347_rgbf000102-resize_1/002365_2014-06-28_20-11-21_260595134347_rgbf000102-resize-original.jpg,4038,1096370,1418419,38
579100,DepthScenes,v2_duration_discrimination,discrim_jsons/shuffled_g0_rotated.json,http://54.211.221.249/DepthDuration/v2_depth_discrimination_MTurk/v2_DepthDiscrim_HTML.html#3,3,1347,625,1364,768,8-2-2021,9-10-41,167,,,,,,,4744,557,1250,759,1359,177,,5,5,depth_discrimination_stimuli/000447_2014-06-08_16-15-46_260595134347_rgbf000130-resize_1/000447_2014-06-08_16-15-46_260595134347_rgbf000130-resize-original.jpg,5135,1096370,1418419,38
579100,DepthScenes,v2_duration_discrimination,discrim_jsons/shuffled_g0_rotated.json,http://54.211.221.249/DepthDuration/v2_depth_discrimination_MTurk/v2_DepthDiscrim_HTML.html#3,3,1347,625,1364,768,8-2-2021,9-10-41,168,,,,,,,4744,557,1250,759,1359,177,,4,3,depth_discrimination_stimuli/000642_2014-06-08_16-59-25_260595134347_rgbf000098-resize_2/000642_2014-06-08_16-59-25_260595134347_rgbf000098-resize-original.jpg,2760,1096370,1418419,38
579100,DepthScenes,v2_duration_discrimination,discrim_jsons/shuffled_g0_rotated.json,http://54.211.221.249/DepthDuration/v2_depth_discrimination_MTurk/v2_DepthDiscrim_HTML.html#3,3,1347,625,1364,768,8-2-2021,9-10-41,169,,,,,,,4744,557,1250,759,1359,177,,4,5,depth_discrimination_stimuli/002425_2014-06-28_20-27-29_260595134347_rgbf000031-resize_8/002425_2014-06-28_20-27-29_260595134347_rgbf000031-resize-original.jpg,6800,1096370,1418419,38
579100,DepthScenes,v2_duration_discrimination,discrim_jsons/shuffled_g0_rotated.json,http://54.211.221.249/DepthDuration/v2_depth_discrimination_MTurk/v2_DepthDiscrim_HTML.html#3,3,1347,625,1364,768,8-2-2021,9-10-41,170,,,,,,,4744,557,1250,759,1359,177,,4,2,depth_discrimination_stimuli/001555_2014-06-20_17-12-10_260595134347_rgbf000065-resize_4/001555_2014-06-20_17-12-10_260595134347_rgbf000065-resize-original.jpg,5141,1096370,1418419,38
579100,DepthScenes,v2_duration_discrimination,discrim_jsons/shuffled_g0_rotated.json,http://54.211.221.249/DepthDuration/v2_depth_discrimination_MTurk/v2_DepthDiscrim_HTML.html#3,3,1347,625,1364,768,8-2-2021,9-10-41,171,,,,,,,4744,557,1250,759,1359,177,,4,3,depth_discrimination_stimuli/000137_2014-05-20_17-04-49_260595134347_rgbf000120-resize_1/000137_2014-05-20_17-04-49_260595134347_rgbf000120-resize-original.jpg,5900,1096370,1418419,38
579100,DepthScenes,v2_duration_discrimination,discrim_jsons/shuffled_g0_rotated.json,http://54.211.221.249/DepthDuration/v2_depth_discrimination_MTurk/v2_DepthDiscrim_HTML.html#3,3,1347,625,1364,768,8-2-2021,9-10-41,172,,,,,,,4744,557,1250,759,1359,177,,5,3,depth_discrimination_stimuli/000470_2014-06-09_19-42-40_260595134347_rgbf000094-resize_1/000470_2014-06-09_19-42-40_260595134347_rgbf000094-resize-original.jpg,5117,1096370,1418419,38
579100,DepthScenes,v2_duration_discrimination,discrim_jsons/shuffled_g0_rotated.json,http://54.211.221.249/DepthDuration/v2_depth_discrimination_MTurk/v2_DepthDiscrim_HTML.html#3,3,1347,625,1364,768,8-2-2021,9-10-41,173,,,,,,,4744,557,1250,759,1359,177,,4,3,depth_discrimination_stimuli/002630_2014-06-24_14-47-50_094959634447_rgbf000055-resize_1/002630_2014-06-24_14-47-50_094959634447_rgbf000055-resize-original.jpg,4891,1096370,1418419,38
579100,DepthScenes,v2_duration_discrimination,discrim_jsons/shuffled_g0_rotated.json,http://54.211.221.249/DepthDuration/v2_depth_discrimination_MTurk/v2_DepthDiscrim_HTML.html#3,3,1347,625,1364,768,8-2-2021,9-10-41,174,,,,,,,4744,557,1250,759,1359,177,,4,2,depth_discrimination_stimuli/003288_2014-05-14_21-50-30_094959634447_rgbf000028-resize_3/003288_2014-05-14_21-50-30_094959634447_rgbf000028-resize-original.jpg,8115,1096370,1418419,38
579100,DepthScenes,v2_duration_discrimination,discrim_jsons/shuffled_g0_rotated.json,http://54.211.221.249/DepthDuration/v2_depth_discrimination_MTurk/v2_DepthDiscrim_HTML.html#3,3,1347,625,1364,768,8-2-2021,9-10-41,175,,,,,,,4744,557,1250,759,1359,177,,5,3,depth_discrimination_stimuli/002375_2014-06-28_20-13-44_260595134347_rgbf000032-resize_1/002375_2014-06-28_20-13-44_260595134347_rgbf000032-resize-original.jpg,2775,1096370,1418419,38
579100,DepthScenes,v2_duration_discrimination,discrim_jsons/shuffled_g0_rotated.json,http://54.211.221.249/DepthDuration/v2_depth_discrimination_MTurk/v2_DepthDiscrim_HTML.html#3,3,1347,625,1364,768,8-2-2021,9-10-41,176,,,,,,,4744,557,1250,759,1359,177,,3,4,depth_discrimination_stimuli/000191_2014-05-12_17-07-38_260595134347_rgbf000199-resize_0/000191_2014-05-12_17-07-38_260595134347_rgbf000199-resize-original.jpg,2047,1096370,1418419,38
579100,DepthScenes,v2_duration_discrimination,discrim_jsons/shuffled_g0_rotated.json,http://54.211.221.249/DepthDuration/v2_depth_discrimination_MTurk/v2_DepthDiscrim_HTML.html#3,3,1347,625,1364,768,8-2-2021,9-10-41,177,,,,,,,4744,557,1250,759,1359,177,,4,4,depth_discrimination_stimuli/003292_2014-05-14_21-53-49_094959634447_rgbf000100-resize_2/003292_2014-05-14_21-53-49_094959634447_rgbf000100-resize-original.jpg,6551,1096370,1418419,38
579100,DepthScenes,v2_duration_discrimination,discrim_jsons/shuffled_g0_rotated.json,http://54.211.221.249/DepthDuration/v2_depth_discrimination_MTurk/v2_DepthDiscrim_HTML.html#3,3,1347,625,1364,768,8-2-2021,9-10-41,178,,,,,,,4744,557,1250,759,1359,177,,2,5,depth_discrimination_stimuli/001618_2014-06-20_11-37-31_260595134347_rgbf000027-resize_3/001618_2014-06-20_11-37-31_260595134347_rgbf000027-resize-original.jpg,4591,1096370,1418419,38
579100,DepthScenes,v2_duration_discrimination,discrim_jsons/shuffled_g0_rotated.json,http://54.211.221.249/DepthDuration/v2_depth_discrimination_MTurk/v2_DepthDiscrim_HTML.html#3,3,1347,625,1364,768,8-2-2021,9-10-41,179,,,,,,,4744,557,1250,759,1359,177,,4,5,depth_discrimination_stimuli/000854_2014-06-09_19-43-13_260595134347_rgbf000066-resize_0/000854_2014-06-09_19-43-13_260595134347_rgbf000066-resize-original.jpg,3075,1096370,1418419,38
579100,DepthScenes,v2_duration_discrimination,discrim_jsons/shuffled_g0_rotated.json,http://54.211.221.249/DepthDuration/v2_depth_discrimination_MTurk/v2_DepthDiscrim_HTML.html#3,3,1347,625,1364,768,8-2-2021,9-10-41,180,,,,,,,4744,557,1250,759,1359,177,,3,2,depth_discrimination_stimuli/001264_2014-06-16_16-10-23_260595134347_rgbf000109-resize_1/001264_2014-06-16_16-10-23_260595134347_rgbf000109-resize-original.jpg,3189,1096370,1418419,38
579100,DepthScenes,v2_duration_discrimination,discrim_jsons/shuffled_g0_rotated.json,http://54.211.221.249/DepthDuration/v2_depth_discrimination_MTurk/v2_DepthDiscrim_HTML.html#3,3,1347,625,1364,768,8-2-2021,9-10-41,181,,,,,,,4744,557,1250,759,1359,177,,4,5,depth_discrimination_stimuli/001094_2014-06-15_17-36-00_260595134347_rgbf000205-resize_0/001094_2014-06-15_17-36-00_260595134347_rgbf000205-resize-original.jpg,3747,1096370,1418419,38
579100,DepthScenes,v2_duration_discrimination,discrim_jsons/shuffled_g0_rotated.json,http://54.211.221.249/DepthDuration/v2_depth_discrimination_MTurk/v2_DepthDiscrim_HTML.html#3,3,1347,625,1364,768,8-2-2021,9-10-41,182,,,,,,,4744,557,1250,759,1359,177,,3,2,depth_discrimination_stimuli/000929_2014-06-09_16-33-19_260595134347_rgbf000139-resize_0/000929_2014-06-09_16-33-19_260595134347_rgbf000139-resize-original.jpg,5284,1096370,1418419,38
579100,DepthScenes,v2_duration_discrimination,discrim_jsons/shuffled_g0_rotated.json,http://54.211.221.249/DepthDuration/v2_depth_discrimination_MTurk/v2_DepthDiscrim_HTML.html#3,3,1347,625,1364,768,8-2-2021,9-10-41,183,,,,,,,4744,557,1250,759,1359,177,,4,5,depth_discrimination_stimuli/003338_2014-05-20_11-01-23_094959634447_rgbf000051-resize_6/003338_2014-05-20_11-01-23_094959634447_rgbf000051-resize-original.jpg,3779,1096370,1418419,38
579100,DepthScenes,v2_duration_discrimination,discrim_jsons/shuffled_g0_rotated.json,http://54.211.221.249/DepthDuration/v2_depth_discrimination_MTurk/v2_DepthDiscrim_HTML.html#3,3,1347,625,1364,768,8-2-2021,9-10-41,184,,,,,,,4744,557,1250,759,1359,177,,4,3,depth_discrimination_stimuli/000753_2014-06-08_21-57-44_260595134347_rgbf000123-resize_3/000753_2014-06-08_21-57-44_260595134347_rgbf000123-resize-original.jpg,3189,1096370,1418419,38
579100,DepthScenes,v2_duration_discrimination,discrim_jsons/shuffled_g0_rotated.json,http://54.211.221.249/DepthDuration/v2_depth_discrimination_MTurk/v2_DepthDiscrim_HTML.html#3,3,1347,625,1364,768,8-2-2021,9-10-41,185,,,,,,,4744,557,1250,759,1359,177,,5,5,depth_discrimination_stimuli/001810_2014-06-26_20-51-35_260595134347_rgbf000040-resize_3/001810_2014-06-26_20-51-35_260595134347_rgbf000040-resize-original.jpg,3067,1096370,1418419,38
579100,DepthScenes,v2_duration_discrimination,discrim_jsons/shuffled_g0_rotated.json,http://54.211.221.249/DepthDuration/v2_depth_discrimination_MTurk/v2_DepthDiscrim_HTML.html#3,3,1347,625,1364,768,8-2-2021,9-10-41,186,,,,,,,4744,557,1250,759,1359,177,,4,2,depth_discrimination_stimuli/001289_2014-06-16_16-25-52_260595134347_rgbf000067-resize_1/001289_2014-06-16_16-25-52_260595134347_rgbf000067-resize-original.jpg,3667,1096370,1418419,38
579100,DepthScenes,v2_duration_discrimination,discrim_jsons/shuffled_g0_rotated.json,http://54.211.221.249/DepthDuration/v2_depth_discrimination_MTurk/v2_DepthDiscrim_HTML.html#3,3,1347,625,1364,768,8-2-2021,9-10-41,187,,,,,,,4744,557,1250,759,1359,177,,4,3,depth_discrimination_stimuli/002949_2014-06-26_15-57-42_094959634447_rgbf000079-resize_1/002949_2014-06-26_15-57-42_094959634447_rgbf000079-resize-original.jpg,5751,1096370,1418419,38
579100,DepthScenes,v2_duration_discrimination,discrim_jsons/shuffled_g0_rotated.json,http://54.211.221.249/DepthDuration/v2_depth_discrimination_MTurk/v2_DepthDiscrim_HTML.html#3,3,1347,625,1364,768,8-2-2021,9-10-41,188,,,,,,,4744,557,1250,759,1359,177,,3,2,depth_discrimination_stimuli/002043_2014-06-24_20-29-38_260595134347_rgbf000039-resize_4/002043_2014-06-24_20-29-38_260595134347_rgbf000039-resize-original.jpg,2078,1096370,1418419,38
579100,DepthScenes,v2_duration_discrimination,discrim_jsons/shuffled_g0_rotated.json,http://54.211.221.249/DepthDuration/v2_depth_discrimination_MTurk/v2_DepthDiscrim_HTML.html#3,3,1347,625,1364,768,8-2-2021,9-10-41,189,,,,,,,4744,557,1250,759,1359,177,,5,4,depth_discrimination_stimuli/001806_2014-06-26_20-50-20_260595134347_rgbf000091-resize_1/001806_2014-06-26_20-50-20_260595134347_rgbf000091-resize-original.jpg,2039,1096370,1418419,38
579100,DepthScenes,v2_duration_discrimination,discrim_jsons/shuffled_g0_rotated.json,http://54.211.221.249/DepthDuration/v2_depth_discrimination_MTurk/v2_DepthDiscrim_HTML.html#3,3,1347,625,1364,768,8-2-2021,9-10-41,190,,,,,,,4744,557,1250,759,1359,177,,5,4,depth_discrimination_stimuli/002989_2014-06-15_12-25-03_094959634447_rgbf000150-resize_3/002989_2014-06-15_12-25-03_094959634447_rgbf000150-resize-original.jpg,1957,1096370,1418419,38
579100,DepthScenes,v2_duration_discrimination,discrim_jsons/shuffled_g0_rotated.json,http://54.211.221.249/DepthDuration/v2_depth_discrimination_MTurk/v2_DepthDiscrim_HTML.html#3,3,1347,625,1364,768,8-2-2021,9-10-41,191,,,,,,,4744,557,1250,759,1359,177,,3,4,depth_discrimination_stimuli/001016_2014-06-09_16-16-10_260595134347_rgbf000112-resize_5/001016_2014-06-09_16-16-10_260595134347_rgbf000112-resize-original.jpg,2184,1096370,1418419,38
579100,DepthScenes,v2_duration_discrimination,discrim_jsons/shuffled_g0_rotated.json,http://54.211.221.249/DepthDuration/v2_depth_discrimination_MTurk/v2_DepthDiscrim_HTML.html#3,3,1347,625,1364,768,8-2-2021,9-10-41,192,,,,,,,4744,557,1250,759,1359,177,,4,4,depth_discrimination_stimuli/000502_2014-06-08_23-02-32_260595134347_rgbf000063-resize_4/000502_2014-06-08_23-02-32_260595134347_rgbf000063-resize-original.jpg,2284,1096370,1418419,38
579100,DepthScenes,v2_duration_discrimination,discrim_jsons/shuffled_g0_rotated.json,http://54.211.221.249/DepthDuration/v2_depth_discrimination_MTurk/v2_DepthDiscrim_HTML.html#3,3,1347,625,1364,768,8-2-2021,9-10-41,193,,,,,,,4744,557,1250,759,1359,177,,4,3,scene_property_catch_stimuli/000675_2014-06-08_22-59-18_260595134347_rgbf000096-resize.jpg,1869,1096370,1418419,38
579100,DepthScenes,v2_duration_discrimination,discrim_jsons/shuffled_g0_rotated.json,http://54.211.221.249/DepthDuration/v2_depth_discrimination_MTurk/v2_DepthDiscrim_HTML.html#3,3,1347,625,1364,768,8-2-2021,9-10-41,194,,,,,,,4744,557,1250,759,1359,177,,3,2,depth_discrimination_stimuli/002700_2014-06-22_11-27-02_094959634447_rgbf000124-resize_3/002700_2014-06-22_11-27-02_094959634447_rgbf000124-resize-original.jpg,2847,1096370,1418419,38
579100,DepthScenes,v2_duration_discrimination,discrim_jsons/shuffled_g0_rotated.json,http://54.211.221.249/DepthDuration/v2_depth_discrimination_MTurk/v2_DepthDiscrim_HTML.html#3,3,1347,625,1364,768,8-2-2021,9-10-41,195,,,,,,,4744,557,1250,759,1359,177,,5,4,depth_discrimination_stimuli/000469_2014-06-09_19-42-10_260595134347_rgbf000081-resize_1/000469_2014-06-09_19-42-10_260595134347_rgbf000081-resize-original.jpg,1966,1096370,1418419,38
579100,DepthScenes,v2_duration_discrimination,discrim_jsons/shuffled_g0_rotated.json,http://54.211.221.249/DepthDuration/v2_depth_discrimination_MTurk/v2_DepthDiscrim_HTML.html#3,3,1347,625,1364,768,8-2-2021,9-10-41,196,,,,,,,4744,557,1250,759,1359,177,,3,4,depth_discrimination_stimuli/003010_2014-06-15_12-54-35_094959634447_rgbf000112-resize_0/003010_2014-06-15_12-54-35_094959634447_rgbf000112-resize-original.jpg,1537,1096370,1418419,38
579100,DepthScenes,v2_duration_discrimination,discrim_jsons/shuffled_g0_rotated.json,http://54.211.221.249/DepthDuration/v2_depth_discrimination_MTurk/v2_DepthDiscrim_HTML.html#3,3,1347,625,1364,768,8-2-2021,9-10-41,197,,,,,,,4744,557,1250,759,1359,177,,3,2,depth_discrimination_stimuli/002279_2014-06-28_18-55-32_260595134347_rgbf000040-resize_5/002279_2014-06-28_18-55-32_260595134347_rgbf000040-resize-original.jpg,1884,1096370,1418419,38
579100,DepthScenes,v2_duration_discrimination,discrim_jsons/shuffled_g0_rotated.json,http://54.211.221.249/DepthDuration/v2_depth_discrimination_MTurk/v2_DepthDiscrim_HTML.html#3,3,1347,625,1364,768,8-2-2021,9-10-41,198,,,,,,,4744,557,1250,759,1359,177,,5,4,depth_discrimination_stimuli/001055_2014-06-08_18-45-35_260595134347_rgbf000111-resize_4/001055_2014-06-08_18-45-35_260595134347_rgbf000111-resize-original.jpg,2397,1096370,1418419,38
579100,DepthScenes,v2_duration_discrimination,discrim_jsons/shuffled_g0_rotated.json,http://54.211.221.249/DepthDuration/v2_depth_discrimination_MTurk/v2_DepthDiscrim_HTML.html#3,3,1347,625,1364,768,8-2-2021,9-10-41,199,,,,,,,4744,557,1250,759,1359,177,,3,4,depth_discrimination_stimuli/002637_2014-06-24_14-51-13_094959634447_rgbf000066-resize_4/002637_2014-06-24_14-51-13_094959634447_rgbf000066-resize-original.jpg,1490,1096370,1418419,38
579100,DepthScenes,v2_duration_discrimination,discrim_jsons/shuffled_g0_rotated.json,http://54.211.221.249/DepthDuration/v2_depth_discrimination_MTurk/v2_DepthDiscrim_HTML.html#3,3,1347,625,1364,768,8-2-2021,9-10-41,200,,,,,,,4744,557,1250,759,1359,177,,3,2,depth_discrimination_stimuli/001516_2014-06-20_16-25-09_260595134347_rgbf000076-resize_2/001516_2014-06-20_16-25-09_260595134347_rgbf000076-resize-original.jpg,2988,1096370,1418419,38
579100,DepthScenes,v2_duration_discrimination,discrim_jsons/shuffled_g0_rotated.json,http://54.211.221.249/DepthDuration/v2_depth_discrimination_MTurk/v2_DepthDiscrim_HTML.html#3,3,1347,625,1364,768,8-2-2021,9-10-41,201,,,,,,,4744,557,1250,759,1359,177,,5,4,depth_discrimination_stimuli/000692_2014-06-08_13-09-42_260595134347_rgbf000199-resize_2/000692_2014-06-08_13-09-42_260595134347_rgbf000199-resize-original.jpg,1990,1096370,1418419,38
579100,DepthScenes,v2_duration_discrimination,discrim_jsons/shuffled_g0_rotated.json,http://54.211.221.249/DepthDuration/v2_depth_discrimination_MTurk/v2_DepthDiscrim_HTML.html#3,3,1347,625,1364,768,8-2-2021,9-10-41,202,,,,,,,4744,557,1250,759,1359,177,,4,4,depth_discrimination_stimuli/002750_2014-06-22_19-08-03_094959634447_rgbf000094-resize_4/002750_2014-06-22_19-08-03_094959634447_rgbf000094-resize-original.jpg,2470,1096370,1418419,38
579100,DepthScenes,v2_duration_discrimination,discrim_jsons/shuffled_g0_rotated.json,http://54.211.221.249/DepthDuration/v2_depth_discrimination_MTurk/v2_DepthDiscrim_HTML.html#3,3,1347,625,1364,768,8-2-2021,9-10-41,203,,,,,,,4744,557,1250,759,1359,177,,3,3,depth_discrimination_stimuli/000739_2014-06-08_18-45-58_260595134347_rgbf000068-resize_1/000739_2014-06-08_18-45-58_260595134347_rgbf000068-resize-original.jpg,2407,1096370,1418419,38
579100,DepthScenes,v2_duration_discrimination,discrim_jsons/shuffled_g0_rotated.json,http://54.211.221.249/DepthDuration/v2_depth_discrimination_MTurk/v2_DepthDiscrim_HTML.html#3,3,1347,625,1364,768,8-2-2021,9-10-41,204,,,,,,,4744,557,1250,759,1359,177,,4,4,depth_discrimination_stimuli/002305_2014-06-28_19-56-50_260595134347_rgbf000102-resize_7/002305_2014-06-28_19-56-50_260595134347_rgbf000102-resize-original.jpg,2918,1096370,1418419,38
579100,DepthScenes,v2_duration_discrimination,discrim_jsons/shuffled_g0_rotated.json,http://54.211.221.249/DepthDuration/v2_depth_discrimination_MTurk/v2_DepthDiscrim_HTML.html#3,3,1347,625,1364,768,8-2-2021,9-10-41,205,,,,,,,4744,557,1250,759,1359,177,,4,5,depth_discrimination_stimuli/002139_2014-06-25_21-19-37_260595134347_rgbf000124-resize_2/002139_2014-06-25_21-19-37_260595134347_rgbf000124-resize-original.jpg,2972,1096370,1418419,38
579100,DepthScenes,v2_duration_discrimination,discrim_jsons/shuffled_g0_rotated.json,http://54.211.221.249/DepthDuration/v2_depth_discrimination_MTurk/v2_DepthDiscrim_HTML.html#3,3,1347,625,1364,768,8-2-2021,9-10-41,206,,,,,,,4744,557,1250,759,1359,177,,4,5,depth_discrimination_stimuli/000483_2014-06-09_20-41-45_260595134347_rgbf000116-resize_4/000483_2014-06-09_20-41-45_260595134347_rgbf000116-resize-original.jpg,3365,1096370,1418419,38
579100,DepthScenes,v2_duration_discrimination,discrim_jsons/shuffled_g0_rotated.json,http://54.211.221.249/DepthDuration/v2_depth_discrimination_MTurk/v2_DepthDiscrim_HTML.html#3,3,1347,625,1364,768,8-2-2021,9-10-41,207,,,,,,,4744,557,1250,759,1359,177,,4,4,depth_discrimination_stimuli/001150_2014-06-17_15-27-34_260595134347_rgbf000108-resize_2/001150_2014-06-17_15-27-34_260595134347_rgbf000108-resize-original.jpg,2194,1096370,1418419,38
579100,DepthScenes,v2_duration_discrimination,discrim_jsons/shuffled_g0_rotated.json,http://54.211.221.249/DepthDuration/v2_depth_discrimination_MTurk/v2_DepthDiscrim_HTML.html#3,3,1347,625,1364,768,8-2-2021,9-10-41,208,,,,,,,4744,557,1250,759,1359,177,,3,4,depth_discrimination_stimuli/003228_2014-05-14_13-42-35_094959634447_rgbf000101-resize_1/003228_2014-05-14_13-42-35_094959634447_rgbf000101-resize-original.jpg,5713,1096370,1418419,38
579100,DepthScenes,v2_duration_discrimination,discrim_jsons/shuffled_g0_rotated.json,http://54.211.221.249/DepthDuration/v2_depth_discrimination_MTurk/v2_DepthDiscrim_HTML.html#3,3,1347,625,1364,768,8-2-2021,9-10-41,209,,,,,,,4744,557,1250,759,1359,177,,4,4,depth_discrimination_stimuli/002414_2014-06-28_20-24-58_260595134347_rgbf000067-resize_4/002414_2014-06-28_20-24-58_260595134347_rgbf000067-resize-original.jpg,3960,1096370,1418419,38
579100,DepthScenes,v2_duration_discrimination,discrim_jsons/shuffled_g0_rotated.json,http://54.211.221.249/DepthDuration/v2_depth_discrimination_MTurk/v2_DepthDiscrim_HTML.html#3,3,1347,625,1364,768,8-2-2021,9-10-41,210,,,,,,,4744,557,1250,759,1359,177,,4,3,depth_discrimination_stimuli/001617_2014-06-20_11-35-32_260595134347_rgbf000066-resize_1/001617_2014-06-20_11-35-32_260595134347_rgbf000066-resize-original.jpg,7279,1096370,1418419,38
579100,DepthScenes,v2_duration_discrimination,discrim_jsons/shuffled_g0_rotated.json,http://54.211.221.249/DepthDuration/v2_depth_discrimination_MTurk/v2_DepthDiscrim_HTML.html#3,3,1347,625,1364,768,8-2-2021,9-10-41,211,,,,,,,4744,557,1250,759,1359,177,,5,4,depth_discrimination_stimuli/000866_2014-06-09_20-45-42_260595134347_rgbf000139-resize_1/000866_2014-06-09_20-45-42_260595134347_rgbf000139-resize-original.jpg,3299,1096370,1418419,38
