subjID,experimentName,versionName,sequenceName,url,selected_row,windowWidth,windowHeight,screenWidth,screenHeight,startDate,startTime,trial,stimulus_0,stimulus_1,duration,actual_depth_0,actual_depth_1,discrim_choice,trial_RT,log_fixation,log_sceneDuration1,log_mask1,log_sceneDuration2,log_mask2,unitSelection,meanDepth_rating,navigability_rating,rated_stimulus,rating_RT,experimentTime,totalTime,age
133786,DepthScenes,v2_duration_discrimination,discrim_jsons/shuffled_g0_rotated.json,http://54.211.221.249/DepthDuration/v2_depth_discrimination_MTurk/v2_DepthDiscrim_HTML.html#3,3,1366,625,1366,768,8-2-2021,9-48-20,1,depth_discrimination_stimuli/000109_2014-05-14_23-41-52_260595134347_rgbf000035-resize_9/000109_2014-05-14_23-41-52_260595134347_rgbf000035-resize_9-target.png,depth_discrimination_stimuli/001618_2014-06-20_11-37-31_260595134347_rgbf000027-resize_3/001618_2014-06-20_11-37-31_260595134347_rgbf000027-resize_3-target.png,250,1.3545,1.8725,1,979,516,250,1000,248,491,,,,,,1238030,1392337,46
133786,DepthScenes,v2_duration_discrimination,discrim_jsons/shuffled_g0_rotated.json,http://54.211.221.249/DepthDuration/v2_depth_discrimination_MTurk/v2_DepthDiscrim_HTML.html#3,3,1366,625,1366,768,8-2-2021,9-48-20,2,depth_discrimination_stimuli/000502_2014-06-08_23-02-32_260595134347_rgbf000063-resize_4/000502_2014-06-08_23-02-32_260595134347_rgbf000063-resize_4-target.png,depth_discrimination_stimuli/001092_2014-06-15_17-34-58_260595134347_rgbf000171-resize_3/001092_2014-06-15_17-34-58_260595134347_rgbf000171-resize_3-target.png,1000,2.431,2.6935,0,2057,517,998,990,998,510,,,,,,1238030,1392337,46
133786,DepthScenes,v2_duration_discrimination,discrim_jsons/shuffled_g0_rotated.json,http://54.211.221.249/DepthDuration/v2_depth_discrimination_MTurk/v2_DepthDiscrim_HTML.html#3,3,1366,625,1366,768,8-2-2021,9-48-20,3,depth_discrimination_stimuli/000953_2014-06-08_11-42-19_260595134347_rgbf000083-resize_0/000953_2014-06-08_11-42-19_260595134347_rgbf000083-resize_0-target.png,depth_discrimination_stimuli/000787_2014-06-08_22-33-53_260595134347_rgbf000175-resize_1/000787_2014-06-08_22-33-53_260595134347_rgbf000175-resize_1-target.png,250,1.369,4.784,0,1443,512,249,990,249,510,,,,,,1238030,1392337,46
133786,DepthScenes,v2_duration_discrimination,discrim_jsons/shuffled_g0_rotated.json,http://54.211.221.249/DepthDuration/v2_depth_discrimination_MTurk/v2_DepthDiscrim_HTML.html#3,3,1366,625,1366,768,8-2-2021,9-48-20,4,depth_discrimination_stimuli/000742_2014-06-08_18-48-09_260595134347_rgbf000164-resize_4/000742_2014-06-08_18-48-09_260595134347_rgbf000164-resize_4-target.png,depth_discrimination_stimuli/003083_2014-06-15_15-21-03_094959634447_rgbf000063-resize_1/003083_2014-06-15_15-21-03_094959634447_rgbf000063-resize_1-target.png,250,4.632,4.1405,0,1339,515,249,995,244,510,,,,,,1238030,1392337,46
133786,DepthScenes,v2_duration_discrimination,discrim_jsons/shuffled_g0_rotated.json,http://54.211.221.249/DepthDuration/v2_depth_discrimination_MTurk/v2_DepthDiscrim_HTML.html#3,3,1366,625,1366,768,8-2-2021,9-48-20,5,depth_discrimination_stimuli/000943_2014-06-09_19-31-07_260595134347_rgbf000128-resize_1/000943_2014-06-09_19-31-07_260595134347_rgbf000128-resize_1-target.png,depth_discrimination_stimuli/001532_2014-06-20_16-50-41_260595134347_rgbf000081-resize_4/001532_2014-06-20_16-50-41_260595134347_rgbf000081-resize_4-target.png,1000,1.9765,1.5758333333333,1,1787,505,998,1010,989,510,,,,,,1238030,1392337,46
133786,DepthScenes,v2_duration_discrimination,discrim_jsons/shuffled_g0_rotated.json,http://54.211.221.249/DepthDuration/v2_depth_discrimination_MTurk/v2_DepthDiscrim_HTML.html#3,3,1366,625,1366,768,8-2-2021,9-48-20,6,depth_discrimination_stimuli/001056_2014-06-08_18-46-44_260595134347_rgbf000068-resize_0/001056_2014-06-08_18-46-44_260595134347_rgbf000068-resize_0-target.png,depth_discrimination_stimuli/000749_2014-06-08_21-55-06_260595134347_rgbf000070-resize_2/000749_2014-06-08_21-55-06_260595134347_rgbf000070-resize_2-target.png,1000,2.6625,2.331,1,1828,502,998,1005,994,500,,,,,,1238030,1392337,46
133786,DepthScenes,v2_duration_discrimination,discrim_jsons/shuffled_g0_rotated.json,http://54.211.221.249/DepthDuration/v2_depth_discrimination_MTurk/v2_DepthDiscrim_HTML.html#3,3,1366,625,1366,768,8-2-2021,9-48-20,7,depth_discrimination_stimuli/000869_2014-06-09_20-50-18_260595134347_rgbf000060-resize_3/000869_2014-06-09_20-50-18_260595134347_rgbf000060-resize_3-target.png,depth_discrimination_stimuli/000800_2014-06-08_22-42-09_260595134347_rgbf000095-resize_3/000800_2014-06-08_22-42-09_260595134347_rgbf000095-resize_3-target.png,1000,2.266,2.8,0,2195,505,998,1000,1009,500,,,,,,1238030,1392337,46
133786,DepthScenes,v2_duration_discrimination,discrim_jsons/shuffled_g0_rotated.json,http://54.211.221.249/DepthDuration/v2_depth_discrimination_MTurk/v2_DepthDiscrim_HTML.html#3,3,1366,625,1366,768,8-2-2021,9-48-20,8,depth_discrimination_stimuli/002444_2014-06-28_20-32-08_260595134347_rgbf000027-resize_0/002444_2014-06-28_20-32-08_260595134347_rgbf000027-resize_0-target.png,depth_discrimination_stimuli/002103_2014-06-25_20-00-40_260595134347_rgbf000049-resize_0/002103_2014-06-25_20-00-40_260595134347_rgbf000049-resize_0-target.png,250,4.389,4.105,0,2035,514,239,1011,238,500,,,,,,1238030,1392337,46
133786,DepthScenes,v2_duration_discrimination,discrim_jsons/shuffled_g0_rotated.json,http://54.211.221.249/DepthDuration/v2_depth_discrimination_MTurk/v2_DepthDiscrim_HTML.html#3,3,1366,625,1366,768,8-2-2021,9-48-20,9,depth_discrimination_stimuli/001011_2014-06-08_23-18-54_260595134347_rgbf000044-resize_4/001011_2014-06-08_23-18-54_260595134347_rgbf000044-resize_4-target.png,depth_discrimination_stimuli/002043_2014-06-24_20-29-38_260595134347_rgbf000039-resize_4/002043_2014-06-24_20-29-38_260595134347_rgbf000039-resize_4-target.png,250,2.473,2.8435,0,1822,503,249,1010,239,501,,,,,,1238030,1392337,46
133786,DepthScenes,v2_duration_discrimination,discrim_jsons/shuffled_g0_rotated.json,http://54.211.221.249/DepthDuration/v2_depth_discrimination_MTurk/v2_DepthDiscrim_HTML.html#3,3,1366,625,1366,768,8-2-2021,9-48-20,10,depth_discrimination_stimuli/000454_2014-06-08_16-37-28_260595134347_rgbf000048-resize_2/000454_2014-06-08_16-37-28_260595134347_rgbf000048-resize_2-target.png,depth_discrimination_stimuli/000375_2014-06-08_11-17-29_260595134347_rgbf000133-resize_2/000375_2014-06-08_11-17-29_260595134347_rgbf000133-resize_2-target.png,1000,1.213,4.718,0,2246,517,989,1000,995,501,,,,,,1238030,1392337,46
133786,DepthScenes,v2_duration_discrimination,discrim_jsons/shuffled_g0_rotated.json,http://54.211.221.249/DepthDuration/v2_depth_discrimination_MTurk/v2_DepthDiscrim_HTML.html#3,3,1366,625,1366,768,8-2-2021,9-48-20,11,depth_discrimination_stimuli/002039_2014-06-24_20-22-38_260595134347_rgbf000084-resize_1/002039_2014-06-24_20-22-38_260595134347_rgbf000084-resize_1-target.png,depth_discrimination_stimuli/000691_2014-06-08_13-08-50_260595134347_rgbf000132-resize_3/000691_2014-06-08_13-08-50_260595134347_rgbf000132-resize_3-target.png,1000,4.408,4.153,1,1866,513,998,1000,999,490,,,,,,1238030,1392337,46
133786,DepthScenes,v2_duration_discrimination,discrim_jsons/shuffled_g0_rotated.json,http://54.211.221.249/DepthDuration/v2_depth_discrimination_MTurk/v2_DepthDiscrim_HTML.html#3,3,1366,625,1366,768,8-2-2021,9-48-20,12,depth_discrimination_stimuli/000709_2014-06-08_13-51-55_260595134347_rgbf000068-resize_3/000709_2014-06-08_13-51-55_260595134347_rgbf000068-resize_3-target.png,depth_discrimination_stimuli/003587_2014-05-23_16-48-02_094959634447_rgbf002384-resize_2/003587_2014-05-23_16-48-02_094959634447_rgbf002384-resize_2-target.png,1000,1.803,1.357,1,2159,513,989,1010,999,491,,,,,,1238030,1392337,46
133786,DepthScenes,v2_duration_discrimination,discrim_jsons/shuffled_g0_rotated.json,http://54.211.221.249/DepthDuration/v2_depth_discrimination_MTurk/v2_DepthDiscrim_HTML.html#3,3,1366,625,1366,768,8-2-2021,9-48-20,13,depth_discrimination_stimuli/002905_2014-06-03_18-04-43_094959634447_rgbf000151-resize_2/002905_2014-06-03_18-04-43_094959634447_rgbf000151-resize_2-target.png,depth_discrimination_stimuli/002340_2014-06-28_20-05-46_260595134347_rgbf000113-resize_0/002340_2014-06-28_20-05-46_260595134347_rgbf000113-resize_0-target.png,1000,2.0295,2.4735,0,2107,520,998,996,993,500,,,,,,1238030,1392337,46
133786,DepthScenes,v2_duration_discrimination,discrim_jsons/shuffled_g0_rotated.json,http://54.211.221.249/DepthDuration/v2_depth_discrimination_MTurk/v2_DepthDiscrim_HTML.html#3,3,1366,625,1366,768,8-2-2021,9-48-20,14,depth_discrimination_stimuli/000409_2014-06-04_19-23-33_260595134347_rgbf000067-resize_0/000409_2014-06-04_19-23-33_260595134347_rgbf000067-resize_0-target.png,depth_discrimination_stimuli/000493_2014-06-09_21-01-18_260595134347_rgbf000196-resize_3/000493_2014-06-09_21-01-18_260595134347_rgbf000196-resize_3-target.png,250,3.7335,3.44,0,1619,506,248,1000,249,510,,,,,,1238030,1392337,46
133786,DepthScenes,v2_duration_discrimination,discrim_jsons/shuffled_g0_rotated.json,http://54.211.221.249/DepthDuration/v2_depth_discrimination_MTurk/v2_DepthDiscrim_HTML.html#3,3,1366,625,1366,768,8-2-2021,9-48-20,15,depth_discrimination_stimuli/002675_2014-06-13_16-08-49_094959634447_rgbf000151-resize_2/002675_2014-06-13_16-08-49_094959634447_rgbf000151-resize_2-target.png,depth_discrimination_stimuli/001222_2014-06-17_16-24-06_260595134347_rgbf000073-resize_0/001222_2014-06-17_16-24-06_260595134347_rgbf000073-resize_0-target.png,1000,4.5065,1.4385,1,1828,520,999,999,990,510,,,,,,1238030,1392337,46
133786,DepthScenes,v2_duration_discrimination,discrim_jsons/shuffled_g0_rotated.json,http://54.211.221.249/DepthDuration/v2_depth_discrimination_MTurk/v2_DepthDiscrim_HTML.html#3,3,1366,625,1366,768,8-2-2021,9-48-20,16,depth_discrimination_stimuli/001016_2014-06-09_16-16-10_260595134347_rgbf000112-resize_5/001016_2014-06-09_16-16-10_260595134347_rgbf000112-resize_5-target.png,depth_discrimination_stimuli/002199_2014-06-28_18-33-56_260595134347_rgbf000074-resize_0/002199_2014-06-28_18-33-56_260595134347_rgbf000074-resize_0-target.png,250,1.6565,1.996,1,1365,511,259,991,259,489,,,,,,1238030,1392337,46
133786,DepthScenes,v2_duration_discrimination,discrim_jsons/shuffled_g0_rotated.json,http://54.211.221.249/DepthDuration/v2_depth_discrimination_MTurk/v2_DepthDiscrim_HTML.html#3,3,1366,625,1366,768,8-2-2021,9-48-20,17,depth_discrimination_stimuli/000470_2014-06-09_19-42-40_260595134347_rgbf000094-resize_1/000470_2014-06-09_19-42-40_260595134347_rgbf000094-resize_1-target.png,depth_discrimination_stimuli/002953_2014-06-08_17-32-18_094959634447_rgbf000059-resize_5/002953_2014-06-08_17-32-18_094959634447_rgbf000059-resize_5-target.png,250,1.831,1.551,1,1270,503,257,1001,246,505,,,,,,1238030,1392337,46
133786,DepthScenes,v2_duration_discrimination,discrim_jsons/shuffled_g0_rotated.json,http://54.211.221.249/DepthDuration/v2_depth_discrimination_MTurk/v2_DepthDiscrim_HTML.html#3,3,1366,625,1366,768,8-2-2021,9-48-20,18,depth_discrimination_stimuli/000569_2014-06-09_22-51-47_260595134347_rgbf000141-resize_3/000569_2014-06-09_22-51-47_260595134347_rgbf000141-resize_3-target.png,depth_discrimination_stimuli/000868_2014-06-09_20-49-52_260595134347_rgbf000064-resize_4/000868_2014-06-09_20-49-52_260595134347_rgbf000064-resize_4-target.png,250,4.512,1.2815,1,1130,511,248,1000,250,500,,,,,,1238030,1392337,46
133786,DepthScenes,v2_duration_discrimination,discrim_jsons/shuffled_g0_rotated.json,http://54.211.221.249/DepthDuration/v2_depth_discrimination_MTurk/v2_DepthDiscrim_HTML.html#3,3,1366,625,1366,768,8-2-2021,9-48-20,19,depth_discrimination_stimuli/001055_2014-06-08_18-45-35_260595134347_rgbf000111-resize_4/001055_2014-06-08_18-45-35_260595134347_rgbf000111-resize_4-target.png,depth_discrimination_stimuli/000929_2014-06-09_16-33-19_260595134347_rgbf000139-resize_0/000929_2014-06-09_16-33-19_260595134347_rgbf000139-resize_0-target.png,1000,2.429,2.868,1,2126,529,998,1000,999,500,,,,,,1238030,1392337,46
133786,DepthScenes,v2_duration_discrimination,discrim_jsons/shuffled_g0_rotated.json,http://54.211.221.249/DepthDuration/v2_depth_discrimination_MTurk/v2_DepthDiscrim_HTML.html#3,3,1366,625,1366,768,8-2-2021,9-48-20,20,depth_discrimination_stimuli/001164_2014-06-17_15-35-46_260595134347_rgbf000085-resize_3/001164_2014-06-17_15-35-46_260595134347_rgbf000085-resize_3-target.png,depth_discrimination_stimuli/002118_2014-06-25_20-32-08_260595134347_rgbf000078-resize_1/002118_2014-06-25_20-32-08_260595134347_rgbf000078-resize_1-target.png,1000,2.354,2.646,1,1847,503,999,1010,990,505,,,,,,1238030,1392337,46
133786,DepthScenes,v2_duration_discrimination,discrim_jsons/shuffled_g0_rotated.json,http://54.211.221.249/DepthDuration/v2_depth_discrimination_MTurk/v2_DepthDiscrim_HTML.html#3,3,1366,625,1366,768,8-2-2021,9-48-20,21,depth_discrimination_stimuli/000866_2014-06-09_20-45-42_260595134347_rgbf000139-resize_1/000866_2014-06-09_20-45-42_260595134347_rgbf000139-resize_1-target.png,depth_discrimination_stimuli/003490_2014-05-21_15-50-11_094959634447_rgbf000101-resize_3/003490_2014-05-21_15-50-11_094959634447_rgbf000101-resize_3-target.png,1000,3.2155,3.6445,0,2048,502,1000,1009,1001,488,,,,,,1238030,1392337,46
133786,DepthScenes,v2_duration_discrimination,discrim_jsons/shuffled_g0_rotated.json,http://54.211.221.249/DepthDuration/v2_depth_discrimination_MTurk/v2_DepthDiscrim_HTML.html#3,3,1366,625,1366,768,8-2-2021,9-48-20,22,depth_discrimination_stimuli/001584_2014-06-20_11-07-43_260595134347_rgbf000002-resize_1/001584_2014-06-20_11-07-43_260595134347_rgbf000002-resize_1-target.png,depth_discrimination_stimuli/002805_2014-06-22_19-54-03_094959634447_rgbf000079-resize_1/002805_2014-06-22_19-54-03_094959634447_rgbf000079-resize_1-target.png,250,3.53,3.144,0,1488,522,239,1000,249,500,,,,,,1238030,1392337,46
133786,DepthScenes,v2_duration_discrimination,discrim_jsons/shuffled_g0_rotated.json,http://54.211.221.249/DepthDuration/v2_depth_discrimination_MTurk/v2_DepthDiscrim_HTML.html#3,3,1366,625,1366,768,8-2-2021,9-48-20,23,depth_discrimination_stimuli/002414_2014-06-28_20-24-58_260595134347_rgbf000067-resize_4/002414_2014-06-28_20-24-58_260595134347_rgbf000067-resize_4-target.png,depth_discrimination_stimuli/001450_2014-06-19_17-02-03_260595134347_rgbf000203-resize_4/001450_2014-06-19_17-02-03_260595134347_rgbf000203-resize_4-target.png,250,4.363,4.0106666666667,1,1653,520,248,990,260,499,,,,,,1238030,1392337,46
133786,DepthScenes,v2_duration_discrimination,discrim_jsons/shuffled_g0_rotated.json,http://54.211.221.249/DepthDuration/v2_depth_discrimination_MTurk/v2_DepthDiscrim_HTML.html#3,3,1366,625,1366,768,8-2-2021,9-48-20,24,depth_discrimination_stimuli/002072_2014-06-24_21-48-06_260595134347_rgbf000115-resize_0/002072_2014-06-24_21-48-06_260595134347_rgbf000115-resize_0-target.png,depth_discrimination_stimuli/001012_2014-06-08_23-19-38_260595134347_rgbf000057-resize_0/001012_2014-06-08_23-19-38_260595134347_rgbf000057-resize_0-target.png,250,4.702,1.38325,1,1261,506,249,1002,252,505,,,,,,1238030,1392337,46
133786,DepthScenes,v2_duration_discrimination,discrim_jsons/shuffled_g0_rotated.json,http://54.211.221.249/DepthDuration/v2_depth_discrimination_MTurk/v2_DepthDiscrim_HTML.html#3,3,1366,625,1366,768,8-2-2021,9-48-20,25,depth_discrimination_stimuli/001498_2014-06-19_17-45-14_260595134347_rgbf000129-resize_4/001498_2014-06-19_17-45-14_260595134347_rgbf000129-resize_4-target.png,depth_discrimination_stimuli/003125_2014-05-12_10-39-22_094959634447_rgbf000100-resize_0/003125_2014-05-12_10-39-22_094959634447_rgbf000100-resize_0-target.png,1000,1.4075,4.8655,0,1824,517,989,1010,998,491,,,,,,1238030,1392337,46
133786,DepthScenes,v2_duration_discrimination,discrim_jsons/shuffled_g0_rotated.json,http://54.211.221.249/DepthDuration/v2_depth_discrimination_MTurk/v2_DepthDiscrim_HTML.html#3,3,1366,625,1366,768,8-2-2021,9-48-20,26,depth_discrimination_stimuli/002949_2014-06-26_15-57-42_094959634447_rgbf000079-resize_1/002949_2014-06-26_15-57-42_094959634447_rgbf000079-resize_1-target.png,depth_discrimination_stimuli/003495_2014-05-21_16-01-51_094959634447_rgbf000100-resize_3/003495_2014-05-21_16-01-51_094959634447_rgbf000100-resize_3-target.png,250,1.8915,1.6255,1,1402,516,248,1000,249,490,,,,,,1238030,1392337,46
133786,DepthScenes,v2_duration_discrimination,discrim_jsons/shuffled_g0_rotated.json,http://54.211.221.249/DepthDuration/v2_depth_discrimination_MTurk/v2_DepthDiscrim_HTML.html#3,3,1366,625,1366,768,8-2-2021,9-48-20,27,depth_discrimination_stimuli/001136_2014-06-17_15-19-41_260595134347_rgbf000076-resize_3/001136_2014-06-17_15-19-41_260595134347_rgbf000076-resize_3-target.png,depth_discrimination_stimuli/002549_2014-06-24_13-41-39_094959634447_rgbf000022-resize_3/002549_2014-06-24_13-41-39_094959634447_rgbf000022-resize_3-target.png,1000,1.8655,1.476,1,2176,507,1009,1001,998,490,,,,,,1238030,1392337,46
133786,DepthScenes,v2_duration_discrimination,discrim_jsons/shuffled_g0_rotated.json,http://54.211.221.249/DepthDuration/v2_depth_discrimination_MTurk/v2_DepthDiscrim_HTML.html#3,3,1366,625,1366,768,8-2-2021,9-48-20,28,depth_discrimination_stimuli/002509_2014-06-24_13-19-22_094959634447_rgbf000077-resize_0/002509_2014-06-24_13-19-22_094959634447_rgbf000077-resize_0-target.png,depth_discrimination_stimuli/000549_2014-06-08_22-10-24_260595134347_rgbf000247-resize_3/000549_2014-06-08_22-10-24_260595134347_rgbf000247-resize_3-target.png,1000,1.3065,1.841,1,1982,512,989,1010,999,490,,,,,,1238030,1392337,46
133786,DepthScenes,v2_duration_discrimination,discrim_jsons/shuffled_g0_rotated.json,http://54.211.221.249/DepthDuration/v2_depth_discrimination_MTurk/v2_DepthDiscrim_HTML.html#3,3,1366,625,1366,768,8-2-2021,9-48-20,29,depth_discrimination_stimuli/000542_2014-06-08_18-27-08_260595134347_rgbf000118-resize_1/000542_2014-06-08_18-27-08_260595134347_rgbf000118-resize_1-target.png,depth_discrimination_stimuli/003292_2014-05-14_21-53-49_094959634447_rgbf000100-resize_2/003292_2014-05-14_21-53-49_094959634447_rgbf000100-resize_2-target.png,1000,3,3.4815,1,1837,507,999,1000,998,501,,,,,,1238030,1392337,46
133786,DepthScenes,v2_duration_discrimination,discrim_jsons/shuffled_g0_rotated.json,http://54.211.221.249/DepthDuration/v2_depth_discrimination_MTurk/v2_DepthDiscrim_HTML.html#3,3,1366,625,1366,768,8-2-2021,9-48-20,30,depth_discrimination_stimuli/001148_2014-06-17_15-26-42_260595134347_rgbf000129-resize_0/001148_2014-06-17_15-26-42_260595134347_rgbf000129-resize_0-target.png,depth_discrimination_stimuli/000556_2014-06-09_22-42-56_260595134347_rgbf000214-resize_1/000556_2014-06-09_22-42-56_260595134347_rgbf000214-resize_1-target.png,1000,4.368,4.8415,0,1885,512,999,990,998,500,,,,,,1238030,1392337,46
133786,DepthScenes,v2_duration_discrimination,discrim_jsons/shuffled_g0_rotated.json,http://54.211.221.249/DepthDuration/v2_depth_discrimination_MTurk/v2_DepthDiscrim_HTML.html#3,3,1366,625,1366,768,8-2-2021,9-48-20,31,depth_discrimination_stimuli/001181_2014-06-17_15-50-57_260595134347_rgbf000106-resize_4/001181_2014-06-17_15-50-57_260595134347_rgbf000106-resize_4-target.png,depth_discrimination_stimuli/001158_2014-06-17_15-32-16_260595134347_rgbf000138-resize_2/001158_2014-06-17_15-32-16_260595134347_rgbf000138-resize_2-target.png,250,4.149,4.5315,0,1702,504,249,1009,239,510,,,,,,1238030,1392337,46
133786,DepthScenes,v2_duration_discrimination,discrim_jsons/shuffled_g0_rotated.json,http://54.211.221.249/DepthDuration/v2_depth_discrimination_MTurk/v2_DepthDiscrim_HTML.html#3,3,1366,625,1366,768,8-2-2021,9-48-20,32,depth_discrimination_stimuli/001235_2014-06-17_16-37-36_260595134347_rgbf000084-resize_4/001235_2014-06-17_16-37-36_260595134347_rgbf000084-resize_4-target.png,depth_discrimination_stimuli/001197_2014-06-17_16-01-50_260595134347_rgbf000103-resize_4/001197_2014-06-17_16-01-50_260595134347_rgbf000103-resize_4-target.png,250,3.6605,3.4025,1,1341,517,244,1005,234,515,,,,,,1238030,1392337,46
133786,DepthScenes,v2_duration_discrimination,discrim_jsons/shuffled_g0_rotated.json,http://54.211.221.249/DepthDuration/v2_depth_discrimination_MTurk/v2_DepthDiscrim_HTML.html#3,3,1366,625,1366,768,8-2-2021,9-48-20,33,depth_discrimination_stimuli/001032_2014-06-08_13-23-17_260595134347_rgbf000021-resize_3/001032_2014-06-08_13-23-17_260595134347_rgbf000021-resize_3-target.png,depth_discrimination_stimuli/002323_2014-06-28_20-01-54_260595134347_rgbf000051-resize_4/002323_2014-06-28_20-01-54_260595134347_rgbf000051-resize_4-target.png,250,3.2725,3.731,0,1232,517,240,994,254,510,,,,,,1238030,1392337,46
133786,DepthScenes,v2_duration_discrimination,discrim_jsons/shuffled_g0_rotated.json,http://54.211.221.249/DepthDuration/v2_depth_discrimination_MTurk/v2_DepthDiscrim_HTML.html#3,3,1366,625,1366,768,8-2-2021,9-48-20,34,depth_discrimination_stimuli/003395_2014-05-20_15-39-18_094959634447_rgbf000101-resize_0/003395_2014-05-20_15-39-18_094959634447_rgbf000101-resize_0-target.png,depth_discrimination_stimuli/001540_2014-06-20_17-01-05_260595134347_rgbf000086-resize_2/001540_2014-06-20_17-01-05_260595134347_rgbf000086-resize_2-target.png,1000,4.835,1.459,1,1813,522,989,1000,998,500,,,,,,1238030,1392337,46
133786,DepthScenes,v2_duration_discrimination,discrim_jsons/shuffled_g0_rotated.json,http://54.211.221.249/DepthDuration/v2_depth_discrimination_MTurk/v2_DepthDiscrim_HTML.html#3,3,1366,625,1366,768,8-2-2021,9-48-20,35,depth_discrimination_stimuli/001170_2014-06-17_15-43-44_260595134347_rgbf000096-resize_6/001170_2014-06-17_15-43-44_260595134347_rgbf000096-resize_6-target.png,depth_discrimination_stimuli/002364_2014-06-28_20-11-05_260595134347_rgbf000042-resize_0/002364_2014-06-28_20-11-05_260595134347_rgbf000042-resize_0-target.png,250,1.191,4.682,0,1171,506,259,1000,250,499,,,,,,1238030,1392337,46
133786,DepthScenes,v2_duration_discrimination,discrim_jsons/shuffled_g0_rotated.json,http://54.211.221.249/DepthDuration/v2_depth_discrimination_MTurk/v2_DepthDiscrim_HTML.html#3,3,1366,625,1366,768,8-2-2021,9-48-20,36,depth_discrimination_stimuli/000137_2014-05-20_17-04-49_260595134347_rgbf000120-resize_1/000137_2014-05-20_17-04-49_260595134347_rgbf000120-resize_1-target.png,depth_discrimination_stimuli/003423_2014-05-21_10-23-26_094959634447_rgbf002665-resize_2/003423_2014-05-21_10-23-26_094959634447_rgbf002665-resize_2-target.png,250,3.786,3.2575,0,1254,508,249,1000,249,500,,,,,,1238030,1392337,46
133786,DepthScenes,v2_duration_discrimination,discrim_jsons/shuffled_g0_rotated.json,http://54.211.221.249/DepthDuration/v2_depth_discrimination_MTurk/v2_DepthDiscrim_HTML.html#3,3,1366,625,1366,768,8-2-2021,9-48-20,37,depth_discrimination_stimuli/002678_2014-06-13_16-15-32_094959634447_rgbf000151-resize_6/002678_2014-06-13_16-15-32_094959634447_rgbf000151-resize_6-target.png,depth_discrimination_stimuli/000927_2014-06-09_16-32-30_260595134347_rgbf000123-resize_3/000927_2014-06-09_16-32-30_260595134347_rgbf000123-resize_3-target.png,250,2.183,2.6785,1,1425,515,248,1000,239,500,,,,,,1238030,1392337,46
133786,DepthScenes,v2_duration_discrimination,discrim_jsons/shuffled_g0_rotated.json,http://54.211.221.249/DepthDuration/v2_depth_discrimination_MTurk/v2_DepthDiscrim_HTML.html#3,3,1366,625,1366,768,8-2-2021,9-48-20,38,depth_discrimination_stimuli/002748_2014-06-22_19-07-22_094959634447_rgbf000078-resize_1/002748_2014-06-22_19-07-22_094959634447_rgbf000078-resize_1-target.png,depth_discrimination_stimuli/001808_2014-06-26_20-50-58_260595134347_rgbf000029-resize_1/001808_2014-06-26_20-50-58_260595134347_rgbf000029-resize_1-target.png,250,4.6705,4.249,1,1550,505,248,1012,237,500,,,,,,1238030,1392337,46
133786,DepthScenes,v2_duration_discrimination,discrim_jsons/shuffled_g0_rotated.json,http://54.211.221.249/DepthDuration/v2_depth_discrimination_MTurk/v2_DepthDiscrim_HTML.html#3,3,1366,625,1366,768,8-2-2021,9-48-20,39,depth_discrimination_stimuli/001133_2014-06-17_14-49-16_260595134347_rgbf000100-resize_0/001133_2014-06-17_14-49-16_260595134347_rgbf000100-resize_0-target.png,depth_discrimination_stimuli/002467_2014-06-28_20-38-07_260595134347_rgbf000026-resize_2/002467_2014-06-28_20-38-07_260595134347_rgbf000026-resize_2-target.png,250,4.2115,4.742,0,1606,507,244,1003,251,500,,,,,,1238030,1392337,46
133786,DepthScenes,v2_duration_discrimination,discrim_jsons/shuffled_g0_rotated.json,http://54.211.221.249/DepthDuration/v2_depth_discrimination_MTurk/v2_DepthDiscrim_HTML.html#3,3,1366,625,1366,768,8-2-2021,9-48-20,40,depth_discrimination_stimuli/003081_2014-06-15_15-19-16_094959634447_rgbf000150-resize_1/003081_2014-06-15_15-19-16_094959634447_rgbf000150-resize_1-target.png,depth_discrimination_stimuli/002660_2014-06-13_15-44-18_094959634447_rgbf001878-resize_2/002660_2014-06-13_15-44-18_094959634447_rgbf001878-resize_2-target.png,1000,3.9125,3.576,1,1879,505,1004,1005,999,488,,,,,,1238030,1392337,46
133786,DepthScenes,v2_duration_discrimination,discrim_jsons/shuffled_g0_rotated.json,http://54.211.221.249/DepthDuration/v2_depth_discrimination_MTurk/v2_DepthDiscrim_HTML.html#3,3,1366,625,1366,768,8-2-2021,9-48-20,40,,,,,,,1879,505,1004,1005,999,488,,,,,,1238030,1392337,46
133786,DepthScenes,v2_duration_discrimination,discrim_jsons/shuffled_g0_rotated.json,http://54.211.221.249/DepthDuration/v2_depth_discrimination_MTurk/v2_DepthDiscrim_HTML.html#3,3,1349,625,1366,768,8-2-2021,9-48-20,42,,,,,,,1879,505,1004,1005,999,488,,3,3,depth_discrimination_stimuli/000720_2014-06-08_18-37-27_260595134347_rgbf000203-resize_4/000720_2014-06-08_18-37-27_260595134347_rgbf000203-resize-original.jpg,15719,1238030,1392337,46
133786,DepthScenes,v2_duration_discrimination,discrim_jsons/shuffled_g0_rotated.json,http://54.211.221.249/DepthDuration/v2_depth_discrimination_MTurk/v2_DepthDiscrim_HTML.html#3,3,1349,625,1366,768,8-2-2021,9-48-20,43,,,,,,,1879,505,1004,1005,999,488,,3,2,depth_discrimination_stimuli/003228_2014-05-14_13-42-35_094959634447_rgbf000101-resize_1/003228_2014-05-14_13-42-35_094959634447_rgbf000101-resize-original.jpg,9626,1238030,1392337,46
133786,DepthScenes,v2_duration_discrimination,discrim_jsons/shuffled_g0_rotated.json,http://54.211.221.249/DepthDuration/v2_depth_discrimination_MTurk/v2_DepthDiscrim_HTML.html#3,3,1349,625,1366,768,8-2-2021,9-48-20,44,,,,,,,1879,505,1004,1005,999,488,,2,3,depth_discrimination_stimuli/000009_2014-05-26_14-32-05_260595134347_rgbf000034-resize_3/000009_2014-05-26_14-32-05_260595134347_rgbf000034-resize-original.jpg,10880,1238030,1392337,46
133786,DepthScenes,v2_duration_discrimination,discrim_jsons/shuffled_g0_rotated.json,http://54.211.221.249/DepthDuration/v2_depth_discrimination_MTurk/v2_DepthDiscrim_HTML.html#3,3,1349,625,1366,768,8-2-2021,9-48-20,45,,,,,,,1879,505,1004,1005,999,488,,4,4,depth_discrimination_stimuli/002545_2014-06-24_13-38-53_094959634447_rgbf000080-resize_4/002545_2014-06-24_13-38-53_094959634447_rgbf000080-resize-original.jpg,9826,1238030,1392337,46
133786,DepthScenes,v2_duration_discrimination,discrim_jsons/shuffled_g0_rotated.json,http://54.211.221.249/DepthDuration/v2_depth_discrimination_MTurk/v2_DepthDiscrim_HTML.html#3,3,1349,625,1366,768,8-2-2021,9-48-20,46,,,,,,,1879,505,1004,1005,999,488,,4,3,depth_discrimination_stimuli/000555_2014-06-09_22-42-23_260595134347_rgbf000037-resize_4/000555_2014-06-09_22-42-23_260595134347_rgbf000037-resize-original.jpg,8501,1238030,1392337,46
133786,DepthScenes,v2_duration_discrimination,discrim_jsons/shuffled_g0_rotated.json,http://54.211.221.249/DepthDuration/v2_depth_discrimination_MTurk/v2_DepthDiscrim_HTML.html#3,3,1349,625,1366,768,8-2-2021,9-48-20,47,,,,,,,1879,505,1004,1005,999,488,,4,2,depth_discrimination_stimuli/001447_2014-06-19_17-00-32_260595134347_rgbf000082-resize_5/001447_2014-06-19_17-00-32_260595134347_rgbf000082-resize-original.jpg,6945,1238030,1392337,46
133786,DepthScenes,v2_duration_discrimination,discrim_jsons/shuffled_g0_rotated.json,http://54.211.221.249/DepthDuration/v2_depth_discrimination_MTurk/v2_DepthDiscrim_HTML.html#3,3,1349,625,1366,768,8-2-2021,9-48-20,48,,,,,,,1879,505,1004,1005,999,488,,5,3,scene_property_catch_stimuli/sun_aatxlublfjchvvzu.jpg,6251,1238030,1392337,46
133786,DepthScenes,v2_duration_discrimination,discrim_jsons/shuffled_g0_rotated.json,http://54.211.221.249/DepthDuration/v2_depth_discrimination_MTurk/v2_DepthDiscrim_HTML.html#3,3,1349,625,1366,768,8-2-2021,9-48-20,49,,,,,,,1879,505,1004,1005,999,488,,3,2,depth_discrimination_stimuli/001214_2014-06-17_16-13-55_260595134347_rgbf000111-resize_0/001214_2014-06-17_16-13-55_260595134347_rgbf000111-resize-original.jpg,6167,1238030,1392337,46
133786,DepthScenes,v2_duration_discrimination,discrim_jsons/shuffled_g0_rotated.json,http://54.211.221.249/DepthDuration/v2_depth_discrimination_MTurk/v2_DepthDiscrim_HTML.html#3,3,1349,625,1366,768,8-2-2021,9-48-20,50,,,,,,,1879,505,1004,1005,999,488,,2,2,depth_discrimination_stimuli/000709_2014-06-08_13-51-55_260595134347_rgbf000068-resize_3/000709_2014-06-08_13-51-55_260595134347_rgbf000068-resize-original.jpg,5319,1238030,1392337,46
133786,DepthScenes,v2_duration_discrimination,discrim_jsons/shuffled_g0_rotated.json,http://54.211.221.249/DepthDuration/v2_depth_discrimination_MTurk/v2_DepthDiscrim_HTML.html#3,3,1349,625,1366,768,8-2-2021,9-48-20,51,,,,,,,1879,505,1004,1005,999,488,,3,1,depth_discrimination_stimuli/000677_2014-06-08_23-10-32_260595134347_rgbf000158-resize_6/000677_2014-06-08_23-10-32_260595134347_rgbf000158-resize-original.jpg,6277,1238030,1392337,46
133786,DepthScenes,v2_duration_discrimination,discrim_jsons/shuffled_g0_rotated.json,http://54.211.221.249/DepthDuration/v2_depth_discrimination_MTurk/v2_DepthDiscrim_HTML.html#3,3,1349,625,1366,768,8-2-2021,9-48-20,52,,,,,,,1879,505,1004,1005,999,488,,1,2,depth_discrimination_stimuli/002131_2014-06-25_21-12-01_260595134347_rgbf000083-resize_0/002131_2014-06-25_21-12-01_260595134347_rgbf000083-resize-original.jpg,8072,1238030,1392337,46
133786,DepthScenes,v2_duration_discrimination,discrim_jsons/shuffled_g0_rotated.json,http://54.211.221.249/DepthDuration/v2_depth_discrimination_MTurk/v2_DepthDiscrim_HTML.html#3,3,1349,625,1366,768,8-2-2021,9-48-20,53,,,,,,,1879,505,1004,1005,999,488,,3,4,depth_discrimination_stimuli/002784_2014-06-22_19-26-30_094959634447_rgbf000083-resize_3/002784_2014-06-22_19-26-30_094959634447_rgbf000083-resize-original.jpg,4952,1238030,1392337,46
133786,DepthScenes,v2_duration_discrimination,discrim_jsons/shuffled_g0_rotated.json,http://54.211.221.249/DepthDuration/v2_depth_discrimination_MTurk/v2_DepthDiscrim_HTML.html#3,3,1349,625,1366,768,8-2-2021,9-48-20,54,,,,,,,1879,505,1004,1005,999,488,,2,4,depth_discrimination_stimuli/002549_2014-06-24_13-41-39_094959634447_rgbf000022-resize_3/002549_2014-06-24_13-41-39_094959634447_rgbf000022-resize-original.jpg,6219,1238030,1392337,46
133786,DepthScenes,v2_duration_discrimination,discrim_jsons/shuffled_g0_rotated.json,http://54.211.221.249/DepthDuration/v2_depth_discrimination_MTurk/v2_DepthDiscrim_HTML.html#3,3,1349,625,1366,768,8-2-2021,9-48-20,55,,,,,,,1879,505,1004,1005,999,488,,3,3,depth_discrimination_stimuli/003081_2014-06-15_15-19-16_094959634447_rgbf000150-resize_1/003081_2014-06-15_15-19-16_094959634447_rgbf000150-resize-original.jpg,7271,1238030,1392337,46
133786,DepthScenes,v2_duration_discrimination,discrim_jsons/shuffled_g0_rotated.json,http://54.211.221.249/DepthDuration/v2_depth_discrimination_MTurk/v2_DepthDiscrim_HTML.html#3,3,1349,625,1366,768,8-2-2021,9-48-20,56,,,,,,,1879,505,1004,1005,999,488,,3,2,depth_discrimination_stimuli/000758_2014-06-08_22-05-08_260595134347_rgbf000085-resize_0/000758_2014-06-08_22-05-08_260595134347_rgbf000085-resize-original.jpg,7363,1238030,1392337,46
133786,DepthScenes,v2_duration_discrimination,discrim_jsons/shuffled_g0_rotated.json,http://54.211.221.249/DepthDuration/v2_depth_discrimination_MTurk/v2_DepthDiscrim_HTML.html#3,3,1349,625,1366,768,8-2-2021,9-48-20,57,,,,,,,1879,505,1004,1005,999,488,,3,4,depth_discrimination_stimuli/002805_2014-06-22_19-54-03_094959634447_rgbf000079-resize_1/002805_2014-06-22_19-54-03_094959634447_rgbf000079-resize-original.jpg,7008,1238030,1392337,46
133786,DepthScenes,v2_duration_discrimination,discrim_jsons/shuffled_g0_rotated.json,http://54.211.221.249/DepthDuration/v2_depth_discrimination_MTurk/v2_DepthDiscrim_HTML.html#3,3,1349,625,1366,768,8-2-2021,9-48-20,58,,,,,,,1879,505,1004,1005,999,488,,2,1,depth_discrimination_stimuli/002988_2014-06-15_12-24-20_094959634447_rgbf000150-resize_1/002988_2014-06-15_12-24-20_094959634447_rgbf000150-resize-original.jpg,8828,1238030,1392337,46
133786,DepthScenes,v2_duration_discrimination,discrim_jsons/shuffled_g0_rotated.json,http://54.211.221.249/DepthDuration/v2_depth_discrimination_MTurk/v2_DepthDiscrim_HTML.html#3,3,1349,625,1366,768,8-2-2021,9-48-20,59,,,,,,,1879,505,1004,1005,999,488,,2,5,depth_discrimination_stimuli/002725_2014-06-22_11-47-51_094959634447_rgbf000070-resize_1/002725_2014-06-22_11-47-51_094959634447_rgbf000070-resize-original.jpg,5554,1238030,1392337,46
133786,DepthScenes,v2_duration_discrimination,discrim_jsons/shuffled_g0_rotated.json,http://54.211.221.249/DepthDuration/v2_depth_discrimination_MTurk/v2_DepthDiscrim_HTML.html#3,3,1349,625,1366,768,8-2-2021,9-48-20,60,,,,,,,1879,505,1004,1005,999,488,,3,1,depth_discrimination_stimuli/001066_2014-06-08_22-03-20_260595134347_rgbf000066-resize_4/001066_2014-06-08_22-03-20_260595134347_rgbf000066-resize-original.jpg,6810,1238030,1392337,46
133786,DepthScenes,v2_duration_discrimination,discrim_jsons/shuffled_g0_rotated.json,http://54.211.221.249/DepthDuration/v2_depth_discrimination_MTurk/v2_DepthDiscrim_HTML.html#3,3,1349,625,1366,768,8-2-2021,9-48-20,61,,,,,,,1879,505,1004,1005,999,488,,4,2,depth_discrimination_stimuli/002444_2014-06-28_20-32-08_260595134347_rgbf000027-resize_0/002444_2014-06-28_20-32-08_260595134347_rgbf000027-resize-original.jpg,5115,1238030,1392337,46
133786,DepthScenes,v2_duration_discrimination,discrim_jsons/shuffled_g0_rotated.json,http://54.211.221.249/DepthDuration/v2_depth_discrimination_MTurk/v2_DepthDiscrim_HTML.html#3,3,1349,625,1366,768,8-2-2021,9-48-20,62,,,,,,,1879,505,1004,1005,999,488,,3,4,depth_discrimination_stimuli/001555_2014-06-20_17-12-10_260595134347_rgbf000065-resize_4/001555_2014-06-20_17-12-10_260595134347_rgbf000065-resize-original.jpg,8456,1238030,1392337,46
133786,DepthScenes,v2_duration_discrimination,discrim_jsons/shuffled_g0_rotated.json,http://54.211.221.249/DepthDuration/v2_depth_discrimination_MTurk/v2_DepthDiscrim_HTML.html#3,3,1349,625,1366,768,8-2-2021,9-48-20,63,,,,,,,1879,505,1004,1005,999,488,,4,1,depth_discrimination_stimuli/002989_2014-06-15_12-25-03_094959634447_rgbf000150-resize_3/002989_2014-06-15_12-25-03_094959634447_rgbf000150-resize-original.jpg,6902,1238030,1392337,46
133786,DepthScenes,v2_duration_discrimination,discrim_jsons/shuffled_g0_rotated.json,http://54.211.221.249/DepthDuration/v2_depth_discrimination_MTurk/v2_DepthDiscrim_HTML.html#3,3,1349,625,1366,768,8-2-2021,9-48-20,64,,,,,,,1879,505,1004,1005,999,488,,4,4,depth_discrimination_stimuli/001188_2014-06-17_15-54-10_260595134347_rgbf000090-resize_2/001188_2014-06-17_15-54-10_260595134347_rgbf000090-resize-original.jpg,5063,1238030,1392337,46
133786,DepthScenes,v2_duration_discrimination,discrim_jsons/shuffled_g0_rotated.json,http://54.211.221.249/DepthDuration/v2_depth_discrimination_MTurk/v2_DepthDiscrim_HTML.html#3,3,1349,625,1366,768,8-2-2021,9-48-20,65,,,,,,,1879,505,1004,1005,999,488,,4,1,depth_discrimination_stimuli/002509_2014-06-24_13-19-22_094959634447_rgbf000077-resize_0/002509_2014-06-24_13-19-22_094959634447_rgbf000077-resize-original.jpg,4185,1238030,1392337,46
133786,DepthScenes,v2_duration_discrimination,discrim_jsons/shuffled_g0_rotated.json,http://54.211.221.249/DepthDuration/v2_depth_discrimination_MTurk/v2_DepthDiscrim_HTML.html#3,3,1349,625,1366,768,8-2-2021,9-48-20,66,,,,,,,1879,505,1004,1005,999,488,,3,2,depth_discrimination_stimuli/000506_2014-06-08_23-21-00_260595134347_rgbf000070-resize_7/000506_2014-06-08_23-21-00_260595134347_rgbf000070-resize-original.jpg,4631,1238030,1392337,46
133786,DepthScenes,v2_duration_discrimination,discrim_jsons/shuffled_g0_rotated.json,http://54.211.221.249/DepthDuration/v2_depth_discrimination_MTurk/v2_DepthDiscrim_HTML.html#3,3,1349,625,1366,768,8-2-2021,9-48-20,67,,,,,,,1879,505,1004,1005,999,488,,3,1,depth_discrimination_stimuli/003338_2014-05-20_11-01-23_094959634447_rgbf000051-resize_6/003338_2014-05-20_11-01-23_094959634447_rgbf000051-resize-original.jpg,4376,1238030,1392337,46
133786,DepthScenes,v2_duration_discrimination,discrim_jsons/shuffled_g0_rotated.json,http://54.211.221.249/DepthDuration/v2_depth_discrimination_MTurk/v2_DepthDiscrim_HTML.html#3,3,1349,625,1366,768,8-2-2021,9-48-20,68,,,,,,,1879,505,1004,1005,999,488,,3,4,depth_discrimination_stimuli/001584_2014-06-20_11-07-43_260595134347_rgbf000002-resize_1/001584_2014-06-20_11-07-43_260595134347_rgbf000002-resize-original.jpg,4372,1238030,1392337,46
133786,DepthScenes,v2_duration_discrimination,discrim_jsons/shuffled_g0_rotated.json,http://54.211.221.249/DepthDuration/v2_depth_discrimination_MTurk/v2_DepthDiscrim_HTML.html#3,3,1349,625,1366,768,8-2-2021,9-48-20,69,,,,,,,1879,505,1004,1005,999,488,,4,3,depth_discrimination_stimuli/002464_2014-06-28_20-36-57_260595134347_rgbf000029-resize_0/002464_2014-06-28_20-36-57_260595134347_rgbf000029-resize-original.jpg,5924,1238030,1392337,46
133786,DepthScenes,v2_duration_discrimination,discrim_jsons/shuffled_g0_rotated.json,http://54.211.221.249/DepthDuration/v2_depth_discrimination_MTurk/v2_DepthDiscrim_HTML.html#3,3,1349,625,1366,768,8-2-2021,9-48-20,70,,,,,,,1879,505,1004,1005,999,488,,4,4,depth_discrimination_stimuli/001052_2014-06-08_18-24-54_260595134347_rgbf000130-resize_1/001052_2014-06-08_18-24-54_260595134347_rgbf000130-resize-original.jpg,4993,1238030,1392337,46
133786,DepthScenes,v2_duration_discrimination,discrim_jsons/shuffled_g0_rotated.json,http://54.211.221.249/DepthDuration/v2_depth_discrimination_MTurk/v2_DepthDiscrim_HTML.html#3,3,1349,625,1366,768,8-2-2021,9-48-20,71,,,,,,,1879,505,1004,1005,999,488,,3,1,depth_discrimination_stimuli/002660_2014-06-13_15-44-18_094959634447_rgbf001878-resize_2/002660_2014-06-13_15-44-18_094959634447_rgbf001878-resize-original.jpg,3816,1238030,1392337,46
133786,DepthScenes,v2_duration_discrimination,discrim_jsons/shuffled_g0_rotated.json,http://54.211.221.249/DepthDuration/v2_depth_discrimination_MTurk/v2_DepthDiscrim_HTML.html#3,3,1349,625,1366,768,8-2-2021,9-48-20,72,,,,,,,1879,505,1004,1005,999,488,,1,1,depth_discrimination_stimuli/002763_2014-06-22_19-13-10_094959634447_rgbf000075-resize_4/002763_2014-06-22_19-13-10_094959634447_rgbf000075-resize-original.jpg,4517,1238030,1392337,46
133786,DepthScenes,v2_duration_discrimination,discrim_jsons/shuffled_g0_rotated.json,http://54.211.221.249/DepthDuration/v2_depth_discrimination_MTurk/v2_DepthDiscrim_HTML.html#3,3,1349,625,1366,768,8-2-2021,9-48-20,73,,,,,,,1879,505,1004,1005,999,488,,4,3,depth_discrimination_stimuli/000493_2014-06-09_21-01-18_260595134347_rgbf000196-resize_3/000493_2014-06-09_21-01-18_260595134347_rgbf000196-resize-original.jpg,5732,1238030,1392337,46
133786,DepthScenes,v2_duration_discrimination,discrim_jsons/shuffled_g0_rotated.json,http://54.211.221.249/DepthDuration/v2_depth_discrimination_MTurk/v2_DepthDiscrim_HTML.html#3,3,1349,625,1366,768,8-2-2021,9-48-20,74,,,,,,,1879,505,1004,1005,999,488,,2,2,depth_discrimination_stimuli/002788_2014-06-22_19-36-03_094959634447_rgbf000088-resize_2/002788_2014-06-22_19-36-03_094959634447_rgbf000088-resize-original.jpg,4570,1238030,1392337,46
133786,DepthScenes,v2_duration_discrimination,discrim_jsons/shuffled_g0_rotated.json,http://54.211.221.249/DepthDuration/v2_depth_discrimination_MTurk/v2_DepthDiscrim_HTML.html#3,3,1349,625,1366,768,8-2-2021,9-48-20,75,,,,,,,1879,505,1004,1005,999,488,,4,3,depth_discrimination_stimuli/000830_2014-06-04_19-49-31_260595134347_rgbf000096-resize_2/000830_2014-06-04_19-49-31_260595134347_rgbf000096-resize-original.jpg,5191,1238030,1392337,46
133786,DepthScenes,v2_duration_discrimination,discrim_jsons/shuffled_g0_rotated.json,http://54.211.221.249/DepthDuration/v2_depth_discrimination_MTurk/v2_DepthDiscrim_HTML.html#3,3,1349,625,1366,768,8-2-2021,9-48-20,76,,,,,,,1879,505,1004,1005,999,488,,3,2,depth_discrimination_stimuli/000635_2014-06-08_16-38-42_260595134347_rgbf000106-resize_1/000635_2014-06-08_16-38-42_260595134347_rgbf000106-resize-original.jpg,5457,1238030,1392337,46
133786,DepthScenes,v2_duration_discrimination,discrim_jsons/shuffled_g0_rotated.json,http://54.211.221.249/DepthDuration/v2_depth_discrimination_MTurk/v2_DepthDiscrim_HTML.html#3,3,1349,625,1366,768,8-2-2021,9-48-20,77,,,,,,,1879,505,1004,1005,999,488,,3,3,depth_discrimination_stimuli/003048_2014-06-15_13-49-43_094959634447_rgbf000150-resize_1/003048_2014-06-15_13-49-43_094959634447_rgbf000150-resize-original.jpg,7656,1238030,1392337,46
133786,DepthScenes,v2_duration_discrimination,discrim_jsons/shuffled_g0_rotated.json,http://54.211.221.249/DepthDuration/v2_depth_discrimination_MTurk/v2_DepthDiscrim_HTML.html#3,3,1349,625,1366,768,8-2-2021,9-48-20,78,,,,,,,1879,505,1004,1005,999,488,,3,2,depth_discrimination_stimuli/001650_2014-06-20_12-09-00_260595134347_rgbf000087-resize_3/001650_2014-06-20_12-09-00_260595134347_rgbf000087-resize-original.jpg,6493,1238030,1392337,46
133786,DepthScenes,v2_duration_discrimination,discrim_jsons/shuffled_g0_rotated.json,http://54.211.221.249/DepthDuration/v2_depth_discrimination_MTurk/v2_DepthDiscrim_HTML.html#3,3,1349,625,1366,768,8-2-2021,9-48-20,79,,,,,,,1879,505,1004,1005,999,488,,5,1,depth_discrimination_stimuli/003546_2014-05-22_15-48-53_094959634447_rgbf004816-resize_3/003546_2014-05-22_15-48-53_094959634447_rgbf004816-resize-original.jpg,3477,1238030,1392337,46
133786,DepthScenes,v2_duration_discrimination,discrim_jsons/shuffled_g0_rotated.json,http://54.211.221.249/DepthDuration/v2_depth_discrimination_MTurk/v2_DepthDiscrim_HTML.html#3,3,1349,625,1366,768,8-2-2021,9-48-20,80,,,,,,,1879,505,1004,1005,999,488,,3,2,depth_discrimination_stimuli/003587_2014-05-23_16-48-02_094959634447_rgbf002384-resize_2/003587_2014-05-23_16-48-02_094959634447_rgbf002384-resize-original.jpg,4624,1238030,1392337,46
133786,DepthScenes,v2_duration_discrimination,discrim_jsons/shuffled_g0_rotated.json,http://54.211.221.249/DepthDuration/v2_depth_discrimination_MTurk/v2_DepthDiscrim_HTML.html#3,3,1349,625,1366,768,8-2-2021,9-48-20,81,,,,,,,1879,505,1004,1005,999,488,,3,2,depth_discrimination_stimuli/002344_2014-06-28_20-06-29_260595134347_rgbf000030-resize_1/002344_2014-06-28_20-06-29_260595134347_rgbf000030-resize-original.jpg,9610,1238030,1392337,46
133786,DepthScenes,v2_duration_discrimination,discrim_jsons/shuffled_g0_rotated.json,http://54.211.221.249/DepthDuration/v2_depth_discrimination_MTurk/v2_DepthDiscrim_HTML.html#3,3,1349,625,1366,768,8-2-2021,9-48-20,82,,,,,,,1879,505,1004,1005,999,488,,5,2,depth_discrimination_stimuli/001133_2014-06-17_14-49-16_260595134347_rgbf000100-resize_0/001133_2014-06-17_14-49-16_260595134347_rgbf000100-resize-original.jpg,4593,1238030,1392337,46
133786,DepthScenes,v2_duration_discrimination,discrim_jsons/shuffled_g0_rotated.json,http://54.211.221.249/DepthDuration/v2_depth_discrimination_MTurk/v2_DepthDiscrim_HTML.html#3,3,1349,625,1366,768,8-2-2021,9-48-20,83,,,,,,,1879,505,1004,1005,999,488,,3,2,depth_discrimination_stimuli/000869_2014-06-09_20-50-18_260595134347_rgbf000060-resize_3/000869_2014-06-09_20-50-18_260595134347_rgbf000060-resize-original.jpg,9417,1238030,1392337,46
133786,DepthScenes,v2_duration_discrimination,discrim_jsons/shuffled_g0_rotated.json,http://54.211.221.249/DepthDuration/v2_depth_discrimination_MTurk/v2_DepthDiscrim_HTML.html#3,3,1349,625,1366,768,8-2-2021,9-48-20,84,,,,,,,1879,505,1004,1005,999,488,,3,2,depth_discrimination_stimuli/001055_2014-06-08_18-45-35_260595134347_rgbf000111-resize_4/001055_2014-06-08_18-45-35_260595134347_rgbf000111-resize-original.jpg,3863,1238030,1392337,46
133786,DepthScenes,v2_duration_discrimination,discrim_jsons/shuffled_g0_rotated.json,http://54.211.221.249/DepthDuration/v2_depth_discrimination_MTurk/v2_DepthDiscrim_HTML.html#3,3,1349,625,1366,768,8-2-2021,9-48-20,85,,,,,,,1879,505,1004,1005,999,488,,2,1,depth_discrimination_stimuli/001289_2014-06-16_16-25-52_260595134347_rgbf000067-resize_1/001289_2014-06-16_16-25-52_260595134347_rgbf000067-resize-original.jpg,4176,1238030,1392337,46
133786,DepthScenes,v2_duration_discrimination,discrim_jsons/shuffled_g0_rotated.json,http://54.211.221.249/DepthDuration/v2_depth_discrimination_MTurk/v2_DepthDiscrim_HTML.html#3,3,1349,625,1366,768,8-2-2021,9-48-20,86,,,,,,,1879,505,1004,1005,999,488,,3,2,depth_discrimination_stimuli/000800_2014-06-08_22-42-09_260595134347_rgbf000095-resize_3/000800_2014-06-08_22-42-09_260595134347_rgbf000095-resize-original.jpg,4163,1238030,1392337,46
133786,DepthScenes,v2_duration_discrimination,discrim_jsons/shuffled_g0_rotated.json,http://54.211.221.249/DepthDuration/v2_depth_discrimination_MTurk/v2_DepthDiscrim_HTML.html#3,3,1349,625,1366,768,8-2-2021,9-48-20,87,,,,,,,1879,505,1004,1005,999,488,,4,1,depth_discrimination_stimuli/001011_2014-06-08_23-18-54_260595134347_rgbf000044-resize_4/001011_2014-06-08_23-18-54_260595134347_rgbf000044-resize-original.jpg,3815,1238030,1392337,46
133786,DepthScenes,v2_duration_discrimination,discrim_jsons/shuffled_g0_rotated.json,http://54.211.221.249/DepthDuration/v2_depth_discrimination_MTurk/v2_DepthDiscrim_HTML.html#3,3,1349,625,1366,768,8-2-2021,9-48-20,88,,,,,,,1879,505,1004,1005,999,488,,4,2,depth_discrimination_stimuli/002700_2014-06-22_11-27-02_094959634447_rgbf000124-resize_3/002700_2014-06-22_11-27-02_094959634447_rgbf000124-resize-original.jpg,6231,1238030,1392337,46
133786,DepthScenes,v2_duration_discrimination,discrim_jsons/shuffled_g0_rotated.json,http://54.211.221.249/DepthDuration/v2_depth_discrimination_MTurk/v2_DepthDiscrim_HTML.html#3,3,1349,625,1366,768,8-2-2021,9-48-20,89,,,,,,,1879,505,1004,1005,999,488,,4,3,depth_discrimination_stimuli/000486_2014-06-09_20-47-20_260595134347_rgbf000143-resize_2/000486_2014-06-09_20-47-20_260595134347_rgbf000143-resize-original.jpg,12819,1238030,1392337,46
133786,DepthScenes,v2_duration_discrimination,discrim_jsons/shuffled_g0_rotated.json,http://54.211.221.249/DepthDuration/v2_depth_discrimination_MTurk/v2_DepthDiscrim_HTML.html#3,3,1349,625,1366,768,8-2-2021,9-48-20,90,,,,,,,1879,505,1004,1005,999,488,,5,5,depth_discrimination_stimuli/002600_2014-06-24_14-27-04_094959634447_rgbf000074-resize_2/002600_2014-06-24_14-27-04_094959634447_rgbf000074-resize-original.jpg,7193,1238030,1392337,46
133786,DepthScenes,v2_duration_discrimination,discrim_jsons/shuffled_g0_rotated.json,http://54.211.221.249/DepthDuration/v2_depth_discrimination_MTurk/v2_DepthDiscrim_HTML.html#3,3,1349,625,1366,768,8-2-2021,9-48-20,91,,,,,,,1879,505,1004,1005,999,488,,3,2,depth_discrimination_stimuli/001806_2014-06-26_20-50-20_260595134347_rgbf000091-resize_1/001806_2014-06-26_20-50-20_260595134347_rgbf000091-resize-original.jpg,8285,1238030,1392337,46
133786,DepthScenes,v2_duration_discrimination,discrim_jsons/shuffled_g0_rotated.json,http://54.211.221.249/DepthDuration/v2_depth_discrimination_MTurk/v2_DepthDiscrim_HTML.html#3,3,1349,625,1366,768,8-2-2021,9-48-20,92,,,,,,,1879,505,1004,1005,999,488,,4,2,depth_discrimination_stimuli/003423_2014-05-21_10-23-26_094959634447_rgbf002665-resize_2/003423_2014-05-21_10-23-26_094959634447_rgbf002665-resize-original.jpg,5170,1238030,1392337,46
133786,DepthScenes,v2_duration_discrimination,discrim_jsons/shuffled_g0_rotated.json,http://54.211.221.249/DepthDuration/v2_depth_discrimination_MTurk/v2_DepthDiscrim_HTML.html#3,3,1349,625,1366,768,8-2-2021,9-48-20,93,,,,,,,1879,505,1004,1005,999,488,,3,4,depth_discrimination_stimuli/000753_2014-06-08_21-57-44_260595134347_rgbf000123-resize_3/000753_2014-06-08_21-57-44_260595134347_rgbf000123-resize-original.jpg,5992,1238030,1392337,46
133786,DepthScenes,v2_duration_discrimination,discrim_jsons/shuffled_g0_rotated.json,http://54.211.221.249/DepthDuration/v2_depth_discrimination_MTurk/v2_DepthDiscrim_HTML.html#3,3,1349,625,1366,768,8-2-2021,9-48-20,94,,,,,,,1879,505,1004,1005,999,488,,5,2,depth_discrimination_stimuli/000736_2014-06-08_18-24-15_260595134347_rgbf000206-resize_3/000736_2014-06-08_18-24-15_260595134347_rgbf000206-resize-original.jpg,4376,1238030,1392337,46
133786,DepthScenes,v2_duration_discrimination,discrim_jsons/shuffled_g0_rotated.json,http://54.211.221.249/DepthDuration/v2_depth_discrimination_MTurk/v2_DepthDiscrim_HTML.html#3,3,1349,625,1366,768,8-2-2021,9-48-20,95,,,,,,,1879,505,1004,1005,999,488,,2,4,depth_discrimination_stimuli/000810_2014-06-08_17-20-01_260595134347_rgbf000105-resize_0/000810_2014-06-08_17-20-01_260595134347_rgbf000105-resize-original.jpg,6103,1238030,1392337,46
133786,DepthScenes,v2_duration_discrimination,discrim_jsons/shuffled_g0_rotated.json,http://54.211.221.249/DepthDuration/v2_depth_discrimination_MTurk/v2_DepthDiscrim_HTML.html#3,3,1349,625,1366,768,8-2-2021,9-48-20,96,,,,,,,1879,505,1004,1005,999,488,,3,2,depth_discrimination_stimuli/000414_2014-06-04_19-49-13_260595134347_rgbf000044-resize_0/000414_2014-06-04_19-49-13_260595134347_rgbf000044-resize-original.jpg,3655,1238030,1392337,46
133786,DepthScenes,v2_duration_discrimination,discrim_jsons/shuffled_g0_rotated.json,http://54.211.221.249/DepthDuration/v2_depth_discrimination_MTurk/v2_DepthDiscrim_HTML.html#3,3,1349,625,1366,768,8-2-2021,9-48-20,97,,,,,,,1879,505,1004,1005,999,488,,4,1,depth_discrimination_stimuli/000773_2014-06-08_22-24-54_260595134347_rgbf000093-resize_1/000773_2014-06-08_22-24-54_260595134347_rgbf000093-resize-original.jpg,4984,1238030,1392337,46
133786,DepthScenes,v2_duration_discrimination,discrim_jsons/shuffled_g0_rotated.json,http://54.211.221.249/DepthDuration/v2_depth_discrimination_MTurk/v2_DepthDiscrim_HTML.html#3,3,1349,625,1366,768,8-2-2021,9-48-20,98,,,,,,,1879,505,1004,1005,999,488,,5,2,depth_discrimination_stimuli/002678_2014-06-13_16-15-32_094959634447_rgbf000151-resize_6/002678_2014-06-13_16-15-32_094959634447_rgbf000151-resize-original.jpg,3694,1238030,1392337,46
133786,DepthScenes,v2_duration_discrimination,discrim_jsons/shuffled_g0_rotated.json,http://54.211.221.249/DepthDuration/v2_depth_discrimination_MTurk/v2_DepthDiscrim_HTML.html#3,3,1349,625,1366,768,8-2-2021,9-48-20,99,,,,,,,1879,505,1004,1005,999,488,,2,1,depth_discrimination_stimuli/000866_2014-06-09_20-45-42_260595134347_rgbf000139-resize_1/000866_2014-06-09_20-45-42_260595134347_rgbf000139-resize-original.jpg,5994,1238030,1392337,46
133786,DepthScenes,v2_duration_discrimination,discrim_jsons/shuffled_g0_rotated.json,http://54.211.221.249/DepthDuration/v2_depth_discrimination_MTurk/v2_DepthDiscrim_HTML.html#3,3,1349,625,1366,768,8-2-2021,9-48-20,100,,,,,,,1879,505,1004,1005,999,488,,2,2,depth_discrimination_stimuli/002139_2014-06-25_21-19-37_260595134347_rgbf000124-resize_2/002139_2014-06-25_21-19-37_260595134347_rgbf000124-resize-original.jpg,5129,1238030,1392337,46
133786,DepthScenes,v2_duration_discrimination,discrim_jsons/shuffled_g0_rotated.json,http://54.211.221.249/DepthDuration/v2_depth_discrimination_MTurk/v2_DepthDiscrim_HTML.html#3,3,1349,625,1366,768,8-2-2021,9-48-20,101,,,,,,,1879,505,1004,1005,999,488,,3,2,depth_discrimination_stimuli/001175_2014-06-17_15-45-55_260595134347_rgbf000129-resize_4/001175_2014-06-17_15-45-55_260595134347_rgbf000129-resize-original.jpg,4485,1238030,1392337,46
133786,DepthScenes,v2_duration_discrimination,discrim_jsons/shuffled_g0_rotated.json,http://54.211.221.249/DepthDuration/v2_depth_discrimination_MTurk/v2_DepthDiscrim_HTML.html#3,3,1349,625,1366,768,8-2-2021,9-48-20,102,,,,,,,1879,505,1004,1005,999,488,,4,3,depth_discrimination_stimuli/001181_2014-06-17_15-50-57_260595134347_rgbf000106-resize_4/001181_2014-06-17_15-50-57_260595134347_rgbf000106-resize-original.jpg,6388,1238030,1392337,46
133786,DepthScenes,v2_duration_discrimination,discrim_jsons/shuffled_g0_rotated.json,http://54.211.221.249/DepthDuration/v2_depth_discrimination_MTurk/v2_DepthDiscrim_HTML.html#3,3,1349,625,1366,768,8-2-2021,9-48-20,103,,,,,,,1879,505,1004,1005,999,488,,4,1,depth_discrimination_stimuli/003490_2014-05-21_15-50-11_094959634447_rgbf000101-resize_3/003490_2014-05-21_15-50-11_094959634447_rgbf000101-resize-original.jpg,3361,1238030,1392337,46
133786,DepthScenes,v2_duration_discrimination,discrim_jsons/shuffled_g0_rotated.json,http://54.211.221.249/DepthDuration/v2_depth_discrimination_MTurk/v2_DepthDiscrim_HTML.html#3,3,1349,625,1366,768,8-2-2021,9-48-20,104,,,,,,,1879,505,1004,1005,999,488,,3,2,depth_discrimination_stimuli/001029_2014-06-08_13-17-57_260595134347_rgbf000065-resize_1/001029_2014-06-08_13-17-57_260595134347_rgbf000065-resize-original.jpg,3808,1238030,1392337,46
133786,DepthScenes,v2_duration_discrimination,discrim_jsons/shuffled_g0_rotated.json,http://54.211.221.249/DepthDuration/v2_depth_discrimination_MTurk/v2_DepthDiscrim_HTML.html#3,3,1349,625,1366,768,8-2-2021,9-48-20,105,,,,,,,1879,505,1004,1005,999,488,,4,1,depth_discrimination_stimuli/002964_2014-06-08_17-46-11_094959634447_rgbf000091-resize_4/002964_2014-06-08_17-46-11_094959634447_rgbf000091-resize-original.jpg,5193,1238030,1392337,46
133786,DepthScenes,v2_duration_discrimination,discrim_jsons/shuffled_g0_rotated.json,http://54.211.221.249/DepthDuration/v2_depth_discrimination_MTurk/v2_DepthDiscrim_HTML.html#3,3,1349,625,1366,768,8-2-2021,9-48-20,106,,,,,,,1879,505,1004,1005,999,488,,3,4,depth_discrimination_stimuli/001164_2014-06-17_15-35-46_260595134347_rgbf000085-resize_3/001164_2014-06-17_15-35-46_260595134347_rgbf000085-resize-original.jpg,6262,1238030,1392337,46
133786,DepthScenes,v2_duration_discrimination,discrim_jsons/shuffled_g0_rotated.json,http://54.211.221.249/DepthDuration/v2_depth_discrimination_MTurk/v2_DepthDiscrim_HTML.html#3,3,1349,625,1366,768,8-2-2021,9-48-20,107,,,,,,,1879,505,1004,1005,999,488,,4,1,depth_discrimination_stimuli/001158_2014-06-17_15-32-16_260595134347_rgbf000138-resize_2/001158_2014-06-17_15-32-16_260595134347_rgbf000138-resize-original.jpg,3615,1238030,1392337,46
133786,DepthScenes,v2_duration_discrimination,discrim_jsons/shuffled_g0_rotated.json,http://54.211.221.249/DepthDuration/v2_depth_discrimination_MTurk/v2_DepthDiscrim_HTML.html#3,3,1349,625,1366,768,8-2-2021,9-48-20,108,,,,,,,1879,505,1004,1005,999,488,,5,2,depth_discrimination_stimuli/000556_2014-06-09_22-42-56_260595134347_rgbf000214-resize_1/000556_2014-06-09_22-42-56_260595134347_rgbf000214-resize-original.jpg,4239,1238030,1392337,46
133786,DepthScenes,v2_duration_discrimination,discrim_jsons/shuffled_g0_rotated.json,http://54.211.221.249/DepthDuration/v2_depth_discrimination_MTurk/v2_DepthDiscrim_HTML.html#3,3,1349,625,1366,768,8-2-2021,9-48-20,109,,,,,,,1879,505,1004,1005,999,488,,3,2,depth_discrimination_stimuli/001016_2014-06-09_16-16-10_260595134347_rgbf000112-resize_5/001016_2014-06-09_16-16-10_260595134347_rgbf000112-resize-original.jpg,4693,1238030,1392337,46
133786,DepthScenes,v2_duration_discrimination,discrim_jsons/shuffled_g0_rotated.json,http://54.211.221.249/DepthDuration/v2_depth_discrimination_MTurk/v2_DepthDiscrim_HTML.html#3,3,1349,625,1366,768,8-2-2021,9-48-20,110,,,,,,,1879,505,1004,1005,999,488,,5,3,depth_discrimination_stimuli/002445_2014-06-28_20-32-16_260595134347_rgbf000029-resize_4/002445_2014-06-28_20-32-16_260595134347_rgbf000029-resize-original.jpg,5371,1238030,1392337,46
133786,DepthScenes,v2_duration_discrimination,discrim_jsons/shuffled_g0_rotated.json,http://54.211.221.249/DepthDuration/v2_depth_discrimination_MTurk/v2_DepthDiscrim_HTML.html#3,3,1349,625,1366,768,8-2-2021,9-48-20,111,,,,,,,1879,505,1004,1005,999,488,,3,2,depth_discrimination_stimuli/001150_2014-06-17_15-27-34_260595134347_rgbf000108-resize_2/001150_2014-06-17_15-27-34_260595134347_rgbf000108-resize-original.jpg,3582,1238030,1392337,46
133786,DepthScenes,v2_duration_discrimination,discrim_jsons/shuffled_g0_rotated.json,http://54.211.221.249/DepthDuration/v2_depth_discrimination_MTurk/v2_DepthDiscrim_HTML.html#3,3,1349,625,1366,768,8-2-2021,9-48-20,112,,,,,,,1879,505,1004,1005,999,488,,2,1,depth_discrimination_stimuli/002136_2014-06-25_21-18-03_260595134347_rgbf000109-resize_3/002136_2014-06-25_21-18-03_260595134347_rgbf000109-resize-original.jpg,3548,1238030,1392337,46
133786,DepthScenes,v2_duration_discrimination,discrim_jsons/shuffled_g0_rotated.json,http://54.211.221.249/DepthDuration/v2_depth_discrimination_MTurk/v2_DepthDiscrim_HTML.html#3,3,1349,625,1366,768,8-2-2021,9-48-20,113,,,,,,,1879,505,1004,1005,999,488,,3,3,depth_discrimination_stimuli/000927_2014-06-09_16-32-30_260595134347_rgbf000123-resize_3/000927_2014-06-09_16-32-30_260595134347_rgbf000123-resize-original.jpg,6470,1238030,1392337,46
133786,DepthScenes,v2_duration_discrimination,discrim_jsons/shuffled_g0_rotated.json,http://54.211.221.249/DepthDuration/v2_depth_discrimination_MTurk/v2_DepthDiscrim_HTML.html#3,3,1349,625,1366,768,8-2-2021,9-48-20,114,,,,,,,1879,505,1004,1005,999,488,,3,1,depth_discrimination_stimuli/000457_2014-06-08_16-52-43_260595134347_rgbf000199-resize_1/000457_2014-06-08_16-52-43_260595134347_rgbf000199-resize-original.jpg,5530,1238030,1392337,46
133786,DepthScenes,v2_duration_discrimination,discrim_jsons/shuffled_g0_rotated.json,http://54.211.221.249/DepthDuration/v2_depth_discrimination_MTurk/v2_DepthDiscrim_HTML.html#3,3,1349,625,1366,768,8-2-2021,9-48-20,115,,,,,,,1879,505,1004,1005,999,488,,3,1,depth_discrimination_stimuli/001167_2014-06-17_15-38-07_260595134347_rgbf000108-resize_0/001167_2014-06-17_15-38-07_260595134347_rgbf000108-resize-original.jpg,6703,1238030,1392337,46
133786,DepthScenes,v2_duration_discrimination,discrim_jsons/shuffled_g0_rotated.json,http://54.211.221.249/DepthDuration/v2_depth_discrimination_MTurk/v2_DepthDiscrim_HTML.html#3,3,1349,625,1366,768,8-2-2021,9-48-20,116,,,,,,,1879,505,1004,1005,999,488,,4,1,depth_discrimination_stimuli/003069_2014-06-15_14-57-50_094959634447_rgbf000150-resize_4/003069_2014-06-15_14-57-50_094959634447_rgbf000150-resize-original.jpg,5231,1238030,1392337,46
133786,DepthScenes,v2_duration_discrimination,discrim_jsons/shuffled_g0_rotated.json,http://54.211.221.249/DepthDuration/v2_depth_discrimination_MTurk/v2_DepthDiscrim_HTML.html#3,3,1349,625,1366,768,8-2-2021,9-48-20,117,,,,,,,1879,505,1004,1005,999,488,,3,2,depth_discrimination_stimuli/000854_2014-06-09_19-43-13_260595134347_rgbf000066-resize_0/000854_2014-06-09_19-43-13_260595134347_rgbf000066-resize-original.jpg,3822,1238030,1392337,46
133786,DepthScenes,v2_duration_discrimination,discrim_jsons/shuffled_g0_rotated.json,http://54.211.221.249/DepthDuration/v2_depth_discrimination_MTurk/v2_DepthDiscrim_HTML.html#3,3,1349,625,1366,768,8-2-2021,9-48-20,118,,,,,,,1879,505,1004,1005,999,488,,4,1,depth_discrimination_stimuli/000642_2014-06-08_16-59-25_260595134347_rgbf000098-resize_2/000642_2014-06-08_16-59-25_260595134347_rgbf000098-resize-original.jpg,3316,1238030,1392337,46
133786,DepthScenes,v2_duration_discrimination,discrim_jsons/shuffled_g0_rotated.json,http://54.211.221.249/DepthDuration/v2_depth_discrimination_MTurk/v2_DepthDiscrim_HTML.html#3,3,1349,625,1366,768,8-2-2021,9-48-20,119,,,,,,,1879,505,1004,1005,999,488,,3,3,depth_discrimination_stimuli/000682_2014-06-08_23-14-58_260595134347_rgbf000041-resize_5/000682_2014-06-08_23-14-58_260595134347_rgbf000041-resize-original.jpg,5933,1238030,1392337,46
133786,DepthScenes,v2_duration_discrimination,discrim_jsons/shuffled_g0_rotated.json,http://54.211.221.249/DepthDuration/v2_depth_discrimination_MTurk/v2_DepthDiscrim_HTML.html#3,3,1349,625,1366,768,8-2-2021,9-48-20,120,,,,,,,1879,505,1004,1005,999,488,,3,2,depth_discrimination_stimuli/002043_2014-06-24_20-29-38_260595134347_rgbf000039-resize_4/002043_2014-06-24_20-29-38_260595134347_rgbf000039-resize-original.jpg,6709,1238030,1392337,46
133786,DepthScenes,v2_duration_discrimination,discrim_jsons/shuffled_g0_rotated.json,http://54.211.221.249/DepthDuration/v2_depth_discrimination_MTurk/v2_DepthDiscrim_HTML.html#3,3,1349,625,1366,768,8-2-2021,9-48-20,121,,,,,,,1879,505,1004,1005,999,488,,3,3,depth_discrimination_stimuli/000906_2014-06-08_13-35-43_260595134347_rgbf000155-resize_1/000906_2014-06-08_13-35-43_260595134347_rgbf000155-resize-original.jpg,5861,1238030,1392337,46
133786,DepthScenes,v2_duration_discrimination,discrim_jsons/shuffled_g0_rotated.json,http://54.211.221.249/DepthDuration/v2_depth_discrimination_MTurk/v2_DepthDiscrim_HTML.html#3,3,1349,625,1366,768,8-2-2021,9-48-20,122,,,,,,,1879,505,1004,1005,999,488,,3,2,depth_discrimination_stimuli/002758_2014-06-22_19-11-20_094959634447_rgbf000128-resize_1/002758_2014-06-22_19-11-20_094959634447_rgbf000128-resize-original.jpg,4269,1238030,1392337,46
133786,DepthScenes,v2_duration_discrimination,discrim_jsons/shuffled_g0_rotated.json,http://54.211.221.249/DepthDuration/v2_depth_discrimination_MTurk/v2_DepthDiscrim_HTML.html#3,3,1349,625,1366,768,8-2-2021,9-48-20,123,,,,,,,1879,505,1004,1005,999,488,,3,3,depth_discrimination_stimuli/000734_2014-06-08_17-39-11_260595134347_rgbf000128-resize_2/000734_2014-06-08_17-39-11_260595134347_rgbf000128-resize-original.jpg,4585,1238030,1392337,46
133786,DepthScenes,v2_duration_discrimination,discrim_jsons/shuffled_g0_rotated.json,http://54.211.221.249/DepthDuration/v2_depth_discrimination_MTurk/v2_DepthDiscrim_HTML.html#3,3,1349,625,1366,768,8-2-2021,9-48-20,124,,,,,,,1879,505,1004,1005,999,488,,2,3,depth_discrimination_stimuli/001516_2014-06-20_16-25-09_260595134347_rgbf000076-resize_2/001516_2014-06-20_16-25-09_260595134347_rgbf000076-resize-original.jpg,6230,1238030,1392337,46
133786,DepthScenes,v2_duration_discrimination,discrim_jsons/shuffled_g0_rotated.json,http://54.211.221.249/DepthDuration/v2_depth_discrimination_MTurk/v2_DepthDiscrim_HTML.html#3,3,1349,625,1366,768,8-2-2021,9-48-20,125,,,,,,,1879,505,1004,1005,999,488,,3,2,depth_discrimination_stimuli/002425_2014-06-28_20-27-29_260595134347_rgbf000031-resize_8/002425_2014-06-28_20-27-29_260595134347_rgbf000031-resize-original.jpg,6593,1238030,1392337,46
133786,DepthScenes,v2_duration_discrimination,discrim_jsons/shuffled_g0_rotated.json,http://54.211.221.249/DepthDuration/v2_depth_discrimination_MTurk/v2_DepthDiscrim_HTML.html#3,3,1349,625,1366,768,8-2-2021,9-48-20,126,,,,,,,1879,505,1004,1005,999,488,,4,2,depth_discrimination_stimuli/000929_2014-06-09_16-33-19_260595134347_rgbf000139-resize_0/000929_2014-06-09_16-33-19_260595134347_rgbf000139-resize-original.jpg,3392,1238030,1392337,46
133786,DepthScenes,v2_duration_discrimination,discrim_jsons/shuffled_g0_rotated.json,http://54.211.221.249/DepthDuration/v2_depth_discrimination_MTurk/v2_DepthDiscrim_HTML.html#3,3,1349,625,1366,768,8-2-2021,9-48-20,127,,,,,,,1879,505,1004,1005,999,488,,4,2,depth_discrimination_stimuli/000549_2014-06-08_22-10-24_260595134347_rgbf000247-resize_3/000549_2014-06-08_22-10-24_260595134347_rgbf000247-resize-original.jpg,3769,1238030,1392337,46
133786,DepthScenes,v2_duration_discrimination,discrim_jsons/shuffled_g0_rotated.json,http://54.211.221.249/DepthDuration/v2_depth_discrimination_MTurk/v2_DepthDiscrim_HTML.html#3,3,1349,625,1366,768,8-2-2021,9-48-20,128,,,,,,,1879,505,1004,1005,999,488,,2,1,depth_discrimination_stimuli/000739_2014-06-08_18-45-58_260595134347_rgbf000068-resize_1/000739_2014-06-08_18-45-58_260595134347_rgbf000068-resize-original.jpg,3454,1238030,1392337,46
133786,DepthScenes,v2_duration_discrimination,discrim_jsons/shuffled_g0_rotated.json,http://54.211.221.249/DepthDuration/v2_depth_discrimination_MTurk/v2_DepthDiscrim_HTML.html#3,3,1349,625,1366,768,8-2-2021,9-48-20,129,,,,,,,1879,505,1004,1005,999,488,,3,2,depth_discrimination_stimuli/001094_2014-06-15_17-36-00_260595134347_rgbf000205-resize_0/001094_2014-06-15_17-36-00_260595134347_rgbf000205-resize-original.jpg,4961,1238030,1392337,46
133786,DepthScenes,v2_duration_discrimination,discrim_jsons/shuffled_g0_rotated.json,http://54.211.221.249/DepthDuration/v2_depth_discrimination_MTurk/v2_DepthDiscrim_HTML.html#3,3,1349,625,1366,768,8-2-2021,9-48-20,130,,,,,,,1879,505,1004,1005,999,488,,4,3,depth_discrimination_stimuli/003492_2014-05-21_15-50-55_094959634447_rgbf000828-resize_1/003492_2014-05-21_15-50-55_094959634447_rgbf000828-resize-original.jpg,4108,1238030,1392337,46
133786,DepthScenes,v2_duration_discrimination,discrim_jsons/shuffled_g0_rotated.json,http://54.211.221.249/DepthDuration/v2_depth_discrimination_MTurk/v2_DepthDiscrim_HTML.html#3,3,1349,625,1366,768,8-2-2021,9-48-20,131,,,,,,,1879,505,1004,1005,999,488,,4,2,depth_discrimination_stimuli/002663_2014-06-13_15-50-26_094959634447_rgbf000075-resize_1/002663_2014-06-13_15-50-26_094959634447_rgbf000075-resize-original.jpg,5869,1238030,1392337,46
133786,DepthScenes,v2_duration_discrimination,discrim_jsons/shuffled_g0_rotated.json,http://54.211.221.249/DepthDuration/v2_depth_discrimination_MTurk/v2_DepthDiscrim_HTML.html#3,3,1349,625,1366,768,8-2-2021,9-48-20,132,,,,,,,1879,505,1004,1005,999,488,,5,1,depth_discrimination_stimuli/001724_2014-06-26_19-28-50_260595134347_rgbf000037-resize_7/001724_2014-06-26_19-28-50_260595134347_rgbf000037-resize-original.jpg,3546,1238030,1392337,46
133786,DepthScenes,v2_duration_discrimination,discrim_jsons/shuffled_g0_rotated.json,http://54.211.221.249/DepthDuration/v2_depth_discrimination_MTurk/v2_DepthDiscrim_HTML.html#3,3,1349,625,1366,768,8-2-2021,9-48-20,133,,,,,,,1879,505,1004,1005,999,488,,5,5,scene_property_catch_stimuli/sun_aoquhiddlfqapdlz.jpg,4347,1238030,1392337,46
133786,DepthScenes,v2_duration_discrimination,discrim_jsons/shuffled_g0_rotated.json,http://54.211.221.249/DepthDuration/v2_depth_discrimination_MTurk/v2_DepthDiscrim_HTML.html#3,3,1349,625,1366,768,8-2-2021,9-48-20,134,,,,,,,1879,505,1004,1005,999,488,,3,3,depth_discrimination_stimuli/000469_2014-06-09_19-42-10_260595134347_rgbf000081-resize_1/000469_2014-06-09_19-42-10_260595134347_rgbf000081-resize-original.jpg,4877,1238030,1392337,46
133786,DepthScenes,v2_duration_discrimination,discrim_jsons/shuffled_g0_rotated.json,http://54.211.221.249/DepthDuration/v2_depth_discrimination_MTurk/v2_DepthDiscrim_HTML.html#3,3,1349,625,1366,768,8-2-2021,9-48-20,135,,,,,,,1879,505,1004,1005,999,488,,4,1,depth_discrimination_stimuli/000735_2014-06-08_18-23-50_260595134347_rgbf000163-resize_2/000735_2014-06-08_18-23-50_260595134347_rgbf000163-resize-original.jpg,3184,1238030,1392337,46
133786,DepthScenes,v2_duration_discrimination,discrim_jsons/shuffled_g0_rotated.json,http://54.211.221.249/DepthDuration/v2_depth_discrimination_MTurk/v2_DepthDiscrim_HTML.html#3,3,1349,625,1366,768,8-2-2021,9-48-20,136,,,,,,,1879,505,1004,1005,999,488,,2,1,depth_discrimination_stimuli/002953_2014-06-08_17-32-18_094959634447_rgbf000059-resize_5/002953_2014-06-08_17-32-18_094959634447_rgbf000059-resize-original.jpg,3432,1238030,1392337,46
133786,DepthScenes,v2_duration_discrimination,discrim_jsons/shuffled_g0_rotated.json,http://54.211.221.249/DepthDuration/v2_depth_discrimination_MTurk/v2_DepthDiscrim_HTML.html#3,3,1349,625,1366,768,8-2-2021,9-48-20,137,,,,,,,1879,505,1004,1005,999,488,,3,5,depth_discrimination_stimuli/000502_2014-06-08_23-02-32_260595134347_rgbf000063-resize_4/000502_2014-06-08_23-02-32_260595134347_rgbf000063-resize-original.jpg,5877,1238030,1392337,46
133786,DepthScenes,v2_duration_discrimination,discrim_jsons/shuffled_g0_rotated.json,http://54.211.221.249/DepthDuration/v2_depth_discrimination_MTurk/v2_DepthDiscrim_HTML.html#3,3,1349,625,1366,768,8-2-2021,9-48-20,138,,,,,,,1879,505,1004,1005,999,488,,2,5,depth_discrimination_stimuli/002905_2014-06-03_18-04-43_094959634447_rgbf000151-resize_2/002905_2014-06-03_18-04-43_094959634447_rgbf000151-resize-original.jpg,4938,1238030,1392337,46
133786,DepthScenes,v2_duration_discrimination,discrim_jsons/shuffled_g0_rotated.json,http://54.211.221.249/DepthDuration/v2_depth_discrimination_MTurk/v2_DepthDiscrim_HTML.html#3,3,1349,625,1366,768,8-2-2021,9-48-20,139,,,,,,,1879,505,1004,1005,999,488,,2,2,depth_discrimination_stimuli/002987_2014-06-08_18-48-20_094959634447_rgbf000022-resize_0/002987_2014-06-08_18-48-20_094959634447_rgbf000022-resize-original.jpg,3878,1238030,1392337,46
133786,DepthScenes,v2_duration_discrimination,discrim_jsons/shuffled_g0_rotated.json,http://54.211.221.249/DepthDuration/v2_depth_discrimination_MTurk/v2_DepthDiscrim_HTML.html#3,3,1349,625,1366,768,8-2-2021,9-48-20,140,,,,,,,1879,505,1004,1005,999,488,,3,2,depth_discrimination_stimuli/002750_2014-06-22_19-08-03_094959634447_rgbf000094-resize_4/002750_2014-06-22_19-08-03_094959634447_rgbf000094-resize-original.jpg,3431,1238030,1392337,46
133786,DepthScenes,v2_duration_discrimination,discrim_jsons/shuffled_g0_rotated.json,http://54.211.221.249/DepthDuration/v2_depth_discrimination_MTurk/v2_DepthDiscrim_HTML.html#3,3,1349,625,1366,768,8-2-2021,9-48-20,141,,,,,,,1879,505,1004,1005,999,488,,3,1,depth_discrimination_stimuli/002213_2014-06-28_18-37-58_260595134347_rgbf000055-resize_1/002213_2014-06-28_18-37-58_260595134347_rgbf000055-resize-original.jpg,5562,1238030,1392337,46
133786,DepthScenes,v2_duration_discrimination,discrim_jsons/shuffled_g0_rotated.json,http://54.211.221.249/DepthDuration/v2_depth_discrimination_MTurk/v2_DepthDiscrim_HTML.html#3,3,1349,625,1366,768,8-2-2021,9-48-20,142,,,,,,,1879,505,1004,1005,999,488,,3,2,depth_discrimination_stimuli/000917_2014-06-09_22-45-29_260595134347_rgbf000149-resize_3/000917_2014-06-09_22-45-29_260595134347_rgbf000149-resize-original.jpg,4530,1238030,1392337,46
133786,DepthScenes,v2_duration_discrimination,discrim_jsons/shuffled_g0_rotated.json,http://54.211.221.249/DepthDuration/v2_depth_discrimination_MTurk/v2_DepthDiscrim_HTML.html#3,3,1349,625,1366,768,8-2-2021,9-48-20,143,,,,,,,1879,505,1004,1005,999,488,,5,2,depth_discrimination_stimuli/002375_2014-06-28_20-13-44_260595134347_rgbf000032-resize_1/002375_2014-06-28_20-13-44_260595134347_rgbf000032-resize-original.jpg,6122,1238030,1392337,46
133786,DepthScenes,v2_duration_discrimination,discrim_jsons/shuffled_g0_rotated.json,http://54.211.221.249/DepthDuration/v2_depth_discrimination_MTurk/v2_DepthDiscrim_HTML.html#3,3,1349,625,1366,768,8-2-2021,9-48-20,144,,,,,,,1879,505,1004,1005,999,488,,3,1,depth_discrimination_stimuli/002949_2014-06-26_15-57-42_094959634447_rgbf000079-resize_1/002949_2014-06-26_15-57-42_094959634447_rgbf000079-resize-original.jpg,3929,1238030,1392337,46
133786,DepthScenes,v2_duration_discrimination,discrim_jsons/shuffled_g0_rotated.json,http://54.211.221.249/DepthDuration/v2_depth_discrimination_MTurk/v2_DepthDiscrim_HTML.html#3,3,1349,625,1366,768,8-2-2021,9-48-20,145,,,,,,,1879,505,1004,1005,999,488,,2,3,depth_discrimination_stimuli/001100_2014-06-15_17-46-26_260595134347_rgbf000225-resize_2/001100_2014-06-15_17-46-26_260595134347_rgbf000225-resize-original.jpg,4563,1238030,1392337,46
133786,DepthScenes,v2_duration_discrimination,discrim_jsons/shuffled_g0_rotated.json,http://54.211.221.249/DepthDuration/v2_depth_discrimination_MTurk/v2_DepthDiscrim_HTML.html#3,3,1349,625,1366,768,8-2-2021,9-48-20,146,,,,,,,1879,505,1004,1005,999,488,,4,3,depth_discrimination_stimuli/003534_2014-05-22_15-06-10_094959634447_rgbf000102-resize_4/003534_2014-05-22_15-06-10_094959634447_rgbf000102-resize-original.jpg,4214,1238030,1392337,46
133786,DepthScenes,v2_duration_discrimination,discrim_jsons/shuffled_g0_rotated.json,http://54.211.221.249/DepthDuration/v2_depth_discrimination_MTurk/v2_DepthDiscrim_HTML.html#3,3,1349,625,1366,768,8-2-2021,9-48-20,147,,,,,,,1879,505,1004,1005,999,488,,5,3,depth_discrimination_stimuli/002323_2014-06-28_20-01-54_260595134347_rgbf000051-resize_4/002323_2014-06-28_20-01-54_260595134347_rgbf000051-resize-original.jpg,5647,1238030,1392337,46
133786,DepthScenes,v2_duration_discrimination,discrim_jsons/shuffled_g0_rotated.json,http://54.211.221.249/DepthDuration/v2_depth_discrimination_MTurk/v2_DepthDiscrim_HTML.html#3,3,1349,625,1366,768,8-2-2021,9-48-20,148,,,,,,,1879,505,1004,1005,999,488,,3,2,depth_discrimination_stimuli/000436_2014-06-09_22-25-11_260595134347_rgbf000137-resize_1/000436_2014-06-09_22-25-11_260595134347_rgbf000137-resize-original.jpg,3407,1238030,1392337,46
133786,DepthScenes,v2_duration_discrimination,discrim_jsons/shuffled_g0_rotated.json,http://54.211.221.249/DepthDuration/v2_depth_discrimination_MTurk/v2_DepthDiscrim_HTML.html#3,3,1349,625,1366,768,8-2-2021,9-48-20,149,,,,,,,1879,505,1004,1005,999,488,,3,3,depth_discrimination_stimuli/001199_2014-06-17_16-03-48_260595134347_rgbf000077-resize_0/001199_2014-06-17_16-03-48_260595134347_rgbf000077-resize-original.jpg,4131,1238030,1392337,46
133786,DepthScenes,v2_duration_discrimination,discrim_jsons/shuffled_g0_rotated.json,http://54.211.221.249/DepthDuration/v2_depth_discrimination_MTurk/v2_DepthDiscrim_HTML.html#3,3,1349,625,1366,768,8-2-2021,9-48-20,150,,,,,,,1879,505,1004,1005,999,488,,2,2,depth_discrimination_stimuli/002875_2014-06-01_15-19-00_094959634447_rgbf000151-resize_1/002875_2014-06-01_15-19-00_094959634447_rgbf000151-resize-original.jpg,3796,1238030,1392337,46
133786,DepthScenes,v2_duration_discrimination,discrim_jsons/shuffled_g0_rotated.json,http://54.211.221.249/DepthDuration/v2_depth_discrimination_MTurk/v2_DepthDiscrim_HTML.html#3,3,1349,625,1366,768,8-2-2021,9-48-20,151,,,,,,,1879,505,1004,1005,999,488,,2,2,scene_property_catch_stimuli/000675_2014-06-08_22-59-18_260595134347_rgbf000096-resize.jpg,3663,1238030,1392337,46
133786,DepthScenes,v2_duration_discrimination,discrim_jsons/shuffled_g0_rotated.json,http://54.211.221.249/DepthDuration/v2_depth_discrimination_MTurk/v2_DepthDiscrim_HTML.html#3,3,1349,625,1366,768,8-2-2021,9-48-20,152,,,,,,,1879,505,1004,1005,999,488,,3,3,depth_discrimination_stimuli/000943_2014-06-09_19-31-07_260595134347_rgbf000128-resize_1/000943_2014-06-09_19-31-07_260595134347_rgbf000128-resize-original.jpg,9500,1238030,1392337,46
133786,DepthScenes,v2_duration_discrimination,discrim_jsons/shuffled_g0_rotated.json,http://54.211.221.249/DepthDuration/v2_depth_discrimination_MTurk/v2_DepthDiscrim_HTML.html#3,3,1349,625,1366,768,8-2-2021,9-48-20,153,,,,,,,1879,505,1004,1005,999,488,,4,1,depth_discrimination_stimuli/000521_2014-06-08_13-34-35_260595134347_rgbf000191-resize_2/000521_2014-06-08_13-34-35_260595134347_rgbf000191-resize-original.jpg,3530,1238030,1392337,46
133786,DepthScenes,v2_duration_discrimination,discrim_jsons/shuffled_g0_rotated.json,http://54.211.221.249/DepthDuration/v2_depth_discrimination_MTurk/v2_DepthDiscrim_HTML.html#3,3,1349,625,1366,768,8-2-2021,9-48-20,154,,,,,,,1879,505,1004,1005,999,488,,3,3,depth_discrimination_stimuli/003129_2014-05-12_10-48-10_094959634447_rgbf000100-resize_0/003129_2014-05-12_10-48-10_094959634447_rgbf000100-resize-original.jpg,6246,1238030,1392337,46
133786,DepthScenes,v2_duration_discrimination,discrim_jsons/shuffled_g0_rotated.json,http://54.211.221.249/DepthDuration/v2_depth_discrimination_MTurk/v2_DepthDiscrim_HTML.html#3,3,1349,625,1366,768,8-2-2021,9-48-20,155,,,,,,,1879,505,1004,1005,999,488,,4,3,depth_discrimination_stimuli/002460_2014-06-28_20-35-43_260595134347_rgbf000028-resize_4/002460_2014-06-28_20-35-43_260595134347_rgbf000028-resize-original.jpg,5723,1238030,1392337,46
133786,DepthScenes,v2_duration_discrimination,discrim_jsons/shuffled_g0_rotated.json,http://54.211.221.249/DepthDuration/v2_depth_discrimination_MTurk/v2_DepthDiscrim_HTML.html#3,3,1349,625,1366,768,8-2-2021,9-48-20,156,,,,,,,1879,505,1004,1005,999,488,,4,4,depth_discrimination_stimuli/003083_2014-06-15_15-21-03_094959634447_rgbf000063-resize_1/003083_2014-06-15_15-21-03_094959634447_rgbf000063-resize-original.jpg,9342,1238030,1392337,46
133786,DepthScenes,v2_duration_discrimination,discrim_jsons/shuffled_g0_rotated.json,http://54.211.221.249/DepthDuration/v2_depth_discrimination_MTurk/v2_DepthDiscrim_HTML.html#3,3,1349,625,1366,768,8-2-2021,9-48-20,157,,,,,,,1879,505,1004,1005,999,488,,4,2,depth_discrimination_stimuli/002199_2014-06-28_18-33-56_260595134347_rgbf000074-resize_0/002199_2014-06-28_18-33-56_260595134347_rgbf000074-resize-original.jpg,3647,1238030,1392337,46
133786,DepthScenes,v2_duration_discrimination,discrim_jsons/shuffled_g0_rotated.json,http://54.211.221.249/DepthDuration/v2_depth_discrimination_MTurk/v2_DepthDiscrim_HTML.html#3,3,1349,625,1366,768,8-2-2021,9-48-20,158,,,,,,,1879,505,1004,1005,999,488,,4,2,depth_discrimination_stimuli/000522_2014-06-08_13-35-06_260595134347_rgbf000244-resize_1/000522_2014-06-08_13-35-06_260595134347_rgbf000244-resize-original.jpg,3783,1238030,1392337,46
133786,DepthScenes,v2_duration_discrimination,discrim_jsons/shuffled_g0_rotated.json,http://54.211.221.249/DepthDuration/v2_depth_discrimination_MTurk/v2_DepthDiscrim_HTML.html#3,3,1349,625,1366,768,8-2-2021,9-48-20,159,,,,,,,1879,505,1004,1005,999,488,,3,2,depth_discrimination_stimuli/001450_2014-06-19_17-02-03_260595134347_rgbf000203-resize_4/001450_2014-06-19_17-02-03_260595134347_rgbf000203-resize-original.jpg,3724,1238030,1392337,46
133786,DepthScenes,v2_duration_discrimination,discrim_jsons/shuffled_g0_rotated.json,http://54.211.221.249/DepthDuration/v2_depth_discrimination_MTurk/v2_DepthDiscrim_HTML.html#3,3,1349,625,1366,768,8-2-2021,9-48-20,160,,,,,,,1879,505,1004,1005,999,488,,4,3,depth_discrimination_stimuli/002570_2014-06-24_13-59-54_094959634447_rgbf000059-resize_0/002570_2014-06-24_13-59-54_094959634447_rgbf000059-resize-original.jpg,8133,1238030,1392337,46
133786,DepthScenes,v2_duration_discrimination,discrim_jsons/shuffled_g0_rotated.json,http://54.211.221.249/DepthDuration/v2_depth_discrimination_MTurk/v2_DepthDiscrim_HTML.html#3,3,1349,625,1366,768,8-2-2021,9-48-20,161,,,,,,,1879,505,1004,1005,999,488,,3,4,depth_discrimination_stimuli/001571_2014-06-20_17-21-32_260595134347_rgbf000089-resize_1/001571_2014-06-20_17-21-32_260595134347_rgbf000089-resize-original.jpg,4988,1238030,1392337,46
133786,DepthScenes,v2_duration_discrimination,discrim_jsons/shuffled_g0_rotated.json,http://54.211.221.249/DepthDuration/v2_depth_discrimination_MTurk/v2_DepthDiscrim_HTML.html#3,3,1349,625,1366,768,8-2-2021,9-48-20,162,,,,,,,1879,505,1004,1005,999,488,,3,3,depth_discrimination_stimuli/003288_2014-05-14_21-50-30_094959634447_rgbf000028-resize_3/003288_2014-05-14_21-50-30_094959634447_rgbf000028-resize-original.jpg,6417,1238030,1392337,46
133786,DepthScenes,v2_duration_discrimination,discrim_jsons/shuffled_g0_rotated.json,http://54.211.221.249/DepthDuration/v2_depth_discrimination_MTurk/v2_DepthDiscrim_HTML.html#3,3,1349,625,1366,768,8-2-2021,9-48-20,163,,,,,,,1879,505,1004,1005,999,488,,3,2,depth_discrimination_stimuli/000447_2014-06-08_16-15-46_260595134347_rgbf000130-resize_1/000447_2014-06-08_16-15-46_260595134347_rgbf000130-resize-original.jpg,3962,1238030,1392337,46
133786,DepthScenes,v2_duration_discrimination,discrim_jsons/shuffled_g0_rotated.json,http://54.211.221.249/DepthDuration/v2_depth_discrimination_MTurk/v2_DepthDiscrim_HTML.html#3,3,1349,625,1366,768,8-2-2021,9-48-20,164,,,,,,,1879,505,1004,1005,999,488,,2,3,depth_discrimination_stimuli/000636_2014-06-08_16-39-02_260595134347_rgbf000108-resize_4/000636_2014-06-08_16-39-02_260595134347_rgbf000108-resize-original.jpg,4077,1238030,1392337,46
133786,DepthScenes,v2_duration_discrimination,discrim_jsons/shuffled_g0_rotated.json,http://54.211.221.249/DepthDuration/v2_depth_discrimination_MTurk/v2_DepthDiscrim_HTML.html#3,3,1349,625,1366,768,8-2-2021,9-48-20,165,,,,,,,1879,505,1004,1005,999,488,,3,3,depth_discrimination_stimuli/001110_2014-06-15_17-25-28_260595134347_rgbf000150-resize_1/001110_2014-06-15_17-25-28_260595134347_rgbf000150-resize-original.jpg,5615,1238030,1392337,46
133786,DepthScenes,v2_duration_discrimination,discrim_jsons/shuffled_g0_rotated.json,http://54.211.221.249/DepthDuration/v2_depth_discrimination_MTurk/v2_DepthDiscrim_HTML.html#3,3,1349,625,1366,768,8-2-2021,9-48-20,166,,,,,,,1879,505,1004,1005,999,488,,3,1,depth_discrimination_stimuli/000665_2014-06-09_20-42-35_260595134347_rgbf000110-resize_1/000665_2014-06-09_20-42-35_260595134347_rgbf000110-resize-original.jpg,3337,1238030,1392337,46
133786,DepthScenes,v2_duration_discrimination,discrim_jsons/shuffled_g0_rotated.json,http://54.211.221.249/DepthDuration/v2_depth_discrimination_MTurk/v2_DepthDiscrim_HTML.html#3,3,1349,625,1366,768,8-2-2021,9-48-20,167,,,,,,,1879,505,1004,1005,999,488,,5,2,depth_discrimination_stimuli/002118_2014-06-25_20-32-08_260595134347_rgbf000078-resize_1/002118_2014-06-25_20-32-08_260595134347_rgbf000078-resize-original.jpg,4330,1238030,1392337,46
133786,DepthScenes,v2_duration_discrimination,discrim_jsons/shuffled_g0_rotated.json,http://54.211.221.249/DepthDuration/v2_depth_discrimination_MTurk/v2_DepthDiscrim_HTML.html#3,3,1349,625,1366,768,8-2-2021,9-48-20,168,,,,,,,1879,505,1004,1005,999,488,,3,1,depth_discrimination_stimuli/003495_2014-05-21_16-01-51_094959634447_rgbf000100-resize_3/003495_2014-05-21_16-01-51_094959634447_rgbf000100-resize-original.jpg,5361,1238030,1392337,46
133786,DepthScenes,v2_duration_discrimination,discrim_jsons/shuffled_g0_rotated.json,http://54.211.221.249/DepthDuration/v2_depth_discrimination_MTurk/v2_DepthDiscrim_HTML.html#3,3,1349,625,1366,768,8-2-2021,9-48-20,169,,,,,,,1879,505,1004,1005,999,488,,4,1,depth_discrimination_stimuli/002790_2014-06-22_19-36-35_094959634447_rgbf000074-resize_4/002790_2014-06-22_19-36-35_094959634447_rgbf000074-resize-original.jpg,4290,1238030,1392337,46
133786,DepthScenes,v2_duration_discrimination,discrim_jsons/shuffled_g0_rotated.json,http://54.211.221.249/DepthDuration/v2_depth_discrimination_MTurk/v2_DepthDiscrim_HTML.html#3,3,1349,625,1366,768,8-2-2021,9-48-20,170,,,,,,,1879,505,1004,1005,999,488,,4,2,depth_discrimination_stimuli/001092_2014-06-15_17-34-58_260595134347_rgbf000171-resize_3/001092_2014-06-15_17-34-58_260595134347_rgbf000171-resize-original.jpg,5454,1238030,1392337,46
133786,DepthScenes,v2_duration_discrimination,discrim_jsons/shuffled_g0_rotated.json,http://54.211.221.249/DepthDuration/v2_depth_discrimination_MTurk/v2_DepthDiscrim_HTML.html#3,3,1349,625,1366,768,8-2-2021,9-48-20,171,,,,,,,1879,505,1004,1005,999,488,,3,2,depth_discrimination_stimuli/000470_2014-06-09_19-42-40_260595134347_rgbf000094-resize_1/000470_2014-06-09_19-42-40_260595134347_rgbf000094-resize-original.jpg,6100,1238030,1392337,46
133786,DepthScenes,v2_duration_discrimination,discrim_jsons/shuffled_g0_rotated.json,http://54.211.221.249/DepthDuration/v2_depth_discrimination_MTurk/v2_DepthDiscrim_HTML.html#3,3,1349,625,1366,768,8-2-2021,9-48-20,172,,,,,,,1879,505,1004,1005,999,488,,3,4,depth_discrimination_stimuli/002568_2014-06-24_13-59-21_094959634447_rgbf000062-resize_4/002568_2014-06-24_13-59-21_094959634447_rgbf000062-resize-original.jpg,5696,1238030,1392337,46
133786,DepthScenes,v2_duration_discrimination,discrim_jsons/shuffled_g0_rotated.json,http://54.211.221.249/DepthDuration/v2_depth_discrimination_MTurk/v2_DepthDiscrim_HTML.html#3,3,1349,625,1366,768,8-2-2021,9-48-20,173,,,,,,,1879,505,1004,1005,999,488,,3,3,depth_discrimination_stimuli/001197_2014-06-17_16-01-50_260595134347_rgbf000103-resize_4/001197_2014-06-17_16-01-50_260595134347_rgbf000103-resize-original.jpg,4063,1238030,1392337,46
133786,DepthScenes,v2_duration_discrimination,discrim_jsons/shuffled_g0_rotated.json,http://54.211.221.249/DepthDuration/v2_depth_discrimination_MTurk/v2_DepthDiscrim_HTML.html#3,3,1349,625,1366,768,8-2-2021,9-48-20,174,,,,,,,1879,505,1004,1005,999,488,,3,1,depth_discrimination_stimuli/003621_2014-05-23_18-06-08_094959634447_rgbf000101-resize_1/003621_2014-05-23_18-06-08_094959634447_rgbf000101-resize-original.jpg,6429,1238030,1392337,46
133786,DepthScenes,v2_duration_discrimination,discrim_jsons/shuffled_g0_rotated.json,http://54.211.221.249/DepthDuration/v2_depth_discrimination_MTurk/v2_DepthDiscrim_HTML.html#3,3,1349,625,1366,768,8-2-2021,9-48-20,175,,,,,,,1879,505,1004,1005,999,488,,2,2,depth_discrimination_stimuli/002340_2014-06-28_20-05-46_260595134347_rgbf000113-resize_0/002340_2014-06-28_20-05-46_260595134347_rgbf000113-resize-original.jpg,3591,1238030,1392337,46
133786,DepthScenes,v2_duration_discrimination,discrim_jsons/shuffled_g0_rotated.json,http://54.211.221.249/DepthDuration/v2_depth_discrimination_MTurk/v2_DepthDiscrim_HTML.html#3,3,1349,625,1366,768,8-2-2021,9-48-20,176,,,,,,,1879,505,1004,1005,999,488,,3,2,depth_discrimination_stimuli/001032_2014-06-08_13-23-17_260595134347_rgbf000021-resize_3/001032_2014-06-08_13-23-17_260595134347_rgbf000021-resize-original.jpg,3553,1238030,1392337,46
133786,DepthScenes,v2_duration_discrimination,discrim_jsons/shuffled_g0_rotated.json,http://54.211.221.249/DepthDuration/v2_depth_discrimination_MTurk/v2_DepthDiscrim_HTML.html#3,3,1349,625,1366,768,8-2-2021,9-48-20,177,,,,,,,1879,505,1004,1005,999,488,,4,3,depth_discrimination_stimuli/001417_2014-06-19_16-25-36_260595134347_rgbf000115-resize_5/001417_2014-06-19_16-25-36_260595134347_rgbf000115-resize-original.jpg,5076,1238030,1392337,46
133786,DepthScenes,v2_duration_discrimination,discrim_jsons/shuffled_g0_rotated.json,http://54.211.221.249/DepthDuration/v2_depth_discrimination_MTurk/v2_DepthDiscrim_HTML.html#3,3,1349,625,1366,768,8-2-2021,9-48-20,178,,,,,,,1879,505,1004,1005,999,488,,3,4,depth_discrimination_stimuli/001828_2014-06-26_21-40-03_260595134347_rgbf000024-resize_0/001828_2014-06-26_21-40-03_260595134347_rgbf000024-resize-original.jpg,5568,1238030,1392337,46
133786,DepthScenes,v2_duration_discrimination,discrim_jsons/shuffled_g0_rotated.json,http://54.211.221.249/DepthDuration/v2_depth_discrimination_MTurk/v2_DepthDiscrim_HTML.html#3,3,1349,625,1366,768,8-2-2021,9-48-20,179,,,,,,,1879,505,1004,1005,999,488,,3,3,depth_discrimination_stimuli/001136_2014-06-17_15-19-41_260595134347_rgbf000076-resize_3/001136_2014-06-17_15-19-41_260595134347_rgbf000076-resize-original.jpg,5614,1238030,1392337,46
133786,DepthScenes,v2_duration_discrimination,discrim_jsons/shuffled_g0_rotated.json,http://54.211.221.249/DepthDuration/v2_depth_discrimination_MTurk/v2_DepthDiscrim_HTML.html#3,3,1349,625,1366,768,8-2-2021,9-48-20,180,,,,,,,1879,505,1004,1005,999,488,,3,2,depth_discrimination_stimuli/001132_2014-06-17_14-48-54_260595134347_rgbf000100-resize_2/001132_2014-06-17_14-48-54_260595134347_rgbf000100-resize-original.jpg,3807,1238030,1392337,46
133786,DepthScenes,v2_duration_discrimination,discrim_jsons/shuffled_g0_rotated.json,http://54.211.221.249/DepthDuration/v2_depth_discrimination_MTurk/v2_DepthDiscrim_HTML.html#3,3,1349,625,1366,768,8-2-2021,9-48-20,181,,,,,,,1879,505,1004,1005,999,488,,3,1,depth_discrimination_stimuli/002579_2014-06-24_14-08-03_094959634447_rgbf000061-resize_2/002579_2014-06-24_14-08-03_094959634447_rgbf000061-resize-original.jpg,3845,1238030,1392337,46
133786,DepthScenes,v2_duration_discrimination,discrim_jsons/shuffled_g0_rotated.json,http://54.211.221.249/DepthDuration/v2_depth_discrimination_MTurk/v2_DepthDiscrim_HTML.html#3,3,1349,625,1366,768,8-2-2021,9-48-20,182,,,,,,,1879,505,1004,1005,999,488,,4,3,depth_discrimination_stimuli/002414_2014-06-28_20-24-58_260595134347_rgbf000067-resize_4/002414_2014-06-28_20-24-58_260595134347_rgbf000067-resize-original.jpg,3653,1238030,1392337,46
133786,DepthScenes,v2_duration_discrimination,discrim_jsons/shuffled_g0_rotated.json,http://54.211.221.249/DepthDuration/v2_depth_discrimination_MTurk/v2_DepthDiscrim_HTML.html#3,3,1349,625,1366,768,8-2-2021,9-48-20,183,,,,,,,1879,505,1004,1005,999,488,,3,2,depth_discrimination_stimuli/000692_2014-06-08_13-09-42_260595134347_rgbf000199-resize_2/000692_2014-06-08_13-09-42_260595134347_rgbf000199-resize-original.jpg,9277,1238030,1392337,46
133786,DepthScenes,v2_duration_discrimination,discrim_jsons/shuffled_g0_rotated.json,http://54.211.221.249/DepthDuration/v2_depth_discrimination_MTurk/v2_DepthDiscrim_HTML.html#3,3,1349,625,1366,768,8-2-2021,9-48-20,184,,,,,,,1879,505,1004,1005,999,488,,3,1,depth_discrimination_stimuli/000749_2014-06-08_21-55-06_260595134347_rgbf000070-resize_2/000749_2014-06-08_21-55-06_260595134347_rgbf000070-resize-original.jpg,4067,1238030,1392337,46
133786,DepthScenes,v2_duration_discrimination,discrim_jsons/shuffled_g0_rotated.json,http://54.211.221.249/DepthDuration/v2_depth_discrimination_MTurk/v2_DepthDiscrim_HTML.html#3,3,1349,625,1366,768,8-2-2021,9-48-20,185,,,,,,,1879,505,1004,1005,999,488,,3,2,depth_discrimination_stimuli/001617_2014-06-20_11-35-32_260595134347_rgbf000066-resize_1/001617_2014-06-20_11-35-32_260595134347_rgbf000066-resize-original.jpg,5713,1238030,1392337,46
133786,DepthScenes,v2_duration_discrimination,discrim_jsons/shuffled_g0_rotated.json,http://54.211.221.249/DepthDuration/v2_depth_discrimination_MTurk/v2_DepthDiscrim_HTML.html#3,3,1349,625,1366,768,8-2-2021,9-48-20,186,,,,,,,1879,505,1004,1005,999,488,,2,3,depth_discrimination_stimuli/000878_2014-06-08_22-52-45_260595134347_rgbf000045-resize_2/000878_2014-06-08_22-52-45_260595134347_rgbf000045-resize-original.jpg,3346,1238030,1392337,46
133786,DepthScenes,v2_duration_discrimination,discrim_jsons/shuffled_g0_rotated.json,http://54.211.221.249/DepthDuration/v2_depth_discrimination_MTurk/v2_DepthDiscrim_HTML.html#3,3,1349,625,1366,768,8-2-2021,9-48-20,187,,,,,,,1879,505,1004,1005,999,488,,3,2,depth_discrimination_stimuli/003292_2014-05-14_21-53-49_094959634447_rgbf000100-resize_2/003292_2014-05-14_21-53-49_094959634447_rgbf000100-resize-original.jpg,4276,1238030,1392337,46
133786,DepthScenes,v2_duration_discrimination,discrim_jsons/shuffled_g0_rotated.json,http://54.211.221.249/DepthDuration/v2_depth_discrimination_MTurk/v2_DepthDiscrim_HTML.html#3,3,1349,625,1366,768,8-2-2021,9-48-20,188,,,,,,,1879,505,1004,1005,999,488,,3,2,depth_discrimination_stimuli/002039_2014-06-24_20-22-38_260595134347_rgbf000084-resize_1/002039_2014-06-24_20-22-38_260595134347_rgbf000084-resize-original.jpg,3776,1238030,1392337,46
133786,DepthScenes,v2_duration_discrimination,discrim_jsons/shuffled_g0_rotated.json,http://54.211.221.249/DepthDuration/v2_depth_discrimination_MTurk/v2_DepthDiscrim_HTML.html#3,3,1349,625,1366,768,8-2-2021,9-48-20,189,,,,,,,1879,505,1004,1005,999,488,,3,2,depth_discrimination_stimuli/002995_2014-06-15_12-31-26_094959634447_rgbf000150-resize_1/002995_2014-06-15_12-31-26_094959634447_rgbf000150-resize-original.jpg,4499,1238030,1392337,46
133786,DepthScenes,v2_duration_discrimination,discrim_jsons/shuffled_g0_rotated.json,http://54.211.221.249/DepthDuration/v2_depth_discrimination_MTurk/v2_DepthDiscrim_HTML.html#3,3,1349,625,1366,768,8-2-2021,9-48-20,190,,,,,,,1879,505,1004,1005,999,488,,3,4,depth_discrimination_stimuli/001808_2014-06-26_20-50-58_260595134347_rgbf000029-resize_1/001808_2014-06-26_20-50-58_260595134347_rgbf000029-resize-original.jpg,3229,1238030,1392337,46
133786,DepthScenes,v2_duration_discrimination,discrim_jsons/shuffled_g0_rotated.json,http://54.211.221.249/DepthDuration/v2_depth_discrimination_MTurk/v2_DepthDiscrim_HTML.html#3,3,1349,625,1366,768,8-2-2021,9-48-20,191,,,,,,,1879,505,1004,1005,999,488,,4,3,depth_discrimination_stimuli/001570_2014-06-20_17-21-09_260595134347_rgbf000135-resize_4/001570_2014-06-20_17-21-09_260595134347_rgbf000135-resize-original.jpg,5730,1238030,1392337,46
133786,DepthScenes,v2_duration_discrimination,discrim_jsons/shuffled_g0_rotated.json,http://54.211.221.249/DepthDuration/v2_depth_discrimination_MTurk/v2_DepthDiscrim_HTML.html#3,3,1349,625,1366,768,8-2-2021,9-48-20,192,,,,,,,1879,505,1004,1005,999,488,,3,3,depth_discrimination_stimuli/000691_2014-06-08_13-08-50_260595134347_rgbf000132-resize_3/000691_2014-06-08_13-08-50_260595134347_rgbf000132-resize-original.jpg,4414,1238030,1392337,46
133786,DepthScenes,v2_duration_discrimination,discrim_jsons/shuffled_g0_rotated.json,http://54.211.221.249/DepthDuration/v2_depth_discrimination_MTurk/v2_DepthDiscrim_HTML.html#3,3,1349,625,1366,768,8-2-2021,9-48-20,193,,,,,,,1879,505,1004,1005,999,488,,3,5,depth_discrimination_stimuli/000409_2014-06-04_19-23-33_260595134347_rgbf000067-resize_0/000409_2014-06-04_19-23-33_260595134347_rgbf000067-resize-original.jpg,3938,1238030,1392337,46
133786,DepthScenes,v2_duration_discrimination,discrim_jsons/shuffled_g0_rotated.json,http://54.211.221.249/DepthDuration/v2_depth_discrimination_MTurk/v2_DepthDiscrim_HTML.html#3,3,1349,625,1366,768,8-2-2021,9-48-20,194,,,,,,,1879,505,1004,1005,999,488,,3,3,depth_discrimination_stimuli/003079_2014-06-15_15-18-20_094959634447_rgbf000152-resize_8/003079_2014-06-15_15-18-20_094959634447_rgbf000152-resize-original.jpg,4437,1238030,1392337,46
133786,DepthScenes,v2_duration_discrimination,discrim_jsons/shuffled_g0_rotated.json,http://54.211.221.249/DepthDuration/v2_depth_discrimination_MTurk/v2_DepthDiscrim_HTML.html#3,3,1349,625,1366,768,8-2-2021,9-48-20,195,,,,,,,1879,505,1004,1005,999,488,,3,1,depth_discrimination_stimuli/002639_2014-06-24_14-51-37_094959634447_rgbf000074-resize_4/002639_2014-06-24_14-51-37_094959634447_rgbf000074-resize-original.jpg,3407,1238030,1392337,46
133786,DepthScenes,v2_duration_discrimination,discrim_jsons/shuffled_g0_rotated.json,http://54.211.221.249/DepthDuration/v2_depth_discrimination_MTurk/v2_DepthDiscrim_HTML.html#3,3,1349,625,1366,768,8-2-2021,9-48-20,196,,,,,,,1879,505,1004,1005,999,488,,2,5,depth_discrimination_stimuli/001244_2014-06-17_16-47-45_260595134347_rgbf000030-resize_4/001244_2014-06-17_16-47-45_260595134347_rgbf000030-resize-original.jpg,4208,1238030,1392337,46
133786,DepthScenes,v2_duration_discrimination,discrim_jsons/shuffled_g0_rotated.json,http://54.211.221.249/DepthDuration/v2_depth_discrimination_MTurk/v2_DepthDiscrim_HTML.html#3,3,1349,625,1366,768,8-2-2021,9-48-20,197,,,,,,,1879,505,1004,1005,999,488,,4,2,depth_discrimination_stimuli/002467_2014-06-28_20-38-07_260595134347_rgbf000026-resize_2/002467_2014-06-28_20-38-07_260595134347_rgbf000026-resize-original.jpg,5285,1238030,1392337,46
133786,DepthScenes,v2_duration_discrimination,discrim_jsons/shuffled_g0_rotated.json,http://54.211.221.249/DepthDuration/v2_depth_discrimination_MTurk/v2_DepthDiscrim_HTML.html#3,3,1349,625,1366,768,8-2-2021,9-48-20,198,,,,,,,1879,505,1004,1005,999,488,,3,2,depth_discrimination_stimuli/002637_2014-06-24_14-51-13_094959634447_rgbf000066-resize_4/002637_2014-06-24_14-51-13_094959634447_rgbf000066-resize-original.jpg,3559,1238030,1392337,46
133786,DepthScenes,v2_duration_discrimination,discrim_jsons/shuffled_g0_rotated.json,http://54.211.221.249/DepthDuration/v2_depth_discrimination_MTurk/v2_DepthDiscrim_HTML.html#3,3,1349,625,1366,768,8-2-2021,9-48-20,199,,,,,,,1879,505,1004,1005,999,488,,3,2,depth_discrimination_stimuli/001815_2014-06-26_20-52-55_260595134347_rgbf000020-resize_0/001815_2014-06-26_20-52-55_260595134347_rgbf000020-resize-original.jpg,7330,1238030,1392337,46
133786,DepthScenes,v2_duration_discrimination,discrim_jsons/shuffled_g0_rotated.json,http://54.211.221.249/DepthDuration/v2_depth_discrimination_MTurk/v2_DepthDiscrim_HTML.html#3,3,1349,625,1366,768,8-2-2021,9-48-20,200,,,,,,,1879,505,1004,1005,999,488,,3,2,depth_discrimination_stimuli/000780_2014-06-08_22-28-29_260595134347_rgbf000126-resize_1/000780_2014-06-08_22-28-29_260595134347_rgbf000126-resize-original.jpg,3000,1238030,1392337,46
133786,DepthScenes,v2_duration_discrimination,discrim_jsons/shuffled_g0_rotated.json,http://54.211.221.249/DepthDuration/v2_depth_discrimination_MTurk/v2_DepthDiscrim_HTML.html#3,3,1349,625,1366,768,8-2-2021,9-48-20,201,,,,,,,1879,505,1004,1005,999,488,,3,1,depth_discrimination_stimuli/000742_2014-06-08_18-48-09_260595134347_rgbf000164-resize_4/000742_2014-06-08_18-48-09_260595134347_rgbf000164-resize-original.jpg,4459,1238030,1392337,46
133786,DepthScenes,v2_duration_discrimination,discrim_jsons/shuffled_g0_rotated.json,http://54.211.221.249/DepthDuration/v2_depth_discrimination_MTurk/v2_DepthDiscrim_HTML.html#3,3,1349,625,1366,768,8-2-2021,9-48-20,202,,,,,,,1879,505,1004,1005,999,488,,2,3,depth_discrimination_stimuli/001059_2014-06-08_21-53-27_260595134347_rgbf000061-resize_4/001059_2014-06-08_21-53-27_260595134347_rgbf000061-resize-original.jpg,3450,1238030,1392337,46
133786,DepthScenes,v2_duration_discrimination,discrim_jsons/shuffled_g0_rotated.json,http://54.211.221.249/DepthDuration/v2_depth_discrimination_MTurk/v2_DepthDiscrim_HTML.html#3,3,1349,625,1366,768,8-2-2021,9-48-20,203,,,,,,,1879,505,1004,1005,999,488,,3,2,depth_discrimination_stimuli/000740_2014-06-08_18-46-23_260595134347_rgbf000049-resize_6/000740_2014-06-08_18-46-23_260595134347_rgbf000049-resize-original.jpg,4964,1238030,1392337,46
133786,DepthScenes,v2_duration_discrimination,discrim_jsons/shuffled_g0_rotated.json,http://54.211.221.249/DepthDuration/v2_depth_discrimination_MTurk/v2_DepthDiscrim_HTML.html#3,3,1349,625,1366,768,8-2-2021,9-48-20,204,,,,,,,1879,505,1004,1005,999,488,,3,1,depth_discrimination_stimuli/000137_2014-05-20_17-04-49_260595134347_rgbf000120-resize_1/000137_2014-05-20_17-04-49_260595134347_rgbf000120-resize-original.jpg,5138,1238030,1392337,46
133786,DepthScenes,v2_duration_discrimination,discrim_jsons/shuffled_g0_rotated.json,http://54.211.221.249/DepthDuration/v2_depth_discrimination_MTurk/v2_DepthDiscrim_HTML.html#3,3,1349,625,1366,768,8-2-2021,9-48-20,205,,,,,,,1879,505,1004,1005,999,488,,4,3,depth_discrimination_stimuli/000191_2014-05-12_17-07-38_260595134347_rgbf000199-resize_0/000191_2014-05-12_17-07-38_260595134347_rgbf000199-resize-original.jpg,4476,1238030,1392337,46
133786,DepthScenes,v2_duration_discrimination,discrim_jsons/shuffled_g0_rotated.json,http://54.211.221.249/DepthDuration/v2_depth_discrimination_MTurk/v2_DepthDiscrim_HTML.html#3,3,1349,625,1366,768,8-2-2021,9-48-20,206,,,,,,,1879,505,1004,1005,999,488,,3,1,depth_discrimination_stimuli/003070_2014-06-15_14-58-27_094959634447_rgbf000150-resize_3/003070_2014-06-15_14-58-27_094959634447_rgbf000150-resize-original.jpg,4500,1238030,1392337,46
133786,DepthScenes,v2_duration_discrimination,discrim_jsons/shuffled_g0_rotated.json,http://54.211.221.249/DepthDuration/v2_depth_discrimination_MTurk/v2_DepthDiscrim_HTML.html#3,3,1349,625,1366,768,8-2-2021,9-48-20,207,,,,,,,1879,505,1004,1005,999,488,,3,1,depth_discrimination_stimuli/002630_2014-06-24_14-47-50_094959634447_rgbf000055-resize_1/002630_2014-06-24_14-47-50_094959634447_rgbf000055-resize-original.jpg,3283,1238030,1392337,46
133786,DepthScenes,v2_duration_discrimination,discrim_jsons/shuffled_g0_rotated.json,http://54.211.221.249/DepthDuration/v2_depth_discrimination_MTurk/v2_DepthDiscrim_HTML.html#3,3,1349,625,1366,768,8-2-2021,9-48-20,208,,,,,,,1879,505,1004,1005,999,488,,4,3,depth_discrimination_stimuli/003010_2014-06-15_12-54-35_094959634447_rgbf000112-resize_0/003010_2014-06-15_12-54-35_094959634447_rgbf000112-resize-original.jpg,4138,1238030,1392337,46
133786,DepthScenes,v2_duration_discrimination,discrim_jsons/shuffled_g0_rotated.json,http://54.211.221.249/DepthDuration/v2_depth_discrimination_MTurk/v2_DepthDiscrim_HTML.html#3,3,1349,625,1366,768,8-2-2021,9-48-20,209,,,,,,,1879,505,1004,1005,999,488,,3,3,depth_discrimination_stimuli/002057_2014-06-24_21-00-13_260595134347_rgbf000120-resize_1/002057_2014-06-24_21-00-13_260595134347_rgbf000120-resize-original.jpg,3761,1238030,1392337,46
133786,DepthScenes,v2_duration_discrimination,discrim_jsons/shuffled_g0_rotated.json,http://54.211.221.249/DepthDuration/v2_depth_discrimination_MTurk/v2_DepthDiscrim_HTML.html#3,3,1349,625,1366,768,8-2-2021,9-48-20,210,,,,,,,1879,505,1004,1005,999,488,,3,3,depth_discrimination_stimuli/002365_2014-06-28_20-11-21_260595134347_rgbf000102-resize_1/002365_2014-06-28_20-11-21_260595134347_rgbf000102-resize-original.jpg,3553,1238030,1392337,46
