subjID,experimentName,versionName,sequenceName,url,selected_row,windowWidth,windowHeight,screenWidth,screenHeight,startDate,startTime,trial,stimulus_0,stimulus_1,duration,actual_depth_0,actual_depth_1,discrim_choice,trial_RT,log_fixation,log_sceneDuration1,log_mask1,log_sceneDuration2,log_mask2,unitSelection,meanDepth_rating,navigability_rating,rated_stimulus,rating_RT,experimentTime,totalTime,age
433727,DepthScenes,v2_duration_discrimination,discrim_jsons/shuffled_g0.json,http://54.211.221.249/DepthDuration/v2_depth_discrimination_MTurk/v2_DepthDiscrim_HTML.html#4,4,1518,853,1517,853,8-2-2021,8-54-26,1,depth_discrimination_stimuli/002043_2014-06-24_20-29-38_260595134347_rgbf000039-resize_4/002043_2014-06-24_20-29-38_260595134347_rgbf000039-resize_4-target.png,depth_discrimination_stimuli/001011_2014-06-08_23-18-54_260595134347_rgbf000044-resize_4/001011_2014-06-08_23-18-54_260595134347_rgbf000044-resize_4-target.png,250,2.8435,2.473,1,1172,500,249,1001,249,500,,,,,,933535,1078143,56
433727,DepthScenes,v2_duration_discrimination,discrim_jsons/shuffled_g0.json,http://54.211.221.249/DepthDuration/v2_depth_discrimination_MTurk/v2_DepthDiscrim_HTML.html#4,4,1518,853,1517,853,8-2-2021,8-54-26,2,depth_discrimination_stimuli/000953_2014-06-08_11-42-19_260595134347_rgbf000083-resize_0/000953_2014-06-08_11-42-19_260595134347_rgbf000083-resize_0-target.png,depth_discrimination_stimuli/000787_2014-06-08_22-33-53_260595134347_rgbf000175-resize_1/000787_2014-06-08_22-33-53_260595134347_rgbf000175-resize_1-target.png,250,1.369,4.784,0,7955,501,250,1000,249,500,,,,,,933535,1078143,56
433727,DepthScenes,v2_duration_discrimination,discrim_jsons/shuffled_g0.json,http://54.211.221.249/DepthDuration/v2_depth_discrimination_MTurk/v2_DepthDiscrim_HTML.html#4,4,1518,853,1517,853,8-2-2021,8-54-26,3,depth_discrimination_stimuli/003083_2014-06-15_15-21-03_094959634447_rgbf000063-resize_1/003083_2014-06-15_15-21-03_094959634447_rgbf000063-resize_1-target.png,depth_discrimination_stimuli/000742_2014-06-08_18-48-09_260595134347_rgbf000164-resize_4/000742_2014-06-08_18-48-09_260595134347_rgbf000164-resize_4-target.png,250,4.1405,4.632,0,1446,501,249,1000,249,500,,,,,,933535,1078143,56
433727,DepthScenes,v2_duration_discrimination,discrim_jsons/shuffled_g0.json,http://54.211.221.249/DepthDuration/v2_depth_discrimination_MTurk/v2_DepthDiscrim_HTML.html#4,4,1518,853,1517,853,8-2-2021,8-54-26,4,depth_discrimination_stimuli/001092_2014-06-15_17-34-58_260595134347_rgbf000171-resize_3/001092_2014-06-15_17-34-58_260595134347_rgbf000171-resize_3-target.png,depth_discrimination_stimuli/000502_2014-06-08_23-02-32_260595134347_rgbf000063-resize_4/000502_2014-06-08_23-02-32_260595134347_rgbf000063-resize_4-target.png,1000,2.6935,2.431,1,1894,501,999,1000,1000,500,,,,,,933535,1078143,56
433727,DepthScenes,v2_duration_discrimination,discrim_jsons/shuffled_g0.json,http://54.211.221.249/DepthDuration/v2_depth_discrimination_MTurk/v2_DepthDiscrim_HTML.html#4,4,1518,853,1517,853,8-2-2021,8-54-26,5,depth_discrimination_stimuli/001532_2014-06-20_16-50-41_260595134347_rgbf000081-resize_4/001532_2014-06-20_16-50-41_260595134347_rgbf000081-resize_4-target.png,depth_discrimination_stimuli/000943_2014-06-09_19-31-07_260595134347_rgbf000128-resize_1/000943_2014-06-09_19-31-07_260595134347_rgbf000128-resize_1-target.png,1000,1.5758333333333,1.9765,0,3886,501,999,1001,999,500,,,,,,933535,1078143,56
433727,DepthScenes,v2_duration_discrimination,discrim_jsons/shuffled_g0.json,http://54.211.221.249/DepthDuration/v2_depth_discrimination_MTurk/v2_DepthDiscrim_HTML.html#4,4,1518,853,1517,853,8-2-2021,8-54-26,6,depth_discrimination_stimuli/002103_2014-06-25_20-00-40_260595134347_rgbf000049-resize_0/002103_2014-06-25_20-00-40_260595134347_rgbf000049-resize_0-target.png,depth_discrimination_stimuli/002444_2014-06-28_20-32-08_260595134347_rgbf000027-resize_0/002444_2014-06-28_20-32-08_260595134347_rgbf000027-resize_0-target.png,250,4.105,4.389,0,1947,501,249,1000,249,500,,,,,,933535,1078143,56
433727,DepthScenes,v2_duration_discrimination,discrim_jsons/shuffled_g0.json,http://54.211.221.249/DepthDuration/v2_depth_discrimination_MTurk/v2_DepthDiscrim_HTML.html#4,4,1518,853,1517,853,8-2-2021,8-54-26,7,depth_discrimination_stimuli/000800_2014-06-08_22-42-09_260595134347_rgbf000095-resize_3/000800_2014-06-08_22-42-09_260595134347_rgbf000095-resize_3-target.png,depth_discrimination_stimuli/000869_2014-06-09_20-50-18_260595134347_rgbf000060-resize_3/000869_2014-06-09_20-50-18_260595134347_rgbf000060-resize_3-target.png,1000,2.8,2.266,1,1862,501,999,1000,999,500,,,,,,933535,1078143,56
433727,DepthScenes,v2_duration_discrimination,discrim_jsons/shuffled_g0.json,http://54.211.221.249/DepthDuration/v2_depth_discrimination_MTurk/v2_DepthDiscrim_HTML.html#4,4,1518,853,1517,853,8-2-2021,8-54-26,8,depth_discrimination_stimuli/001618_2014-06-20_11-37-31_260595134347_rgbf000027-resize_3/001618_2014-06-20_11-37-31_260595134347_rgbf000027-resize_3-target.png,depth_discrimination_stimuli/000109_2014-05-14_23-41-52_260595134347_rgbf000035-resize_9/000109_2014-05-14_23-41-52_260595134347_rgbf000035-resize_9-target.png,250,1.8725,1.3545,0,1860,500,249,1000,248,500,,,,,,933535,1078143,56
433727,DepthScenes,v2_duration_discrimination,discrim_jsons/shuffled_g0.json,http://54.211.221.249/DepthDuration/v2_depth_discrimination_MTurk/v2_DepthDiscrim_HTML.html#4,4,1518,853,1517,853,8-2-2021,8-54-26,9,depth_discrimination_stimuli/000454_2014-06-08_16-37-28_260595134347_rgbf000048-resize_2/000454_2014-06-08_16-37-28_260595134347_rgbf000048-resize_2-target.png,depth_discrimination_stimuli/000375_2014-06-08_11-17-29_260595134347_rgbf000133-resize_2/000375_2014-06-08_11-17-29_260595134347_rgbf000133-resize_2-target.png,1000,1.213,4.718,0,2016,501,999,1000,999,500,,,,,,933535,1078143,56
433727,DepthScenes,v2_duration_discrimination,discrim_jsons/shuffled_g0.json,http://54.211.221.249/DepthDuration/v2_depth_discrimination_MTurk/v2_DepthDiscrim_HTML.html#4,4,1518,853,1517,853,8-2-2021,8-54-26,10,depth_discrimination_stimuli/000749_2014-06-08_21-55-06_260595134347_rgbf000070-resize_2/000749_2014-06-08_21-55-06_260595134347_rgbf000070-resize_2-target.png,depth_discrimination_stimuli/001056_2014-06-08_18-46-44_260595134347_rgbf000068-resize_0/001056_2014-06-08_18-46-44_260595134347_rgbf000068-resize_0-target.png,1000,2.331,2.6625,0,1729,501,999,1000,999,500,,,,,,933535,1078143,56
433727,DepthScenes,v2_duration_discrimination,discrim_jsons/shuffled_g0.json,http://54.211.221.249/DepthDuration/v2_depth_discrimination_MTurk/v2_DepthDiscrim_HTML.html#4,4,1518,853,1517,853,8-2-2021,8-54-26,11,depth_discrimination_stimuli/002199_2014-06-28_18-33-56_260595134347_rgbf000074-resize_0/002199_2014-06-28_18-33-56_260595134347_rgbf000074-resize_0-target.png,depth_discrimination_stimuli/001016_2014-06-09_16-16-10_260595134347_rgbf000112-resize_5/001016_2014-06-09_16-16-10_260595134347_rgbf000112-resize_5-target.png,250,1.996,1.6565,1,1487,501,248,1000,250,500,,,,,,933535,1078143,56
433727,DepthScenes,v2_duration_discrimination,discrim_jsons/shuffled_g0.json,http://54.211.221.249/DepthDuration/v2_depth_discrimination_MTurk/v2_DepthDiscrim_HTML.html#4,4,1518,853,1517,853,8-2-2021,8-54-26,12,depth_discrimination_stimuli/002118_2014-06-25_20-32-08_260595134347_rgbf000078-resize_1/002118_2014-06-25_20-32-08_260595134347_rgbf000078-resize_1-target.png,depth_discrimination_stimuli/001164_2014-06-17_15-35-46_260595134347_rgbf000085-resize_3/001164_2014-06-17_15-35-46_260595134347_rgbf000085-resize_3-target.png,1000,2.646,2.354,0,1959,501,999,1000,1000,499,,,,,,933535,1078143,56
433727,DepthScenes,v2_duration_discrimination,discrim_jsons/shuffled_g0.json,http://54.211.221.249/DepthDuration/v2_depth_discrimination_MTurk/v2_DepthDiscrim_HTML.html#4,4,1518,853,1517,853,8-2-2021,8-54-26,13,depth_discrimination_stimuli/002953_2014-06-08_17-32-18_094959634447_rgbf000059-resize_5/002953_2014-06-08_17-32-18_094959634447_rgbf000059-resize_5-target.png,depth_discrimination_stimuli/000470_2014-06-09_19-42-40_260595134347_rgbf000094-resize_1/000470_2014-06-09_19-42-40_260595134347_rgbf000094-resize_1-target.png,250,1.551,1.831,1,1682,500,249,1001,250,500,,,,,,933535,1078143,56
433727,DepthScenes,v2_duration_discrimination,discrim_jsons/shuffled_g0.json,http://54.211.221.249/DepthDuration/v2_depth_discrimination_MTurk/v2_DepthDiscrim_HTML.html#4,4,1518,853,1517,853,8-2-2021,8-54-26,14,depth_discrimination_stimuli/000929_2014-06-09_16-33-19_260595134347_rgbf000139-resize_0/000929_2014-06-09_16-33-19_260595134347_rgbf000139-resize_0-target.png,depth_discrimination_stimuli/001055_2014-06-08_18-45-35_260595134347_rgbf000111-resize_4/001055_2014-06-08_18-45-35_260595134347_rgbf000111-resize_4-target.png,1000,2.868,2.429,0,2109,501,999,1000,999,500,,,,,,933535,1078143,56
433727,DepthScenes,v2_duration_discrimination,discrim_jsons/shuffled_g0.json,http://54.211.221.249/DepthDuration/v2_depth_discrimination_MTurk/v2_DepthDiscrim_HTML.html#4,4,1518,853,1517,853,8-2-2021,8-54-26,15,depth_discrimination_stimuli/000493_2014-06-09_21-01-18_260595134347_rgbf000196-resize_3/000493_2014-06-09_21-01-18_260595134347_rgbf000196-resize_3-target.png,depth_discrimination_stimuli/000409_2014-06-04_19-23-33_260595134347_rgbf000067-resize_0/000409_2014-06-04_19-23-33_260595134347_rgbf000067-resize_0-target.png,250,3.44,3.7335,0,1405,501,249,1000,249,501,,,,,,933535,1078143,56
433727,DepthScenes,v2_duration_discrimination,discrim_jsons/shuffled_g0.json,http://54.211.221.249/DepthDuration/v2_depth_discrimination_MTurk/v2_DepthDiscrim_HTML.html#4,4,1518,853,1517,853,8-2-2021,8-54-26,16,depth_discrimination_stimuli/000569_2014-06-09_22-51-47_260595134347_rgbf000141-resize_3/000569_2014-06-09_22-51-47_260595134347_rgbf000141-resize_3-target.png,depth_discrimination_stimuli/000868_2014-06-09_20-49-52_260595134347_rgbf000064-resize_4/000868_2014-06-09_20-49-52_260595134347_rgbf000064-resize_4-target.png,250,4.512,1.2815,1,1695,501,250,1000,249,500,,,,,,933535,1078143,56
433727,DepthScenes,v2_duration_discrimination,discrim_jsons/shuffled_g0.json,http://54.211.221.249/DepthDuration/v2_depth_discrimination_MTurk/v2_DepthDiscrim_HTML.html#4,4,1518,853,1517,853,8-2-2021,8-54-26,17,depth_discrimination_stimuli/003587_2014-05-23_16-48-02_094959634447_rgbf002384-resize_2/003587_2014-05-23_16-48-02_094959634447_rgbf002384-resize_2-target.png,depth_discrimination_stimuli/000709_2014-06-08_13-51-55_260595134347_rgbf000068-resize_3/000709_2014-06-08_13-51-55_260595134347_rgbf000068-resize_3-target.png,1000,1.357,1.803,0,5044,500,999,1000,999,500,,,,,,933535,1078143,56
433727,DepthScenes,v2_duration_discrimination,discrim_jsons/shuffled_g0.json,http://54.211.221.249/DepthDuration/v2_depth_discrimination_MTurk/v2_DepthDiscrim_HTML.html#4,4,1518,853,1517,853,8-2-2021,8-54-26,18,depth_discrimination_stimuli/002675_2014-06-13_16-08-49_094959634447_rgbf000151-resize_2/002675_2014-06-13_16-08-49_094959634447_rgbf000151-resize_2-target.png,depth_discrimination_stimuli/001222_2014-06-17_16-24-06_260595134347_rgbf000073-resize_0/001222_2014-06-17_16-24-06_260595134347_rgbf000073-resize_0-target.png,1000,4.5065,1.4385,1,3015,501,999,1000,999,500,,,,,,933535,1078143,56
433727,DepthScenes,v2_duration_discrimination,discrim_jsons/shuffled_g0.json,http://54.211.221.249/DepthDuration/v2_depth_discrimination_MTurk/v2_DepthDiscrim_HTML.html#4,4,1518,853,1517,853,8-2-2021,8-54-26,19,depth_discrimination_stimuli/002340_2014-06-28_20-05-46_260595134347_rgbf000113-resize_0/002340_2014-06-28_20-05-46_260595134347_rgbf000113-resize_0-target.png,depth_discrimination_stimuli/002905_2014-06-03_18-04-43_094959634447_rgbf000151-resize_2/002905_2014-06-03_18-04-43_094959634447_rgbf000151-resize_2-target.png,1000,2.4735,2.0295,0,1880,501,999,1000,999,500,,,,,,933535,1078143,56
433727,DepthScenes,v2_duration_discrimination,discrim_jsons/shuffled_g0.json,http://54.211.221.249/DepthDuration/v2_depth_discrimination_MTurk/v2_DepthDiscrim_HTML.html#4,4,1518,853,1517,853,8-2-2021,8-54-26,20,depth_discrimination_stimuli/000691_2014-06-08_13-08-50_260595134347_rgbf000132-resize_3/000691_2014-06-08_13-08-50_260595134347_rgbf000132-resize_3-target.png,depth_discrimination_stimuli/002039_2014-06-24_20-22-38_260595134347_rgbf000084-resize_1/002039_2014-06-24_20-22-38_260595134347_rgbf000084-resize_1-target.png,1000,4.153,4.408,0,4038,501,999,1000,999,500,,,,,,933535,1078143,56
433727,DepthScenes,v2_duration_discrimination,discrim_jsons/shuffled_g0.json,http://54.211.221.249/DepthDuration/v2_depth_discrimination_MTurk/v2_DepthDiscrim_HTML.html#4,4,1518,853,1517,853,8-2-2021,8-54-26,21,depth_discrimination_stimuli/000549_2014-06-08_22-10-24_260595134347_rgbf000247-resize_3/000549_2014-06-08_22-10-24_260595134347_rgbf000247-resize_3-target.png,depth_discrimination_stimuli/002509_2014-06-24_13-19-22_094959634447_rgbf000077-resize_0/002509_2014-06-24_13-19-22_094959634447_rgbf000077-resize_0-target.png,1000,1.841,1.3065,1,1923,500,999,1000,999,500,,,,,,933535,1078143,56
433727,DepthScenes,v2_duration_discrimination,discrim_jsons/shuffled_g0.json,http://54.211.221.249/DepthDuration/v2_depth_discrimination_MTurk/v2_DepthDiscrim_HTML.html#4,4,1518,853,1517,853,8-2-2021,8-54-26,22,depth_discrimination_stimuli/003495_2014-05-21_16-01-51_094959634447_rgbf000100-resize_3/003495_2014-05-21_16-01-51_094959634447_rgbf000100-resize_3-target.png,depth_discrimination_stimuli/002949_2014-06-26_15-57-42_094959634447_rgbf000079-resize_1/002949_2014-06-26_15-57-42_094959634447_rgbf000079-resize_1-target.png,250,1.6255,1.8915,0,1336,501,249,1000,249,500,,,,,,933535,1078143,56
433727,DepthScenes,v2_duration_discrimination,discrim_jsons/shuffled_g0.json,http://54.211.221.249/DepthDuration/v2_depth_discrimination_MTurk/v2_DepthDiscrim_HTML.html#4,4,1518,853,1517,853,8-2-2021,8-54-26,23,depth_discrimination_stimuli/001498_2014-06-19_17-45-14_260595134347_rgbf000129-resize_4/001498_2014-06-19_17-45-14_260595134347_rgbf000129-resize_4-target.png,depth_discrimination_stimuli/003125_2014-05-12_10-39-22_094959634447_rgbf000100-resize_0/003125_2014-05-12_10-39-22_094959634447_rgbf000100-resize_0-target.png,1000,1.4075,4.8655,0,3942,501,999,1000,999,500,,,,,,933535,1078143,56
433727,DepthScenes,v2_duration_discrimination,discrim_jsons/shuffled_g0.json,http://54.211.221.249/DepthDuration/v2_depth_discrimination_MTurk/v2_DepthDiscrim_HTML.html#4,4,1518,853,1517,853,8-2-2021,8-54-26,24,depth_discrimination_stimuli/003490_2014-05-21_15-50-11_094959634447_rgbf000101-resize_3/003490_2014-05-21_15-50-11_094959634447_rgbf000101-resize_3-target.png,depth_discrimination_stimuli/000866_2014-06-09_20-45-42_260595134347_rgbf000139-resize_1/000866_2014-06-09_20-45-42_260595134347_rgbf000139-resize_1-target.png,1000,3.6445,3.2155,0,2571,501,998,1000,999,500,,,,,,933535,1078143,56
433727,DepthScenes,v2_duration_discrimination,discrim_jsons/shuffled_g0.json,http://54.211.221.249/DepthDuration/v2_depth_discrimination_MTurk/v2_DepthDiscrim_HTML.html#4,4,1518,853,1517,853,8-2-2021,8-54-26,25,depth_discrimination_stimuli/002072_2014-06-24_21-48-06_260595134347_rgbf000115-resize_0/002072_2014-06-24_21-48-06_260595134347_rgbf000115-resize_0-target.png,depth_discrimination_stimuli/001012_2014-06-08_23-19-38_260595134347_rgbf000057-resize_0/001012_2014-06-08_23-19-38_260595134347_rgbf000057-resize_0-target.png,250,4.702,1.38325,0,1676,501,250,1000,250,500,,,,,,933535,1078143,56
433727,DepthScenes,v2_duration_discrimination,discrim_jsons/shuffled_g0.json,http://54.211.221.249/DepthDuration/v2_depth_discrimination_MTurk/v2_DepthDiscrim_HTML.html#4,4,1518,853,1517,853,8-2-2021,8-54-26,26,depth_discrimination_stimuli/002805_2014-06-22_19-54-03_094959634447_rgbf000079-resize_1/002805_2014-06-22_19-54-03_094959634447_rgbf000079-resize_1-target.png,depth_discrimination_stimuli/001584_2014-06-20_11-07-43_260595134347_rgbf000002-resize_1/001584_2014-06-20_11-07-43_260595134347_rgbf000002-resize_1-target.png,250,3.144,3.53,1,788,501,250,1000,250,500,,,,,,933535,1078143,56
433727,DepthScenes,v2_duration_discrimination,discrim_jsons/shuffled_g0.json,http://54.211.221.249/DepthDuration/v2_depth_discrimination_MTurk/v2_DepthDiscrim_HTML.html#4,4,1518,853,1517,853,8-2-2021,8-54-26,27,depth_discrimination_stimuli/003292_2014-05-14_21-53-49_094959634447_rgbf000100-resize_2/003292_2014-05-14_21-53-49_094959634447_rgbf000100-resize_2-target.png,depth_discrimination_stimuli/000542_2014-06-08_18-27-08_260595134347_rgbf000118-resize_1/000542_2014-06-08_18-27-08_260595134347_rgbf000118-resize_1-target.png,1000,3.4815,3,0,2122,501,999,1000,999,500,,,,,,933535,1078143,56
433727,DepthScenes,v2_duration_discrimination,discrim_jsons/shuffled_g0.json,http://54.211.221.249/DepthDuration/v2_depth_discrimination_MTurk/v2_DepthDiscrim_HTML.html#4,4,1518,853,1517,853,8-2-2021,8-54-26,28,depth_discrimination_stimuli/002549_2014-06-24_13-41-39_094959634447_rgbf000022-resize_3/002549_2014-06-24_13-41-39_094959634447_rgbf000022-resize_3-target.png,depth_discrimination_stimuli/001136_2014-06-17_15-19-41_260595134347_rgbf000076-resize_3/001136_2014-06-17_15-19-41_260595134347_rgbf000076-resize_3-target.png,1000,1.476,1.8655,1,1751,500,999,1000,999,500,,,,,,933535,1078143,56
433727,DepthScenes,v2_duration_discrimination,discrim_jsons/shuffled_g0.json,http://54.211.221.249/DepthDuration/v2_depth_discrimination_MTurk/v2_DepthDiscrim_HTML.html#4,4,1518,853,1517,853,8-2-2021,8-54-26,29,depth_discrimination_stimuli/000556_2014-06-09_22-42-56_260595134347_rgbf000214-resize_1/000556_2014-06-09_22-42-56_260595134347_rgbf000214-resize_1-target.png,depth_discrimination_stimuli/001148_2014-06-17_15-26-42_260595134347_rgbf000129-resize_0/001148_2014-06-17_15-26-42_260595134347_rgbf000129-resize_0-target.png,1000,4.8415,4.368,0,1868,501,999,1000,999,500,,,,,,933535,1078143,56
433727,DepthScenes,v2_duration_discrimination,discrim_jsons/shuffled_g0.json,http://54.211.221.249/DepthDuration/v2_depth_discrimination_MTurk/v2_DepthDiscrim_HTML.html#4,4,1518,853,1517,853,8-2-2021,8-54-26,30,depth_discrimination_stimuli/001450_2014-06-19_17-02-03_260595134347_rgbf000203-resize_4/001450_2014-06-19_17-02-03_260595134347_rgbf000203-resize_4-target.png,depth_discrimination_stimuli/002414_2014-06-28_20-24-58_260595134347_rgbf000067-resize_4/002414_2014-06-28_20-24-58_260595134347_rgbf000067-resize_4-target.png,250,4.0106666666667,4.363,0,1479,501,250,1000,250,500,,,,,,933535,1078143,56
433727,DepthScenes,v2_duration_discrimination,discrim_jsons/shuffled_g0.json,http://54.211.221.249/DepthDuration/v2_depth_discrimination_MTurk/v2_DepthDiscrim_HTML.html#4,4,1518,853,1517,853,8-2-2021,8-54-26,31,depth_discrimination_stimuli/000927_2014-06-09_16-32-30_260595134347_rgbf000123-resize_3/000927_2014-06-09_16-32-30_260595134347_rgbf000123-resize_3-target.png,depth_discrimination_stimuli/002678_2014-06-13_16-15-32_094959634447_rgbf000151-resize_6/002678_2014-06-13_16-15-32_094959634447_rgbf000151-resize_6-target.png,250,2.6785,2.183,1,1398,501,249,1000,249,500,,,,,,933535,1078143,56
433727,DepthScenes,v2_duration_discrimination,discrim_jsons/shuffled_g0.json,http://54.211.221.249/DepthDuration/v2_depth_discrimination_MTurk/v2_DepthDiscrim_HTML.html#4,4,1518,853,1517,853,8-2-2021,8-54-26,32,depth_discrimination_stimuli/003423_2014-05-21_10-23-26_094959634447_rgbf002665-resize_2/003423_2014-05-21_10-23-26_094959634447_rgbf002665-resize_2-target.png,depth_discrimination_stimuli/000137_2014-05-20_17-04-49_260595134347_rgbf000120-resize_1/000137_2014-05-20_17-04-49_260595134347_rgbf000120-resize_1-target.png,250,3.2575,3.786,0,1724,500,249,1000,249,500,,,,,,933535,1078143,56
433727,DepthScenes,v2_duration_discrimination,discrim_jsons/shuffled_g0.json,http://54.211.221.249/DepthDuration/v2_depth_discrimination_MTurk/v2_DepthDiscrim_HTML.html#4,4,1518,853,1517,853,8-2-2021,8-54-26,33,depth_discrimination_stimuli/001158_2014-06-17_15-32-16_260595134347_rgbf000138-resize_2/001158_2014-06-17_15-32-16_260595134347_rgbf000138-resize_2-target.png,depth_discrimination_stimuli/001181_2014-06-17_15-50-57_260595134347_rgbf000106-resize_4/001181_2014-06-17_15-50-57_260595134347_rgbf000106-resize_4-target.png,250,4.5315,4.149,0,1524,501,249,1000,248,500,,,,,,933535,1078143,56
433727,DepthScenes,v2_duration_discrimination,discrim_jsons/shuffled_g0.json,http://54.211.221.249/DepthDuration/v2_depth_discrimination_MTurk/v2_DepthDiscrim_HTML.html#4,4,1518,853,1517,853,8-2-2021,8-54-26,34,depth_discrimination_stimuli/002467_2014-06-28_20-38-07_260595134347_rgbf000026-resize_2/002467_2014-06-28_20-38-07_260595134347_rgbf000026-resize_2-target.png,depth_discrimination_stimuli/001133_2014-06-17_14-49-16_260595134347_rgbf000100-resize_0/001133_2014-06-17_14-49-16_260595134347_rgbf000100-resize_0-target.png,250,4.742,4.2115,1,1307,501,249,1000,249,500,,,,,,933535,1078143,56
433727,DepthScenes,v2_duration_discrimination,discrim_jsons/shuffled_g0.json,http://54.211.221.249/DepthDuration/v2_depth_discrimination_MTurk/v2_DepthDiscrim_HTML.html#4,4,1518,853,1517,853,8-2-2021,8-54-26,35,depth_discrimination_stimuli/001197_2014-06-17_16-01-50_260595134347_rgbf000103-resize_4/001197_2014-06-17_16-01-50_260595134347_rgbf000103-resize_4-target.png,depth_discrimination_stimuli/001235_2014-06-17_16-37-36_260595134347_rgbf000084-resize_4/001235_2014-06-17_16-37-36_260595134347_rgbf000084-resize_4-target.png,250,3.4025,3.6605,0,1359,501,250,1000,248,500,,,,,,933535,1078143,56
433727,DepthScenes,v2_duration_discrimination,discrim_jsons/shuffled_g0.json,http://54.211.221.249/DepthDuration/v2_depth_discrimination_MTurk/v2_DepthDiscrim_HTML.html#4,4,1518,853,1517,853,8-2-2021,8-54-26,36,depth_discrimination_stimuli/001170_2014-06-17_15-43-44_260595134347_rgbf000096-resize_6/001170_2014-06-17_15-43-44_260595134347_rgbf000096-resize_6-target.png,depth_discrimination_stimuli/002364_2014-06-28_20-11-05_260595134347_rgbf000042-resize_0/002364_2014-06-28_20-11-05_260595134347_rgbf000042-resize_0-target.png,250,1.191,4.682,0,1209,501,249,1000,249,500,,,,,,933535,1078143,56
433727,DepthScenes,v2_duration_discrimination,discrim_jsons/shuffled_g0.json,http://54.211.221.249/DepthDuration/v2_depth_discrimination_MTurk/v2_DepthDiscrim_HTML.html#4,4,1518,853,1517,853,8-2-2021,8-54-26,37,depth_discrimination_stimuli/002323_2014-06-28_20-01-54_260595134347_rgbf000051-resize_4/002323_2014-06-28_20-01-54_260595134347_rgbf000051-resize_4-target.png,depth_discrimination_stimuli/001032_2014-06-08_13-23-17_260595134347_rgbf000021-resize_3/001032_2014-06-08_13-23-17_260595134347_rgbf000021-resize_3-target.png,250,3.731,3.2725,1,1416,501,249,1000,249,500,,,,,,933535,1078143,56
433727,DepthScenes,v2_duration_discrimination,discrim_jsons/shuffled_g0.json,http://54.211.221.249/DepthDuration/v2_depth_discrimination_MTurk/v2_DepthDiscrim_HTML.html#4,4,1518,853,1517,853,8-2-2021,8-54-26,38,depth_discrimination_stimuli/001808_2014-06-26_20-50-58_260595134347_rgbf000029-resize_1/001808_2014-06-26_20-50-58_260595134347_rgbf000029-resize_1-target.png,depth_discrimination_stimuli/002748_2014-06-22_19-07-22_094959634447_rgbf000078-resize_1/002748_2014-06-22_19-07-22_094959634447_rgbf000078-resize_1-target.png,250,4.249,4.6705,1,2234,501,249,1000,249,500,,,,,,933535,1078143,56
433727,DepthScenes,v2_duration_discrimination,discrim_jsons/shuffled_g0.json,http://54.211.221.249/DepthDuration/v2_depth_discrimination_MTurk/v2_DepthDiscrim_HTML.html#4,4,1518,853,1517,853,8-2-2021,8-54-26,39,depth_discrimination_stimuli/002660_2014-06-13_15-44-18_094959634447_rgbf001878-resize_2/002660_2014-06-13_15-44-18_094959634447_rgbf001878-resize_2-target.png,depth_discrimination_stimuli/003081_2014-06-15_15-19-16_094959634447_rgbf000150-resize_1/003081_2014-06-15_15-19-16_094959634447_rgbf000150-resize_1-target.png,1000,3.576,3.9125,1,1970,501,999,1000,999,500,,,,,,933535,1078143,56
433727,DepthScenes,v2_duration_discrimination,discrim_jsons/shuffled_g0.json,http://54.211.221.249/DepthDuration/v2_depth_discrimination_MTurk/v2_DepthDiscrim_HTML.html#4,4,1518,853,1517,853,8-2-2021,8-54-26,40,depth_discrimination_stimuli/003395_2014-05-20_15-39-18_094959634447_rgbf000101-resize_0/003395_2014-05-20_15-39-18_094959634447_rgbf000101-resize_0-target.png,depth_discrimination_stimuli/001540_2014-06-20_17-01-05_260595134347_rgbf000086-resize_2/001540_2014-06-20_17-01-05_260595134347_rgbf000086-resize_2-target.png,1000,4.835,1.459,0,1795,501,999,1000,999,500,,,,,,933535,1078143,56
433727,DepthScenes,v2_duration_discrimination,discrim_jsons/shuffled_g0.json,http://54.211.221.249/DepthDuration/v2_depth_discrimination_MTurk/v2_DepthDiscrim_HTML.html#4,4,1518,853,1517,853,8-2-2021,8-54-26,40,,,,,,,1795,501,999,1000,999,500,,,,,,933535,1078143,56
433727,DepthScenes,v2_duration_discrimination,discrim_jsons/shuffled_g0.json,http://54.211.221.249/DepthDuration/v2_depth_discrimination_MTurk/v2_DepthDiscrim_HTML.html#4,4,1518,853,1517,853,8-2-2021,8-54-26,42,,,,,,,1795,501,999,1000,999,500,,2,3,depth_discrimination_stimuli/001570_2014-06-20_17-21-09_260595134347_rgbf000135-resize_4/001570_2014-06-20_17-21-09_260595134347_rgbf000135-resize-original.jpg,13945,933535,1078143,56
433727,DepthScenes,v2_duration_discrimination,discrim_jsons/shuffled_g0.json,http://54.211.221.249/DepthDuration/v2_depth_discrimination_MTurk/v2_DepthDiscrim_HTML.html#4,4,1518,853,1517,853,8-2-2021,8-54-26,43,,,,,,,1795,501,999,1000,999,500,,3,4,depth_discrimination_stimuli/000457_2014-06-08_16-52-43_260595134347_rgbf000199-resize_1/000457_2014-06-08_16-52-43_260595134347_rgbf000199-resize-original.jpg,11357,933535,1078143,56
433727,DepthScenes,v2_duration_discrimination,discrim_jsons/shuffled_g0.json,http://54.211.221.249/DepthDuration/v2_depth_discrimination_MTurk/v2_DepthDiscrim_HTML.html#4,4,1518,853,1517,853,8-2-2021,8-54-26,44,,,,,,,1795,501,999,1000,999,500,,2,5,depth_discrimination_stimuli/002570_2014-06-24_13-59-54_094959634447_rgbf000059-resize_0/002570_2014-06-24_13-59-54_094959634447_rgbf000059-resize-original.jpg,8837,933535,1078143,56
433727,DepthScenes,v2_duration_discrimination,discrim_jsons/shuffled_g0.json,http://54.211.221.249/DepthDuration/v2_depth_discrimination_MTurk/v2_DepthDiscrim_HTML.html#4,4,1518,853,1517,853,8-2-2021,8-54-26,45,,,,,,,1795,501,999,1000,999,500,,3,2,depth_discrimination_stimuli/000692_2014-06-08_13-09-42_260595134347_rgbf000199-resize_2/000692_2014-06-08_13-09-42_260595134347_rgbf000199-resize-original.jpg,6905,933535,1078143,56
433727,DepthScenes,v2_duration_discrimination,discrim_jsons/shuffled_g0.json,http://54.211.221.249/DepthDuration/v2_depth_discrimination_MTurk/v2_DepthDiscrim_HTML.html#4,4,1518,853,1517,853,8-2-2021,8-54-26,46,,,,,,,1795,501,999,1000,999,500,,4,2,depth_discrimination_stimuli/002425_2014-06-28_20-27-29_260595134347_rgbf000031-resize_8/002425_2014-06-28_20-27-29_260595134347_rgbf000031-resize-original.jpg,9273,933535,1078143,56
433727,DepthScenes,v2_duration_discrimination,discrim_jsons/shuffled_g0.json,http://54.211.221.249/DepthDuration/v2_depth_discrimination_MTurk/v2_DepthDiscrim_HTML.html#4,4,1518,853,1517,853,8-2-2021,8-54-26,47,,,,,,,1795,501,999,1000,999,500,,4,5,depth_discrimination_stimuli/001392_2014-06-19_16-07-59_260595134347_rgbf000046-resize_1/001392_2014-06-19_16-07-59_260595134347_rgbf000046-resize-original.jpg,8810,933535,1078143,56
433727,DepthScenes,v2_duration_discrimination,discrim_jsons/shuffled_g0.json,http://54.211.221.249/DepthDuration/v2_depth_discrimination_MTurk/v2_DepthDiscrim_HTML.html#4,4,1518,853,1517,853,8-2-2021,8-54-26,48,,,,,,,1795,501,999,1000,999,500,,4,3,depth_discrimination_stimuli/001650_2014-06-20_12-09-00_260595134347_rgbf000087-resize_3/001650_2014-06-20_12-09-00_260595134347_rgbf000087-resize-original.jpg,7140,933535,1078143,56
433727,DepthScenes,v2_duration_discrimination,discrim_jsons/shuffled_g0.json,http://54.211.221.249/DepthDuration/v2_depth_discrimination_MTurk/v2_DepthDiscrim_HTML.html#4,4,1518,853,1517,853,8-2-2021,8-54-26,49,,,,,,,1795,501,999,1000,999,500,,4,4,depth_discrimination_stimuli/000542_2014-06-08_18-27-08_260595134347_rgbf000118-resize_1/000542_2014-06-08_18-27-08_260595134347_rgbf000118-resize-original.jpg,8534,933535,1078143,56
433727,DepthScenes,v2_duration_discrimination,discrim_jsons/shuffled_g0.json,http://54.211.221.249/DepthDuration/v2_depth_discrimination_MTurk/v2_DepthDiscrim_HTML.html#4,4,1518,853,1517,853,8-2-2021,8-54-26,50,,,,,,,1795,501,999,1000,999,500,,2,1,depth_discrimination_stimuli/003338_2014-05-20_11-01-23_094959634447_rgbf000051-resize_6/003338_2014-05-20_11-01-23_094959634447_rgbf000051-resize-original.jpg,6546,933535,1078143,56
433727,DepthScenes,v2_duration_discrimination,discrim_jsons/shuffled_g0.json,http://54.211.221.249/DepthDuration/v2_depth_discrimination_MTurk/v2_DepthDiscrim_HTML.html#4,4,1518,853,1517,853,8-2-2021,8-54-26,51,,,,,,,1795,501,999,1000,999,500,,2,1,depth_discrimination_stimuli/002987_2014-06-08_18-48-20_094959634447_rgbf000022-resize_0/002987_2014-06-08_18-48-20_094959634447_rgbf000022-resize-original.jpg,3084,933535,1078143,56
433727,DepthScenes,v2_duration_discrimination,discrim_jsons/shuffled_g0.json,http://54.211.221.249/DepthDuration/v2_depth_discrimination_MTurk/v2_DepthDiscrim_HTML.html#4,4,1518,853,1517,853,8-2-2021,8-54-26,52,,,,,,,1795,501,999,1000,999,500,,4,4,depth_discrimination_stimuli/003083_2014-06-15_15-21-03_094959634447_rgbf000063-resize_1/003083_2014-06-15_15-21-03_094959634447_rgbf000063-resize-original.jpg,4624,933535,1078143,56
433727,DepthScenes,v2_duration_discrimination,discrim_jsons/shuffled_g0.json,http://54.211.221.249/DepthDuration/v2_depth_discrimination_MTurk/v2_DepthDiscrim_HTML.html#4,4,1518,853,1517,853,8-2-2021,8-54-26,53,,,,,,,1795,501,999,1000,999,500,,2,2,depth_discrimination_stimuli/001447_2014-06-19_17-00-32_260595134347_rgbf000082-resize_5/001447_2014-06-19_17-00-32_260595134347_rgbf000082-resize-original.jpg,5512,933535,1078143,56
433727,DepthScenes,v2_duration_discrimination,discrim_jsons/shuffled_g0.json,http://54.211.221.249/DepthDuration/v2_depth_discrimination_MTurk/v2_DepthDiscrim_HTML.html#4,4,1518,853,1517,853,8-2-2021,8-54-26,54,,,,,,,1795,501,999,1000,999,500,,2,2,depth_discrimination_stimuli/002323_2014-06-28_20-01-54_260595134347_rgbf000051-resize_4/002323_2014-06-28_20-01-54_260595134347_rgbf000051-resize-original.jpg,4831,933535,1078143,56
433727,DepthScenes,v2_duration_discrimination,discrim_jsons/shuffled_g0.json,http://54.211.221.249/DepthDuration/v2_depth_discrimination_MTurk/v2_DepthDiscrim_HTML.html#4,4,1518,853,1517,853,8-2-2021,8-54-26,55,,,,,,,1795,501,999,1000,999,500,,3,3,depth_discrimination_stimuli/003423_2014-05-21_10-23-26_094959634447_rgbf002665-resize_2/003423_2014-05-21_10-23-26_094959634447_rgbf002665-resize-original.jpg,3808,933535,1078143,56
433727,DepthScenes,v2_duration_discrimination,discrim_jsons/shuffled_g0.json,http://54.211.221.249/DepthDuration/v2_depth_discrimination_MTurk/v2_DepthDiscrim_HTML.html#4,4,1518,853,1517,853,8-2-2021,8-54-26,56,,,,,,,1795,501,999,1000,999,500,,2,1,depth_discrimination_stimuli/001055_2014-06-08_18-45-35_260595134347_rgbf000111-resize_4/001055_2014-06-08_18-45-35_260595134347_rgbf000111-resize-original.jpg,4308,933535,1078143,56
433727,DepthScenes,v2_duration_discrimination,discrim_jsons/shuffled_g0.json,http://54.211.221.249/DepthDuration/v2_depth_discrimination_MTurk/v2_DepthDiscrim_HTML.html#4,4,1518,853,1517,853,8-2-2021,8-54-26,57,,,,,,,1795,501,999,1000,999,500,,3,3,depth_discrimination_stimuli/000830_2014-06-04_19-49-31_260595134347_rgbf000096-resize_2/000830_2014-06-04_19-49-31_260595134347_rgbf000096-resize-original.jpg,2771,933535,1078143,56
433727,DepthScenes,v2_duration_discrimination,discrim_jsons/shuffled_g0.json,http://54.211.221.249/DepthDuration/v2_depth_discrimination_MTurk/v2_DepthDiscrim_HTML.html#4,4,1518,853,1517,853,8-2-2021,8-54-26,58,,,,,,,1795,501,999,1000,999,500,,2,3,depth_discrimination_stimuli/001150_2014-06-17_15-27-34_260595134347_rgbf000108-resize_2/001150_2014-06-17_15-27-34_260595134347_rgbf000108-resize-original.jpg,4119,933535,1078143,56
433727,DepthScenes,v2_duration_discrimination,discrim_jsons/shuffled_g0.json,http://54.211.221.249/DepthDuration/v2_depth_discrimination_MTurk/v2_DepthDiscrim_HTML.html#4,4,1518,853,1517,853,8-2-2021,8-54-26,59,,,,,,,1795,501,999,1000,999,500,,2,1,depth_discrimination_stimuli/002272_2014-06-28_18-53-56_260595134347_rgbf000067-resize_2/002272_2014-06-28_18-53-56_260595134347_rgbf000067-resize-original.jpg,3259,933535,1078143,56
433727,DepthScenes,v2_duration_discrimination,discrim_jsons/shuffled_g0.json,http://54.211.221.249/DepthDuration/v2_depth_discrimination_MTurk/v2_DepthDiscrim_HTML.html#4,4,1518,853,1517,853,8-2-2021,8-54-26,60,,,,,,,1795,501,999,1000,999,500,,2,2,depth_discrimination_stimuli/001059_2014-06-08_21-53-27_260595134347_rgbf000061-resize_4/001059_2014-06-08_21-53-27_260595134347_rgbf000061-resize-original.jpg,4525,933535,1078143,56
433727,DepthScenes,v2_duration_discrimination,discrim_jsons/shuffled_g0.json,http://54.211.221.249/DepthDuration/v2_depth_discrimination_MTurk/v2_DepthDiscrim_HTML.html#4,4,1518,853,1517,853,8-2-2021,8-54-26,61,,,,,,,1795,501,999,1000,999,500,,3,3,depth_discrimination_stimuli/001188_2014-06-17_15-54-10_260595134347_rgbf000090-resize_2/001188_2014-06-17_15-54-10_260595134347_rgbf000090-resize-original.jpg,2451,933535,1078143,56
433727,DepthScenes,v2_duration_discrimination,discrim_jsons/shuffled_g0.json,http://54.211.221.249/DepthDuration/v2_depth_discrimination_MTurk/v2_DepthDiscrim_HTML.html#4,4,1518,853,1517,853,8-2-2021,8-54-26,62,,,,,,,1795,501,999,1000,999,500,,2,1,depth_discrimination_stimuli/001066_2014-06-08_22-03-20_260595134347_rgbf000066-resize_4/001066_2014-06-08_22-03-20_260595134347_rgbf000066-resize-original.jpg,4816,933535,1078143,56
433727,DepthScenes,v2_duration_discrimination,discrim_jsons/shuffled_g0.json,http://54.211.221.249/DepthDuration/v2_depth_discrimination_MTurk/v2_DepthDiscrim_HTML.html#4,4,1518,853,1517,853,8-2-2021,8-54-26,63,,,,,,,1795,501,999,1000,999,500,,2,2,depth_discrimination_stimuli/001555_2014-06-20_17-12-10_260595134347_rgbf000065-resize_4/001555_2014-06-20_17-12-10_260595134347_rgbf000065-resize-original.jpg,2506,933535,1078143,56
433727,DepthScenes,v2_duration_discrimination,discrim_jsons/shuffled_g0.json,http://54.211.221.249/DepthDuration/v2_depth_discrimination_MTurk/v2_DepthDiscrim_HTML.html#4,4,1518,853,1517,853,8-2-2021,8-54-26,64,,,,,,,1795,501,999,1000,999,500,,2,2,depth_discrimination_stimuli/000788_2014-06-08_22-34-36_260595134347_rgbf000131-resize_1/000788_2014-06-08_22-34-36_260595134347_rgbf000131-resize-original.jpg,2317,933535,1078143,56
433727,DepthScenes,v2_duration_discrimination,discrim_jsons/shuffled_g0.json,http://54.211.221.249/DepthDuration/v2_depth_discrimination_MTurk/v2_DepthDiscrim_HTML.html#4,4,1518,853,1517,853,8-2-2021,8-54-26,65,,,,,,,1795,501,999,1000,999,500,,3,4,depth_discrimination_stimuli/002663_2014-06-13_15-50-26_094959634447_rgbf000075-resize_1/002663_2014-06-13_15-50-26_094959634447_rgbf000075-resize-original.jpg,4222,933535,1078143,56
433727,DepthScenes,v2_duration_discrimination,discrim_jsons/shuffled_g0.json,http://54.211.221.249/DepthDuration/v2_depth_discrimination_MTurk/v2_DepthDiscrim_HTML.html#4,4,1518,853,1517,853,8-2-2021,8-54-26,66,,,,,,,1795,501,999,1000,999,500,,2,2,depth_discrimination_stimuli/000740_2014-06-08_18-46-23_260595134347_rgbf000049-resize_6/000740_2014-06-08_18-46-23_260595134347_rgbf000049-resize-original.jpg,2716,933535,1078143,56
433727,DepthScenes,v2_duration_discrimination,discrim_jsons/shuffled_g0.json,http://54.211.221.249/DepthDuration/v2_depth_discrimination_MTurk/v2_DepthDiscrim_HTML.html#4,4,1518,853,1517,853,8-2-2021,8-54-26,67,,,,,,,1795,501,999,1000,999,500,,1,1,depth_discrimination_stimuli/000758_2014-06-08_22-05-08_260595134347_rgbf000085-resize_0/000758_2014-06-08_22-05-08_260595134347_rgbf000085-resize-original.jpg,3284,933535,1078143,56
433727,DepthScenes,v2_duration_discrimination,discrim_jsons/shuffled_g0.json,http://54.211.221.249/DepthDuration/v2_depth_discrimination_MTurk/v2_DepthDiscrim_HTML.html#4,4,1518,853,1517,853,8-2-2021,8-54-26,68,,,,,,,1795,501,999,1000,999,500,,4,4,depth_discrimination_stimuli/001167_2014-06-17_15-38-07_260595134347_rgbf000108-resize_0/001167_2014-06-17_15-38-07_260595134347_rgbf000108-resize-original.jpg,4400,933535,1078143,56
433727,DepthScenes,v2_duration_discrimination,discrim_jsons/shuffled_g0.json,http://54.211.221.249/DepthDuration/v2_depth_discrimination_MTurk/v2_DepthDiscrim_HTML.html#4,4,1518,853,1517,853,8-2-2021,8-54-26,69,,,,,,,1795,501,999,1000,999,500,,4,4,depth_discrimination_stimuli/001808_2014-06-26_20-50-58_260595134347_rgbf000029-resize_1/001808_2014-06-26_20-50-58_260595134347_rgbf000029-resize-original.jpg,2891,933535,1078143,56
433727,DepthScenes,v2_duration_discrimination,discrim_jsons/shuffled_g0.json,http://54.211.221.249/DepthDuration/v2_depth_discrimination_MTurk/v2_DepthDiscrim_HTML.html#4,4,1518,853,1517,853,8-2-2021,8-54-26,70,,,,,,,1795,501,999,1000,999,500,,3,3,depth_discrimination_stimuli/000739_2014-06-08_18-45-58_260595134347_rgbf000068-resize_1/000739_2014-06-08_18-45-58_260595134347_rgbf000068-resize-original.jpg,3260,933535,1078143,56
433727,DepthScenes,v2_duration_discrimination,discrim_jsons/shuffled_g0.json,http://54.211.221.249/DepthDuration/v2_depth_discrimination_MTurk/v2_DepthDiscrim_HTML.html#4,4,1518,853,1517,853,8-2-2021,8-54-26,71,,,,,,,1795,501,999,1000,999,500,,2,2,depth_discrimination_stimuli/003079_2014-06-15_15-18-20_094959634447_rgbf000152-resize_8/003079_2014-06-15_15-18-20_094959634447_rgbf000152-resize-original.jpg,3325,933535,1078143,56
433727,DepthScenes,v2_duration_discrimination,discrim_jsons/shuffled_g0.json,http://54.211.221.249/DepthDuration/v2_depth_discrimination_MTurk/v2_DepthDiscrim_HTML.html#4,4,1518,853,1517,853,8-2-2021,8-54-26,72,,,,,,,1795,501,999,1000,999,500,,3,4,depth_discrimination_stimuli/000493_2014-06-09_21-01-18_260595134347_rgbf000196-resize_3/000493_2014-06-09_21-01-18_260595134347_rgbf000196-resize-original.jpg,4151,933535,1078143,56
433727,DepthScenes,v2_duration_discrimination,discrim_jsons/shuffled_g0.json,http://54.211.221.249/DepthDuration/v2_depth_discrimination_MTurk/v2_DepthDiscrim_HTML.html#4,4,1518,853,1517,853,8-2-2021,8-54-26,73,,,,,,,1795,501,999,1000,999,500,,3,4,depth_discrimination_stimuli/000854_2014-06-09_19-43-13_260595134347_rgbf000066-resize_0/000854_2014-06-09_19-43-13_260595134347_rgbf000066-resize-original.jpg,2627,933535,1078143,56
433727,DepthScenes,v2_duration_discrimination,discrim_jsons/shuffled_g0.json,http://54.211.221.249/DepthDuration/v2_depth_discrimination_MTurk/v2_DepthDiscrim_HTML.html#4,4,1518,853,1517,853,8-2-2021,8-54-26,74,,,,,,,1795,501,999,1000,999,500,,4,4,depth_discrimination_stimuli/003129_2014-05-12_10-48-10_094959634447_rgbf000100-resize_0/003129_2014-05-12_10-48-10_094959634447_rgbf000100-resize-original.jpg,2357,933535,1078143,56
433727,DepthScenes,v2_duration_discrimination,discrim_jsons/shuffled_g0.json,http://54.211.221.249/DepthDuration/v2_depth_discrimination_MTurk/v2_DepthDiscrim_HTML.html#4,4,1518,853,1517,853,8-2-2021,8-54-26,75,,,,,,,1795,501,999,1000,999,500,,4,4,depth_discrimination_stimuli/000691_2014-06-08_13-08-50_260595134347_rgbf000132-resize_3/000691_2014-06-08_13-08-50_260595134347_rgbf000132-resize-original.jpg,3573,933535,1078143,56
433727,DepthScenes,v2_duration_discrimination,discrim_jsons/shuffled_g0.json,http://54.211.221.249/DepthDuration/v2_depth_discrimination_MTurk/v2_DepthDiscrim_HTML.html#4,4,1518,853,1517,853,8-2-2021,8-54-26,76,,,,,,,1795,501,999,1000,999,500,,2,2,depth_discrimination_stimuli/001011_2014-06-08_23-18-54_260595134347_rgbf000044-resize_4/001011_2014-06-08_23-18-54_260595134347_rgbf000044-resize-original.jpg,3421,933535,1078143,56
433727,DepthScenes,v2_duration_discrimination,discrim_jsons/shuffled_g0.json,http://54.211.221.249/DepthDuration/v2_depth_discrimination_MTurk/v2_DepthDiscrim_HTML.html#4,4,1518,853,1517,853,8-2-2021,8-54-26,77,,,,,,,1795,501,999,1000,999,500,,2,2,depth_discrimination_stimuli/000642_2014-06-08_16-59-25_260595134347_rgbf000098-resize_2/000642_2014-06-08_16-59-25_260595134347_rgbf000098-resize-original.jpg,2154,933535,1078143,56
433727,DepthScenes,v2_duration_discrimination,discrim_jsons/shuffled_g0.json,http://54.211.221.249/DepthDuration/v2_depth_discrimination_MTurk/v2_DepthDiscrim_HTML.html#4,4,1518,853,1517,853,8-2-2021,8-54-26,78,,,,,,,1795,501,999,1000,999,500,,3,4,depth_discrimination_stimuli/002057_2014-06-24_21-00-13_260595134347_rgbf000120-resize_1/002057_2014-06-24_21-00-13_260595134347_rgbf000120-resize-original.jpg,4568,933535,1078143,56
433727,DepthScenes,v2_duration_discrimination,discrim_jsons/shuffled_g0.json,http://54.211.221.249/DepthDuration/v2_depth_discrimination_MTurk/v2_DepthDiscrim_HTML.html#4,4,1518,853,1517,853,8-2-2021,8-54-26,79,,,,,,,1795,501,999,1000,999,500,,2,2,depth_discrimination_stimuli/002700_2014-06-22_11-27-02_094959634447_rgbf000124-resize_3/002700_2014-06-22_11-27-02_094959634447_rgbf000124-resize-original.jpg,2756,933535,1078143,56
433727,DepthScenes,v2_duration_discrimination,discrim_jsons/shuffled_g0.json,http://54.211.221.249/DepthDuration/v2_depth_discrimination_MTurk/v2_DepthDiscrim_HTML.html#4,4,1518,853,1517,853,8-2-2021,8-54-26,80,,,,,,,1795,501,999,1000,999,500,,2,2,depth_discrimination_stimuli/002630_2014-06-24_14-47-50_094959634447_rgbf000055-resize_1/002630_2014-06-24_14-47-50_094959634447_rgbf000055-resize-original.jpg,3719,933535,1078143,56
433727,DepthScenes,v2_duration_discrimination,discrim_jsons/shuffled_g0.json,http://54.211.221.249/DepthDuration/v2_depth_discrimination_MTurk/v2_DepthDiscrim_HTML.html#4,4,1518,853,1517,853,8-2-2021,8-54-26,81,,,,,,,1795,501,999,1000,999,500,,3,4,depth_discrimination_stimuli/000103_2014-05-14_22-01-17_260595134347_rgbf000152-resize_5/000103_2014-05-14_22-01-17_260595134347_rgbf000152-resize-original.jpg,4487,933535,1078143,56
433727,DepthScenes,v2_duration_discrimination,discrim_jsons/shuffled_g0.json,http://54.211.221.249/DepthDuration/v2_depth_discrimination_MTurk/v2_DepthDiscrim_HTML.html#4,4,1518,853,1517,853,8-2-2021,8-54-26,82,,,,,,,1795,501,999,1000,999,500,,2,1,depth_discrimination_stimuli/003490_2014-05-21_15-50-11_094959634447_rgbf000101-resize_3/003490_2014-05-21_15-50-11_094959634447_rgbf000101-resize-original.jpg,3292,933535,1078143,56
433727,DepthScenes,v2_duration_discrimination,discrim_jsons/shuffled_g0.json,http://54.211.221.249/DepthDuration/v2_depth_discrimination_MTurk/v2_DepthDiscrim_HTML.html#4,4,1518,853,1517,853,8-2-2021,8-54-26,83,,,,,,,1795,501,999,1000,999,500,,2,1,depth_discrimination_stimuli/002039_2014-06-24_20-22-38_260595134347_rgbf000084-resize_1/002039_2014-06-24_20-22-38_260595134347_rgbf000084-resize-original.jpg,3334,933535,1078143,56
433727,DepthScenes,v2_duration_discrimination,discrim_jsons/shuffled_g0.json,http://54.211.221.249/DepthDuration/v2_depth_discrimination_MTurk/v2_DepthDiscrim_HTML.html#4,4,1518,853,1517,853,8-2-2021,8-54-26,84,,,,,,,1795,501,999,1000,999,500,,2,2,depth_discrimination_stimuli/003081_2014-06-15_15-19-16_094959634447_rgbf000150-resize_1/003081_2014-06-15_15-19-16_094959634447_rgbf000150-resize-original.jpg,4374,933535,1078143,56
433727,DepthScenes,v2_duration_discrimination,discrim_jsons/shuffled_g0.json,http://54.211.221.249/DepthDuration/v2_depth_discrimination_MTurk/v2_DepthDiscrim_HTML.html#4,4,1518,853,1517,853,8-2-2021,8-54-26,85,,,,,,,1795,501,999,1000,999,500,,2,1,depth_discrimination_stimuli/000368_2014-06-09_15-53-01_260595134347_rgbf000155-resize_2/000368_2014-06-09_15-53-01_260595134347_rgbf000155-resize-original.jpg,4102,933535,1078143,56
433727,DepthScenes,v2_duration_discrimination,discrim_jsons/shuffled_g0.json,http://54.211.221.249/DepthDuration/v2_depth_discrimination_MTurk/v2_DepthDiscrim_HTML.html#4,4,1518,853,1517,853,8-2-2021,8-54-26,86,,,,,,,1795,501,999,1000,999,500,,2,2,depth_discrimination_stimuli/000943_2014-06-09_19-31-07_260595134347_rgbf000128-resize_1/000943_2014-06-09_19-31-07_260595134347_rgbf000128-resize-original.jpg,2739,933535,1078143,56
433727,DepthScenes,v2_duration_discrimination,discrim_jsons/shuffled_g0.json,http://54.211.221.249/DepthDuration/v2_depth_discrimination_MTurk/v2_DepthDiscrim_HTML.html#4,4,1518,853,1517,853,8-2-2021,8-54-26,87,,,,,,,1795,501,999,1000,999,500,,2,1,depth_discrimination_stimuli/002460_2014-06-28_20-35-43_260595134347_rgbf000028-resize_4/002460_2014-06-28_20-35-43_260595134347_rgbf000028-resize-original.jpg,2997,933535,1078143,56
433727,DepthScenes,v2_duration_discrimination,discrim_jsons/shuffled_g0.json,http://54.211.221.249/DepthDuration/v2_depth_discrimination_MTurk/v2_DepthDiscrim_HTML.html#4,4,1518,853,1517,853,8-2-2021,8-54-26,88,,,,,,,1795,501,999,1000,999,500,,3,3,depth_discrimination_stimuli/001175_2014-06-17_15-45-55_260595134347_rgbf000129-resize_4/001175_2014-06-17_15-45-55_260595134347_rgbf000129-resize-original.jpg,2811,933535,1078143,56
433727,DepthScenes,v2_duration_discrimination,discrim_jsons/shuffled_g0.json,http://54.211.221.249/DepthDuration/v2_depth_discrimination_MTurk/v2_DepthDiscrim_HTML.html#4,4,1518,853,1517,853,8-2-2021,8-54-26,89,,,,,,,1795,501,999,1000,999,500,,2,1,depth_discrimination_stimuli/000773_2014-06-08_22-24-54_260595134347_rgbf000093-resize_1/000773_2014-06-08_22-24-54_260595134347_rgbf000093-resize-original.jpg,4321,933535,1078143,56
433727,DepthScenes,v2_duration_discrimination,discrim_jsons/shuffled_g0.json,http://54.211.221.249/DepthDuration/v2_depth_discrimination_MTurk/v2_DepthDiscrim_HTML.html#4,4,1518,853,1517,853,8-2-2021,8-54-26,90,,,,,,,1795,501,999,1000,999,500,,2,2,depth_discrimination_stimuli/000869_2014-06-09_20-50-18_260595134347_rgbf000060-resize_3/000869_2014-06-09_20-50-18_260595134347_rgbf000060-resize-original.jpg,3099,933535,1078143,56
433727,DepthScenes,v2_duration_discrimination,discrim_jsons/shuffled_g0.json,http://54.211.221.249/DepthDuration/v2_depth_discrimination_MTurk/v2_DepthDiscrim_HTML.html#4,4,1518,853,1517,853,8-2-2021,8-54-26,91,,,,,,,1795,501,999,1000,999,500,,2,3,depth_discrimination_stimuli/001164_2014-06-17_15-35-46_260595134347_rgbf000085-resize_3/001164_2014-06-17_15-35-46_260595134347_rgbf000085-resize-original.jpg,3703,933535,1078143,56
433727,DepthScenes,v2_duration_discrimination,discrim_jsons/shuffled_g0.json,http://54.211.221.249/DepthDuration/v2_depth_discrimination_MTurk/v2_DepthDiscrim_HTML.html#4,4,1518,853,1517,853,8-2-2021,8-54-26,92,,,,,,,1795,501,999,1000,999,500,,2,2,depth_discrimination_stimuli/001810_2014-06-26_20-51-35_260595134347_rgbf000040-resize_3/001810_2014-06-26_20-51-35_260595134347_rgbf000040-resize-original.jpg,2956,933535,1078143,56
433727,DepthScenes,v2_duration_discrimination,discrim_jsons/shuffled_g0.json,http://54.211.221.249/DepthDuration/v2_depth_discrimination_MTurk/v2_DepthDiscrim_HTML.html#4,4,1518,853,1517,853,8-2-2021,8-54-26,93,,,,,,,1795,501,999,1000,999,500,,3,4,depth_discrimination_stimuli/002305_2014-06-28_19-56-50_260595134347_rgbf000102-resize_7/002305_2014-06-28_19-56-50_260595134347_rgbf000102-resize-original.jpg,4104,933535,1078143,56
433727,DepthScenes,v2_duration_discrimination,discrim_jsons/shuffled_g0.json,http://54.211.221.249/DepthDuration/v2_depth_discrimination_MTurk/v2_DepthDiscrim_HTML.html#4,4,1518,853,1517,853,8-2-2021,8-54-26,94,,,,,,,1795,501,999,1000,999,500,,4,4,depth_discrimination_stimuli/002637_2014-06-24_14-51-13_094959634447_rgbf000066-resize_4/002637_2014-06-24_14-51-13_094959634447_rgbf000066-resize-original.jpg,4709,933535,1078143,56
433727,DepthScenes,v2_duration_discrimination,discrim_jsons/shuffled_g0.json,http://54.211.221.249/DepthDuration/v2_depth_discrimination_MTurk/v2_DepthDiscrim_HTML.html#4,4,1518,853,1517,853,8-2-2021,8-54-26,95,,,,,,,1795,501,999,1000,999,500,,4,4,depth_discrimination_stimuli/002549_2014-06-24_13-41-39_094959634447_rgbf000022-resize_3/002549_2014-06-24_13-41-39_094959634447_rgbf000022-resize-original.jpg,3133,933535,1078143,56
433727,DepthScenes,v2_duration_discrimination,discrim_jsons/shuffled_g0.json,http://54.211.221.249/DepthDuration/v2_depth_discrimination_MTurk/v2_DepthDiscrim_HTML.html#4,4,1518,853,1517,853,8-2-2021,8-54-26,96,,,,,,,1795,501,999,1000,999,500,,2,3,depth_discrimination_stimuli/002875_2014-06-01_15-19-00_094959634447_rgbf000151-resize_1/002875_2014-06-01_15-19-00_094959634447_rgbf000151-resize-original.jpg,4989,933535,1078143,56
433727,DepthScenes,v2_duration_discrimination,discrim_jsons/shuffled_g0.json,http://54.211.221.249/DepthDuration/v2_depth_discrimination_MTurk/v2_DepthDiscrim_HTML.html#4,4,1518,853,1517,853,8-2-2021,8-54-26,97,,,,,,,1795,501,999,1000,999,500,,3,4,depth_discrimination_stimuli/000556_2014-06-09_22-42-56_260595134347_rgbf000214-resize_1/000556_2014-06-09_22-42-56_260595134347_rgbf000214-resize-original.jpg,5921,933535,1078143,56
433727,DepthScenes,v2_duration_discrimination,discrim_jsons/shuffled_g0.json,http://54.211.221.249/DepthDuration/v2_depth_discrimination_MTurk/v2_DepthDiscrim_HTML.html#4,4,1518,853,1517,853,8-2-2021,8-54-26,98,,,,,,,1795,501,999,1000,999,500,,3,3,depth_discrimination_stimuli/000866_2014-06-09_20-45-42_260595134347_rgbf000139-resize_1/000866_2014-06-09_20-45-42_260595134347_rgbf000139-resize-original.jpg,2755,933535,1078143,56
433727,DepthScenes,v2_duration_discrimination,discrim_jsons/shuffled_g0.json,http://54.211.221.249/DepthDuration/v2_depth_discrimination_MTurk/v2_DepthDiscrim_HTML.html#4,4,1518,853,1517,853,8-2-2021,8-54-26,99,,,,,,,1795,501,999,1000,999,500,,3,4,depth_discrimination_stimuli/001100_2014-06-15_17-46-26_260595134347_rgbf000225-resize_2/001100_2014-06-15_17-46-26_260595134347_rgbf000225-resize-original.jpg,6353,933535,1078143,56
433727,DepthScenes,v2_duration_discrimination,discrim_jsons/shuffled_g0.json,http://54.211.221.249/DepthDuration/v2_depth_discrimination_MTurk/v2_DepthDiscrim_HTML.html#4,4,1518,853,1517,853,8-2-2021,8-54-26,100,,,,,,,1795,501,999,1000,999,500,,3,3,depth_discrimination_stimuli/002748_2014-06-22_19-07-22_094959634447_rgbf000078-resize_1/002748_2014-06-22_19-07-22_094959634447_rgbf000078-resize-original.jpg,2700,933535,1078143,56
433727,DepthScenes,v2_duration_discrimination,discrim_jsons/shuffled_g0.json,http://54.211.221.249/DepthDuration/v2_depth_discrimination_MTurk/v2_DepthDiscrim_HTML.html#4,4,1518,853,1517,853,8-2-2021,8-54-26,101,,,,,,,1795,501,999,1000,999,500,,2,2,depth_discrimination_stimuli/000720_2014-06-08_18-37-27_260595134347_rgbf000203-resize_4/000720_2014-06-08_18-37-27_260595134347_rgbf000203-resize-original.jpg,2819,933535,1078143,56
433727,DepthScenes,v2_duration_discrimination,discrim_jsons/shuffled_g0.json,http://54.211.221.249/DepthDuration/v2_depth_discrimination_MTurk/v2_DepthDiscrim_HTML.html#4,4,1518,853,1517,853,8-2-2021,8-54-26,102,,,,,,,1795,501,999,1000,999,500,,3,3,depth_discrimination_stimuli/000878_2014-06-08_22-52-45_260595134347_rgbf000045-resize_2/000878_2014-06-08_22-52-45_260595134347_rgbf000045-resize-original.jpg,3119,933535,1078143,56
433727,DepthScenes,v2_duration_discrimination,discrim_jsons/shuffled_g0.json,http://54.211.221.249/DepthDuration/v2_depth_discrimination_MTurk/v2_DepthDiscrim_HTML.html#4,4,1518,853,1517,853,8-2-2021,8-54-26,103,,,,,,,1795,501,999,1000,999,500,,3,4,depth_discrimination_stimuli/001029_2014-06-08_13-17-57_260595134347_rgbf000065-resize_1/001029_2014-06-08_13-17-57_260595134347_rgbf000065-resize-original.jpg,6808,933535,1078143,56
433727,DepthScenes,v2_duration_discrimination,discrim_jsons/shuffled_g0.json,http://54.211.221.249/DepthDuration/v2_depth_discrimination_MTurk/v2_DepthDiscrim_HTML.html#4,4,1518,853,1517,853,8-2-2021,8-54-26,104,,,,,,,1795,501,999,1000,999,500,,2,2,depth_discrimination_stimuli/002639_2014-06-24_14-51-37_094959634447_rgbf000074-resize_4/002639_2014-06-24_14-51-37_094959634447_rgbf000074-resize-original.jpg,2859,933535,1078143,56
433727,DepthScenes,v2_duration_discrimination,discrim_jsons/shuffled_g0.json,http://54.211.221.249/DepthDuration/v2_depth_discrimination_MTurk/v2_DepthDiscrim_HTML.html#4,4,1518,853,1517,853,8-2-2021,8-54-26,105,,,,,,,1795,501,999,1000,999,500,,3,4,depth_discrimination_stimuli/000665_2014-06-09_20-42-35_260595134347_rgbf000110-resize_1/000665_2014-06-09_20-42-35_260595134347_rgbf000110-resize-original.jpg,5241,933535,1078143,56
433727,DepthScenes,v2_duration_discrimination,discrim_jsons/shuffled_g0.json,http://54.211.221.249/DepthDuration/v2_depth_discrimination_MTurk/v2_DepthDiscrim_HTML.html#4,4,1518,853,1517,853,8-2-2021,8-54-26,106,,,,,,,1795,501,999,1000,999,500,,4,5,depth_discrimination_stimuli/002103_2014-06-25_20-00-40_260595134347_rgbf000049-resize_0/002103_2014-06-25_20-00-40_260595134347_rgbf000049-resize-original.jpg,8613,933535,1078143,56
433727,DepthScenes,v2_duration_discrimination,discrim_jsons/shuffled_g0.json,http://54.211.221.249/DepthDuration/v2_depth_discrimination_MTurk/v2_DepthDiscrim_HTML.html#4,4,1518,853,1517,853,8-2-2021,8-54-26,107,,,,,,,1795,501,999,1000,999,500,,3,2,depth_discrimination_stimuli/001056_2014-06-08_18-46-44_260595134347_rgbf000068-resize_0/001056_2014-06-08_18-46-44_260595134347_rgbf000068-resize-original.jpg,3949,933535,1078143,56
433727,DepthScenes,v2_duration_discrimination,discrim_jsons/shuffled_g0.json,http://54.211.221.249/DepthDuration/v2_depth_discrimination_MTurk/v2_DepthDiscrim_HTML.html#4,4,1518,853,1517,853,8-2-2021,8-54-26,108,,,,,,,1795,501,999,1000,999,500,,2,2,depth_discrimination_stimuli/000522_2014-06-08_13-35-06_260595134347_rgbf000244-resize_1/000522_2014-06-08_13-35-06_260595134347_rgbf000244-resize-original.jpg,4711,933535,1078143,56
433727,DepthScenes,v2_duration_discrimination,discrim_jsons/shuffled_g0.json,http://54.211.221.249/DepthDuration/v2_depth_discrimination_MTurk/v2_DepthDiscrim_HTML.html#4,4,1518,853,1517,853,8-2-2021,8-54-26,109,,,,,,,1795,501,999,1000,999,500,,3,3,depth_discrimination_stimuli/000800_2014-06-08_22-42-09_260595134347_rgbf000095-resize_3/000800_2014-06-08_22-42-09_260595134347_rgbf000095-resize-original.jpg,2764,933535,1078143,56
433727,DepthScenes,v2_duration_discrimination,discrim_jsons/shuffled_g0.json,http://54.211.221.249/DepthDuration/v2_depth_discrimination_MTurk/v2_DepthDiscrim_HTML.html#4,4,1518,853,1517,853,8-2-2021,8-54-26,110,,,,,,,1795,501,999,1000,999,500,,2,2,depth_discrimination_stimuli/002414_2014-06-28_20-24-58_260595134347_rgbf000067-resize_4/002414_2014-06-28_20-24-58_260595134347_rgbf000067-resize-original.jpg,3267,933535,1078143,56
433727,DepthScenes,v2_duration_discrimination,discrim_jsons/shuffled_g0.json,http://54.211.221.249/DepthDuration/v2_depth_discrimination_MTurk/v2_DepthDiscrim_HTML.html#4,4,1518,853,1517,853,8-2-2021,8-54-26,111,,,,,,,1795,501,999,1000,999,500,,2,2,depth_discrimination_stimuli/002209_2014-06-28_18-36-10_260595134347_rgbf000051-resize_1/002209_2014-06-28_18-36-10_260595134347_rgbf000051-resize-original.jpg,2420,933535,1078143,56
433727,DepthScenes,v2_duration_discrimination,discrim_jsons/shuffled_g0.json,http://54.211.221.249/DepthDuration/v2_depth_discrimination_MTurk/v2_DepthDiscrim_HTML.html#4,4,1518,853,1517,853,8-2-2021,8-54-26,112,,,,,,,1795,501,999,1000,999,500,,3,2,depth_discrimination_stimuli/000929_2014-06-09_16-33-19_260595134347_rgbf000139-resize_0/000929_2014-06-09_16-33-19_260595134347_rgbf000139-resize-original.jpg,4037,933535,1078143,56
433727,DepthScenes,v2_duration_discrimination,discrim_jsons/shuffled_g0.json,http://54.211.221.249/DepthDuration/v2_depth_discrimination_MTurk/v2_DepthDiscrim_HTML.html#4,4,1518,853,1517,853,8-2-2021,8-54-26,113,,,,,,,1795,501,999,1000,999,500,,2,1,depth_discrimination_stimuli/002790_2014-06-22_19-36-35_094959634447_rgbf000074-resize_4/002790_2014-06-22_19-36-35_094959634447_rgbf000074-resize-original.jpg,3967,933535,1078143,56
433727,DepthScenes,v2_duration_discrimination,discrim_jsons/shuffled_g0.json,http://54.211.221.249/DepthDuration/v2_depth_discrimination_MTurk/v2_DepthDiscrim_HTML.html#4,4,1518,853,1517,853,8-2-2021,8-54-26,114,,,,,,,1795,501,999,1000,999,500,,2,2,depth_discrimination_stimuli/001264_2014-06-16_16-10-23_260595134347_rgbf000109-resize_1/001264_2014-06-16_16-10-23_260595134347_rgbf000109-resize-original.jpg,2819,933535,1078143,56
433727,DepthScenes,v2_duration_discrimination,discrim_jsons/shuffled_g0.json,http://54.211.221.249/DepthDuration/v2_depth_discrimination_MTurk/v2_DepthDiscrim_HTML.html#4,4,1518,853,1517,853,8-2-2021,8-54-26,115,,,,,,,1795,501,999,1000,999,500,,2,2,depth_discrimination_stimuli/002989_2014-06-15_12-25-03_094959634447_rgbf000150-resize_3/002989_2014-06-15_12-25-03_094959634447_rgbf000150-resize-original.jpg,5296,933535,1078143,56
433727,DepthScenes,v2_duration_discrimination,discrim_jsons/shuffled_g0.json,http://54.211.221.249/DepthDuration/v2_depth_discrimination_MTurk/v2_DepthDiscrim_HTML.html#4,4,1518,853,1517,853,8-2-2021,8-54-26,116,,,,,,,1795,501,999,1000,999,500,,2,2,depth_discrimination_stimuli/000735_2014-06-08_18-23-50_260595134347_rgbf000163-resize_2/000735_2014-06-08_18-23-50_260595134347_rgbf000163-resize-original.jpg,3035,933535,1078143,56
433727,DepthScenes,v2_duration_discrimination,discrim_jsons/shuffled_g0.json,http://54.211.221.249/DepthDuration/v2_depth_discrimination_MTurk/v2_DepthDiscrim_HTML.html#4,4,1518,853,1517,853,8-2-2021,8-54-26,117,,,,,,,1795,501,999,1000,999,500,,3,4,depth_discrimination_stimuli/002545_2014-06-24_13-38-53_094959634447_rgbf000080-resize_4/002545_2014-06-24_13-38-53_094959634447_rgbf000080-resize-original.jpg,3934,933535,1078143,56
433727,DepthScenes,v2_duration_discrimination,discrim_jsons/shuffled_g0.json,http://54.211.221.249/DepthDuration/v2_depth_discrimination_MTurk/v2_DepthDiscrim_HTML.html#4,4,1518,853,1517,853,8-2-2021,8-54-26,118,,,,,,,1795,501,999,1000,999,500,,4,4,depth_discrimination_stimuli/001815_2014-06-26_20-52-55_260595134347_rgbf000020-resize_0/001815_2014-06-26_20-52-55_260595134347_rgbf000020-resize-original.jpg,3588,933535,1078143,56
433727,DepthScenes,v2_duration_discrimination,discrim_jsons/shuffled_g0.json,http://54.211.221.249/DepthDuration/v2_depth_discrimination_MTurk/v2_DepthDiscrim_HTML.html#4,4,1518,853,1517,853,8-2-2021,8-54-26,119,,,,,,,1795,501,999,1000,999,500,,4,4,depth_discrimination_stimuli/001094_2014-06-15_17-36-00_260595134347_rgbf000205-resize_0/001094_2014-06-15_17-36-00_260595134347_rgbf000205-resize-original.jpg,7137,933535,1078143,56
433727,DepthScenes,v2_duration_discrimination,discrim_jsons/shuffled_g0.json,http://54.211.221.249/DepthDuration/v2_depth_discrimination_MTurk/v2_DepthDiscrim_HTML.html#4,4,1518,853,1517,853,8-2-2021,8-54-26,120,,,,,,,1795,501,999,1000,999,500,,3,2,depth_discrimination_stimuli/000009_2014-05-26_14-32-05_260595134347_rgbf000034-resize_3/000009_2014-05-26_14-32-05_260595134347_rgbf000034-resize-original.jpg,4455,933535,1078143,56
433727,DepthScenes,v2_duration_discrimination,discrim_jsons/shuffled_g0.json,http://54.211.221.249/DepthDuration/v2_depth_discrimination_MTurk/v2_DepthDiscrim_HTML.html#4,4,1518,853,1517,853,8-2-2021,8-54-26,121,,,,,,,1795,501,999,1000,999,500,,1,1,depth_discrimination_stimuli/001417_2014-06-19_16-25-36_260595134347_rgbf000115-resize_5/001417_2014-06-19_16-25-36_260595134347_rgbf000115-resize-original.jpg,2491,933535,1078143,56
433727,DepthScenes,v2_duration_discrimination,discrim_jsons/shuffled_g0.json,http://54.211.221.249/DepthDuration/v2_depth_discrimination_MTurk/v2_DepthDiscrim_HTML.html#4,4,1518,853,1517,853,8-2-2021,8-54-26,122,,,,,,,1795,501,999,1000,999,500,,2,2,depth_discrimination_stimuli/002750_2014-06-22_19-08-03_094959634447_rgbf000094-resize_4/002750_2014-06-22_19-08-03_094959634447_rgbf000094-resize-original.jpg,2918,933535,1078143,56
433727,DepthScenes,v2_duration_discrimination,discrim_jsons/shuffled_g0.json,http://54.211.221.249/DepthDuration/v2_depth_discrimination_MTurk/v2_DepthDiscrim_HTML.html#4,4,1518,853,1517,853,8-2-2021,8-54-26,123,,,,,,,1795,501,999,1000,999,500,,1,1,scene_property_catch_stimuli/sun_aatxlublfjchvvzu.jpg,2549,933535,1078143,56
433727,DepthScenes,v2_duration_discrimination,discrim_jsons/shuffled_g0.json,http://54.211.221.249/DepthDuration/v2_depth_discrimination_MTurk/v2_DepthDiscrim_HTML.html#4,4,1518,853,1517,853,8-2-2021,8-54-26,124,,,,,,,1795,501,999,1000,999,500,,3,4,depth_discrimination_stimuli/001532_2014-06-20_16-50-41_260595134347_rgbf000081-resize_4/001532_2014-06-20_16-50-41_260595134347_rgbf000081-resize-original.jpg,5093,933535,1078143,56
433727,DepthScenes,v2_duration_discrimination,discrim_jsons/shuffled_g0.json,http://54.211.221.249/DepthDuration/v2_depth_discrimination_MTurk/v2_DepthDiscrim_HTML.html#4,4,1518,853,1517,853,8-2-2021,8-54-26,125,,,,,,,1795,501,999,1000,999,500,,2,2,depth_discrimination_stimuli/001450_2014-06-19_17-02-03_260595134347_rgbf000203-resize_4/001450_2014-06-19_17-02-03_260595134347_rgbf000203-resize-original.jpg,3461,933535,1078143,56
433727,DepthScenes,v2_duration_discrimination,discrim_jsons/shuffled_g0.json,http://54.211.221.249/DepthDuration/v2_depth_discrimination_MTurk/v2_DepthDiscrim_HTML.html#4,4,1518,853,1517,853,8-2-2021,8-54-26,126,,,,,,,1795,501,999,1000,999,500,,1,1,depth_discrimination_stimuli/002468_2014-06-28_20-38-39_260595134347_rgbf000045-resize_1/002468_2014-06-28_20-38-39_260595134347_rgbf000045-resize-original.jpg,2780,933535,1078143,56
433727,DepthScenes,v2_duration_discrimination,discrim_jsons/shuffled_g0.json,http://54.211.221.249/DepthDuration/v2_depth_discrimination_MTurk/v2_DepthDiscrim_HTML.html#4,4,1518,853,1517,853,8-2-2021,8-54-26,127,,,,,,,1795,501,999,1000,999,500,,3,4,depth_discrimination_stimuli/002153_2014-06-25_21-27-18_260595134347_rgbf000038-resize_5/002153_2014-06-25_21-27-18_260595134347_rgbf000038-resize-original.jpg,3588,933535,1078143,56
433727,DepthScenes,v2_duration_discrimination,discrim_jsons/shuffled_g0.json,http://54.211.221.249/DepthDuration/v2_depth_discrimination_MTurk/v2_DepthDiscrim_HTML.html#4,4,1518,853,1517,853,8-2-2021,8-54-26,128,,,,,,,1795,501,999,1000,999,500,,3,4,depth_discrimination_stimuli/001618_2014-06-20_11-37-31_260595134347_rgbf000027-resize_3/001618_2014-06-20_11-37-31_260595134347_rgbf000027-resize-original.jpg,7831,933535,1078143,56
433727,DepthScenes,v2_duration_discrimination,discrim_jsons/shuffled_g0.json,http://54.211.221.249/DepthDuration/v2_depth_discrimination_MTurk/v2_DepthDiscrim_HTML.html#4,4,1518,853,1517,853,8-2-2021,8-54-26,129,,,,,,,1795,501,999,1000,999,500,,4,5,depth_discrimination_stimuli/001449_2014-06-19_17-01-27_260595134347_rgbf000116-resize_2/001449_2014-06-19_17-01-27_260595134347_rgbf000116-resize-original.jpg,3063,933535,1078143,56
433727,DepthScenes,v2_duration_discrimination,discrim_jsons/shuffled_g0.json,http://54.211.221.249/DepthDuration/v2_depth_discrimination_MTurk/v2_DepthDiscrim_HTML.html#4,4,1518,853,1517,853,8-2-2021,8-54-26,130,,,,,,,1795,501,999,1000,999,500,,5,3,depth_discrimination_stimuli/000191_2014-05-12_17-07-38_260595134347_rgbf000199-resize_0/000191_2014-05-12_17-07-38_260595134347_rgbf000199-resize-original.jpg,5138,933535,1078143,56
433727,DepthScenes,v2_duration_discrimination,discrim_jsons/shuffled_g0.json,http://54.211.221.249/DepthDuration/v2_depth_discrimination_MTurk/v2_DepthDiscrim_HTML.html#4,4,1518,853,1517,853,8-2-2021,8-54-26,131,,,,,,,1795,501,999,1000,999,500,,4,5,depth_discrimination_stimuli/002805_2014-06-22_19-54-03_094959634447_rgbf000079-resize_1/002805_2014-06-22_19-54-03_094959634447_rgbf000079-resize-original.jpg,8356,933535,1078143,56
433727,DepthScenes,v2_duration_discrimination,discrim_jsons/shuffled_g0.json,http://54.211.221.249/DepthDuration/v2_depth_discrimination_MTurk/v2_DepthDiscrim_HTML.html#4,4,1518,853,1517,853,8-2-2021,8-54-26,132,,,,,,,1795,501,999,1000,999,500,,3,4,depth_discrimination_stimuli/000810_2014-06-08_17-20-01_260595134347_rgbf000105-resize_0/000810_2014-06-08_17-20-01_260595134347_rgbf000105-resize-original.jpg,3244,933535,1078143,56
433727,DepthScenes,v2_duration_discrimination,discrim_jsons/shuffled_g0.json,http://54.211.221.249/DepthDuration/v2_depth_discrimination_MTurk/v2_DepthDiscrim_HTML.html#4,4,1518,853,1517,853,8-2-2021,8-54-26,133,,,,,,,1795,501,999,1000,999,500,,3,2,depth_discrimination_stimuli/001032_2014-06-08_13-23-17_260595134347_rgbf000021-resize_3/001032_2014-06-08_13-23-17_260595134347_rgbf000021-resize-original.jpg,4101,933535,1078143,56
433727,DepthScenes,v2_duration_discrimination,discrim_jsons/shuffled_g0.json,http://54.211.221.249/DepthDuration/v2_depth_discrimination_MTurk/v2_DepthDiscrim_HTML.html#4,4,1518,853,1517,853,8-2-2021,8-54-26,134,,,,,,,1795,501,999,1000,999,500,,3,3,depth_discrimination_stimuli/000636_2014-06-08_16-39-02_260595134347_rgbf000108-resize_4/000636_2014-06-08_16-39-02_260595134347_rgbf000108-resize-original.jpg,3158,933535,1078143,56
433727,DepthScenes,v2_duration_discrimination,discrim_jsons/shuffled_g0.json,http://54.211.221.249/DepthDuration/v2_depth_discrimination_MTurk/v2_DepthDiscrim_HTML.html#4,4,1518,853,1517,853,8-2-2021,8-54-26,135,,,,,,,1795,501,999,1000,999,500,,4,4,depth_discrimination_stimuli/001133_2014-06-17_14-49-16_260595134347_rgbf000100-resize_0/001133_2014-06-17_14-49-16_260595134347_rgbf000100-resize-original.jpg,3091,933535,1078143,56
433727,DepthScenes,v2_duration_discrimination,discrim_jsons/shuffled_g0.json,http://54.211.221.249/DepthDuration/v2_depth_discrimination_MTurk/v2_DepthDiscrim_HTML.html#4,4,1518,853,1517,853,8-2-2021,8-54-26,136,,,,,,,1795,501,999,1000,999,500,,4,4,depth_discrimination_stimuli/000736_2014-06-08_18-24-15_260595134347_rgbf000206-resize_3/000736_2014-06-08_18-24-15_260595134347_rgbf000206-resize-original.jpg,4406,933535,1078143,56
433727,DepthScenes,v2_duration_discrimination,discrim_jsons/shuffled_g0.json,http://54.211.221.249/DepthDuration/v2_depth_discrimination_MTurk/v2_DepthDiscrim_HTML.html#4,4,1518,853,1517,853,8-2-2021,8-54-26,137,,,,,,,1795,501,999,1000,999,500,,2,2,depth_discrimination_stimuli/000734_2014-06-08_17-39-11_260595134347_rgbf000128-resize_2/000734_2014-06-08_17-39-11_260595134347_rgbf000128-resize-original.jpg,2948,933535,1078143,56
433727,DepthScenes,v2_duration_discrimination,discrim_jsons/shuffled_g0.json,http://54.211.221.249/DepthDuration/v2_depth_discrimination_MTurk/v2_DepthDiscrim_HTML.html#4,4,1518,853,1517,853,8-2-2021,8-54-26,138,,,,,,,1795,501,999,1000,999,500,,2,2,depth_discrimination_stimuli/002678_2014-06-13_16-15-32_094959634447_rgbf000151-resize_6/002678_2014-06-13_16-15-32_094959634447_rgbf000151-resize-original.jpg,2115,933535,1078143,56
433727,DepthScenes,v2_duration_discrimination,discrim_jsons/shuffled_g0.json,http://54.211.221.249/DepthDuration/v2_depth_discrimination_MTurk/v2_DepthDiscrim_HTML.html#4,4,1518,853,1517,853,8-2-2021,8-54-26,139,,,,,,,1795,501,999,1000,999,500,,1,1,depth_discrimination_stimuli/003069_2014-06-15_14-57-50_094959634447_rgbf000150-resize_4/003069_2014-06-15_14-57-50_094959634447_rgbf000150-resize-original.jpg,2356,933535,1078143,56
433727,DepthScenes,v2_duration_discrimination,discrim_jsons/shuffled_g0.json,http://54.211.221.249/DepthDuration/v2_depth_discrimination_MTurk/v2_DepthDiscrim_HTML.html#4,4,1518,853,1517,853,8-2-2021,8-54-26,140,,,,,,,1795,501,999,1000,999,500,,4,5,depth_discrimination_stimuli/000927_2014-06-09_16-32-30_260595134347_rgbf000123-resize_3/000927_2014-06-09_16-32-30_260595134347_rgbf000123-resize-original.jpg,3718,933535,1078143,56
433727,DepthScenes,v2_duration_discrimination,discrim_jsons/shuffled_g0.json,http://54.211.221.249/DepthDuration/v2_depth_discrimination_MTurk/v2_DepthDiscrim_HTML.html#4,4,1518,853,1517,853,8-2-2021,8-54-26,141,,,,,,,1795,501,999,1000,999,500,,5,5,depth_discrimination_stimuli/002600_2014-06-24_14-27-04_094959634447_rgbf000074-resize_2/002600_2014-06-24_14-27-04_094959634447_rgbf000074-resize-original.jpg,3420,933535,1078143,56
433727,DepthScenes,v2_duration_discrimination,discrim_jsons/shuffled_g0.json,http://54.211.221.249/DepthDuration/v2_depth_discrimination_MTurk/v2_DepthDiscrim_HTML.html#4,4,1518,853,1517,853,8-2-2021,8-54-26,142,,,,,,,1795,501,999,1000,999,500,,2,2,depth_discrimination_stimuli/000447_2014-06-08_16-15-46_260595134347_rgbf000130-resize_1/000447_2014-06-08_16-15-46_260595134347_rgbf000130-resize-original.jpg,3523,933535,1078143,56
433727,DepthScenes,v2_duration_discrimination,discrim_jsons/shuffled_g0.json,http://54.211.221.249/DepthDuration/v2_depth_discrimination_MTurk/v2_DepthDiscrim_HTML.html#4,4,1518,853,1517,853,8-2-2021,8-54-26,143,,,,,,,1795,501,999,1000,999,500,,1,1,depth_discrimination_stimuli/002445_2014-06-28_20-32-16_260595134347_rgbf000029-resize_4/002445_2014-06-28_20-32-16_260595134347_rgbf000029-resize-original.jpg,2813,933535,1078143,56
433727,DepthScenes,v2_duration_discrimination,discrim_jsons/shuffled_g0.json,http://54.211.221.249/DepthDuration/v2_depth_discrimination_MTurk/v2_DepthDiscrim_HTML.html#4,4,1518,853,1517,853,8-2-2021,8-54-26,144,,,,,,,1795,501,999,1000,999,500,,1,1,depth_discrimination_stimuli/000109_2014-05-14_23-41-52_260595134347_rgbf000035-resize_9/000109_2014-05-14_23-41-52_260595134347_rgbf000035-resize-original.jpg,2068,933535,1078143,56
433727,DepthScenes,v2_duration_discrimination,discrim_jsons/shuffled_g0.json,http://54.211.221.249/DepthDuration/v2_depth_discrimination_MTurk/v2_DepthDiscrim_HTML.html#4,4,1518,853,1517,853,8-2-2021,8-54-26,145,,,,,,,1795,501,999,1000,999,500,,4,4,depth_discrimination_stimuli/000506_2014-06-08_23-21-00_260595134347_rgbf000070-resize_7/000506_2014-06-08_23-21-00_260595134347_rgbf000070-resize-original.jpg,5650,933535,1078143,56
433727,DepthScenes,v2_duration_discrimination,discrim_jsons/shuffled_g0.json,http://54.211.221.249/DepthDuration/v2_depth_discrimination_MTurk/v2_DepthDiscrim_HTML.html#4,4,1518,853,1517,853,8-2-2021,8-54-26,146,,,,,,,1795,501,999,1000,999,500,,1,1,scene_property_catch_stimuli/sun_bpzzatthlcapxzol.jpg,2940,933535,1078143,56
433727,DepthScenes,v2_duration_discrimination,discrim_jsons/shuffled_g0.json,http://54.211.221.249/DepthDuration/v2_depth_discrimination_MTurk/v2_DepthDiscrim_HTML.html#4,4,1518,853,1517,853,8-2-2021,8-54-26,147,,,,,,,1795,501,999,1000,999,500,,4,5,depth_discrimination_stimuli/000502_2014-06-08_23-02-32_260595134347_rgbf000063-resize_4/000502_2014-06-08_23-02-32_260595134347_rgbf000063-resize-original.jpg,4212,933535,1078143,56
433727,DepthScenes,v2_duration_discrimination,discrim_jsons/shuffled_g0.json,http://54.211.221.249/DepthDuration/v2_depth_discrimination_MTurk/v2_DepthDiscrim_HTML.html#4,4,1518,853,1517,853,8-2-2021,8-54-26,148,,,,,,,1795,501,999,1000,999,500,,2,2,depth_discrimination_stimuli/003292_2014-05-14_21-53-49_094959634447_rgbf000100-resize_2/003292_2014-05-14_21-53-49_094959634447_rgbf000100-resize-original.jpg,2683,933535,1078143,56
433727,DepthScenes,v2_duration_discrimination,discrim_jsons/shuffled_g0.json,http://54.211.221.249/DepthDuration/v2_depth_discrimination_MTurk/v2_DepthDiscrim_HTML.html#4,4,1518,853,1517,853,8-2-2021,8-54-26,149,,,,,,,1795,501,999,1000,999,500,,4,5,depth_discrimination_stimuli/001584_2014-06-20_11-07-43_260595134347_rgbf000002-resize_1/001584_2014-06-20_11-07-43_260595134347_rgbf000002-resize-original.jpg,5016,933535,1078143,56
433727,DepthScenes,v2_duration_discrimination,discrim_jsons/shuffled_g0.json,http://54.211.221.249/DepthDuration/v2_depth_discrimination_MTurk/v2_DepthDiscrim_HTML.html#4,4,1518,853,1517,853,8-2-2021,8-54-26,150,,,,,,,1795,501,999,1000,999,500,,2,2,depth_discrimination_stimuli/000682_2014-06-08_23-14-58_260595134347_rgbf000041-resize_5/000682_2014-06-08_23-14-58_260595134347_rgbf000041-resize-original.jpg,4654,933535,1078143,56
433727,DepthScenes,v2_duration_discrimination,discrim_jsons/shuffled_g0.json,http://54.211.221.249/DepthDuration/v2_depth_discrimination_MTurk/v2_DepthDiscrim_HTML.html#4,4,1518,853,1517,853,8-2-2021,8-54-26,151,,,,,,,1795,501,999,1000,999,500,,3,4,depth_discrimination_stimuli/000709_2014-06-08_13-51-55_260595134347_rgbf000068-resize_3/000709_2014-06-08_13-51-55_260595134347_rgbf000068-resize-original.jpg,3286,933535,1078143,56
433727,DepthScenes,v2_duration_discrimination,discrim_jsons/shuffled_g0.json,http://54.211.221.249/DepthDuration/v2_depth_discrimination_MTurk/v2_DepthDiscrim_HTML.html#4,4,1518,853,1517,853,8-2-2021,8-54-26,152,,,,,,,1795,501,999,1000,999,500,,4,4,depth_discrimination_stimuli/001244_2014-06-17_16-47-45_260595134347_rgbf000030-resize_4/001244_2014-06-17_16-47-45_260595134347_rgbf000030-resize-original.jpg,4445,933535,1078143,56
433727,DepthScenes,v2_duration_discrimination,discrim_jsons/shuffled_g0.json,http://54.211.221.249/DepthDuration/v2_depth_discrimination_MTurk/v2_DepthDiscrim_HTML.html#4,4,1518,853,1517,853,8-2-2021,8-54-26,153,,,,,,,1795,501,999,1000,999,500,,5,5,depth_discrimination_stimuli/002365_2014-06-28_20-11-21_260595134347_rgbf000102-resize_1/002365_2014-06-28_20-11-21_260595134347_rgbf000102-resize-original.jpg,3134,933535,1078143,56
433727,DepthScenes,v2_duration_discrimination,discrim_jsons/shuffled_g0.json,http://54.211.221.249/DepthDuration/v2_depth_discrimination_MTurk/v2_DepthDiscrim_HTML.html#4,4,1518,853,1517,853,8-2-2021,8-54-26,154,,,,,,,1795,501,999,1000,999,500,,1,1,depth_discrimination_stimuli/003228_2014-05-14_13-42-35_094959634447_rgbf000101-resize_1/003228_2014-05-14_13-42-35_094959634447_rgbf000101-resize-original.jpg,2699,933535,1078143,56
433727,DepthScenes,v2_duration_discrimination,discrim_jsons/shuffled_g0.json,http://54.211.221.249/DepthDuration/v2_depth_discrimination_MTurk/v2_DepthDiscrim_HTML.html#4,4,1518,853,1517,853,8-2-2021,8-54-26,155,,,,,,,1795,501,999,1000,999,500,,2,2,depth_discrimination_stimuli/000483_2014-06-09_20-41-45_260595134347_rgbf000116-resize_4/000483_2014-06-09_20-41-45_260595134347_rgbf000116-resize-original.jpg,2893,933535,1078143,56
433727,DepthScenes,v2_duration_discrimination,discrim_jsons/shuffled_g0.json,http://54.211.221.249/DepthDuration/v2_depth_discrimination_MTurk/v2_DepthDiscrim_HTML.html#4,4,1518,853,1517,853,8-2-2021,8-54-26,156,,,,,,,1795,501,999,1000,999,500,,3,3,depth_discrimination_stimuli/000549_2014-06-08_22-10-24_260595134347_rgbf000247-resize_3/000549_2014-06-08_22-10-24_260595134347_rgbf000247-resize-original.jpg,3990,933535,1078143,56
433727,DepthScenes,v2_duration_discrimination,discrim_jsons/shuffled_g0.json,http://54.211.221.249/DepthDuration/v2_depth_discrimination_MTurk/v2_DepthDiscrim_HTML.html#4,4,1518,853,1517,853,8-2-2021,8-54-26,157,,,,,,,1795,501,999,1000,999,500,,2,2,depth_discrimination_stimuli/001110_2014-06-15_17-25-28_260595134347_rgbf000150-resize_1/001110_2014-06-15_17-25-28_260595134347_rgbf000150-resize-original.jpg,2082,933535,1078143,56
433727,DepthScenes,v2_duration_discrimination,discrim_jsons/shuffled_g0.json,http://54.211.221.249/DepthDuration/v2_depth_discrimination_MTurk/v2_DepthDiscrim_HTML.html#4,4,1518,853,1517,853,8-2-2021,8-54-26,158,,,,,,,1795,501,999,1000,999,500,,2,2,depth_discrimination_stimuli/000505_2014-06-08_23-03-23_260595134347_rgbf000091-resize_0/000505_2014-06-08_23-03-23_260595134347_rgbf000091-resize-original.jpg,2203,933535,1078143,56
433727,DepthScenes,v2_duration_discrimination,discrim_jsons/shuffled_g0.json,http://54.211.221.249/DepthDuration/v2_depth_discrimination_MTurk/v2_DepthDiscrim_HTML.html#4,4,1518,853,1517,853,8-2-2021,8-54-26,159,,,,,,,1795,501,999,1000,999,500,,1,1,depth_discrimination_stimuli/001158_2014-06-17_15-32-16_260595134347_rgbf000138-resize_2/001158_2014-06-17_15-32-16_260595134347_rgbf000138-resize-original.jpg,3139,933535,1078143,56
433727,DepthScenes,v2_duration_discrimination,discrim_jsons/shuffled_g0.json,http://54.211.221.249/DepthDuration/v2_depth_discrimination_MTurk/v2_DepthDiscrim_HTML.html#4,4,1518,853,1517,853,8-2-2021,8-54-26,160,,,,,,,1795,501,999,1000,999,500,,4,4,scene_property_catch_stimuli/sun_aoquhiddlfqapdlz.jpg,5539,933535,1078143,56
433727,DepthScenes,v2_duration_discrimination,discrim_jsons/shuffled_g0.json,http://54.211.221.249/DepthDuration/v2_depth_discrimination_MTurk/v2_DepthDiscrim_HTML.html#4,4,1518,853,1517,853,8-2-2021,8-54-26,161,,,,,,,1795,501,999,1000,999,500,,2,2,depth_discrimination_stimuli/000436_2014-06-09_22-25-11_260595134347_rgbf000137-resize_1/000436_2014-06-09_22-25-11_260595134347_rgbf000137-resize-original.jpg,2473,933535,1078143,56
433727,DepthScenes,v2_duration_discrimination,discrim_jsons/shuffled_g0.json,http://54.211.221.249/DepthDuration/v2_depth_discrimination_MTurk/v2_DepthDiscrim_HTML.html#4,4,1518,853,1517,853,8-2-2021,8-54-26,162,,,,,,,1795,501,999,1000,999,500,,1,1,depth_discrimination_stimuli/002199_2014-06-28_18-33-56_260595134347_rgbf000074-resize_0/002199_2014-06-28_18-33-56_260595134347_rgbf000074-resize-original.jpg,2300,933535,1078143,56
433727,DepthScenes,v2_duration_discrimination,discrim_jsons/shuffled_g0.json,http://54.211.221.249/DepthDuration/v2_depth_discrimination_MTurk/v2_DepthDiscrim_HTML.html#4,4,1518,853,1517,853,8-2-2021,8-54-26,163,,,,,,,1795,501,999,1000,999,500,,2,2,depth_discrimination_stimuli/003288_2014-05-14_21-50-30_094959634447_rgbf000028-resize_3/003288_2014-05-14_21-50-30_094959634447_rgbf000028-resize-original.jpg,2843,933535,1078143,56
433727,DepthScenes,v2_duration_discrimination,discrim_jsons/shuffled_g0.json,http://54.211.221.249/DepthDuration/v2_depth_discrimination_MTurk/v2_DepthDiscrim_HTML.html#4,4,1518,853,1517,853,8-2-2021,8-54-26,164,,,,,,,1795,501,999,1000,999,500,,1,1,depth_discrimination_stimuli/002509_2014-06-24_13-19-22_094959634447_rgbf000077-resize_0/002509_2014-06-24_13-19-22_094959634447_rgbf000077-resize-original.jpg,2026,933535,1078143,56
433727,DepthScenes,v2_duration_discrimination,discrim_jsons/shuffled_g0.json,http://54.211.221.249/DepthDuration/v2_depth_discrimination_MTurk/v2_DepthDiscrim_HTML.html#4,4,1518,853,1517,853,8-2-2021,8-54-26,165,,,,,,,1795,501,999,1000,999,500,,4,4,depth_discrimination_stimuli/002725_2014-06-22_11-47-51_094959634447_rgbf000070-resize_1/002725_2014-06-22_11-47-51_094959634447_rgbf000070-resize-original.jpg,2300,933535,1078143,56
433727,DepthScenes,v2_duration_discrimination,discrim_jsons/shuffled_g0.json,http://54.211.221.249/DepthDuration/v2_depth_discrimination_MTurk/v2_DepthDiscrim_HTML.html#4,4,1518,853,1517,853,8-2-2021,8-54-26,166,,,,,,,1795,501,999,1000,999,500,,4,5,depth_discrimination_stimuli/002905_2014-06-03_18-04-43_094959634447_rgbf000151-resize_2/002905_2014-06-03_18-04-43_094959634447_rgbf000151-resize-original.jpg,2667,933535,1078143,56
433727,DepthScenes,v2_duration_discrimination,discrim_jsons/shuffled_g0.json,http://54.211.221.249/DepthDuration/v2_depth_discrimination_MTurk/v2_DepthDiscrim_HTML.html#4,4,1518,853,1517,853,8-2-2021,8-54-26,167,,,,,,,1795,501,999,1000,999,500,,4,5,depth_discrimination_stimuli/000753_2014-06-08_21-57-44_260595134347_rgbf000123-resize_3/000753_2014-06-08_21-57-44_260595134347_rgbf000123-resize-original.jpg,3092,933535,1078143,56
433727,DepthScenes,v2_duration_discrimination,discrim_jsons/shuffled_g0.json,http://54.211.221.249/DepthDuration/v2_depth_discrimination_MTurk/v2_DepthDiscrim_HTML.html#4,4,1518,853,1517,853,8-2-2021,8-54-26,168,,,,,,,1795,501,999,1000,999,500,,1,1,depth_discrimination_stimuli/001724_2014-06-26_19-28-50_260595134347_rgbf000037-resize_7/001724_2014-06-26_19-28-50_260595134347_rgbf000037-resize-original.jpg,2699,933535,1078143,56
433727,DepthScenes,v2_duration_discrimination,discrim_jsons/shuffled_g0.json,http://54.211.221.249/DepthDuration/v2_depth_discrimination_MTurk/v2_DepthDiscrim_HTML.html#4,4,1518,853,1517,853,8-2-2021,8-54-26,169,,,,,,,1795,501,999,1000,999,500,,2,2,depth_discrimination_stimuli/000677_2014-06-08_23-10-32_260595134347_rgbf000158-resize_6/000677_2014-06-08_23-10-32_260595134347_rgbf000158-resize-original.jpg,2626,933535,1078143,56
433727,DepthScenes,v2_duration_discrimination,discrim_jsons/shuffled_g0.json,http://54.211.221.249/DepthDuration/v2_depth_discrimination_MTurk/v2_DepthDiscrim_HTML.html#4,4,1518,853,1517,853,8-2-2021,8-54-26,170,,,,,,,1795,501,999,1000,999,500,,3,3,depth_discrimination_stimuli/000917_2014-06-09_22-45-29_260595134347_rgbf000149-resize_3/000917_2014-06-09_22-45-29_260595134347_rgbf000149-resize-original.jpg,2659,933535,1078143,56
433727,DepthScenes,v2_duration_discrimination,discrim_jsons/shuffled_g0.json,http://54.211.221.249/DepthDuration/v2_depth_discrimination_MTurk/v2_DepthDiscrim_HTML.html#4,4,1518,853,1517,853,8-2-2021,8-54-26,171,,,,,,,1795,501,999,1000,999,500,,1,1,depth_discrimination_stimuli/000521_2014-06-08_13-34-35_260595134347_rgbf000191-resize_2/000521_2014-06-08_13-34-35_260595134347_rgbf000191-resize-original.jpg,2347,933535,1078143,56
433727,DepthScenes,v2_duration_discrimination,discrim_jsons/shuffled_g0.json,http://54.211.221.249/DepthDuration/v2_depth_discrimination_MTurk/v2_DepthDiscrim_HTML.html#4,4,1518,853,1517,853,8-2-2021,8-54-26,172,,,,,,,1795,501,999,1000,999,500,,2,2,depth_discrimination_stimuli/003048_2014-06-15_13-49-43_094959634447_rgbf000150-resize_1/003048_2014-06-15_13-49-43_094959634447_rgbf000150-resize-original.jpg,2883,933535,1078143,56
433727,DepthScenes,v2_duration_discrimination,discrim_jsons/shuffled_g0.json,http://54.211.221.249/DepthDuration/v2_depth_discrimination_MTurk/v2_DepthDiscrim_HTML.html#4,4,1518,853,1517,853,8-2-2021,8-54-26,173,,,,,,,1795,501,999,1000,999,500,,2,2,depth_discrimination_stimuli/000137_2014-05-20_17-04-49_260595134347_rgbf000120-resize_1/000137_2014-05-20_17-04-49_260595134347_rgbf000120-resize-original.jpg,2795,933535,1078143,56
433727,DepthScenes,v2_duration_discrimination,discrim_jsons/shuffled_g0.json,http://54.211.221.249/DepthDuration/v2_depth_discrimination_MTurk/v2_DepthDiscrim_HTML.html#4,4,1518,853,1517,853,8-2-2021,8-54-26,174,,,,,,,1795,501,999,1000,999,500,,2,2,depth_discrimination_stimuli/002344_2014-06-28_20-06-29_260595134347_rgbf000030-resize_1/002344_2014-06-28_20-06-29_260595134347_rgbf000030-resize-original.jpg,2644,933535,1078143,56
433727,DepthScenes,v2_duration_discrimination,discrim_jsons/shuffled_g0.json,http://54.211.221.249/DepthDuration/v2_depth_discrimination_MTurk/v2_DepthDiscrim_HTML.html#4,4,1518,853,1517,853,8-2-2021,8-54-26,175,,,,,,,1795,501,999,1000,999,500,,3,3,depth_discrimination_stimuli/001235_2014-06-17_16-37-36_260595134347_rgbf000084-resize_4/001235_2014-06-17_16-37-36_260595134347_rgbf000084-resize-original.jpg,2500,933535,1078143,56
433727,DepthScenes,v2_duration_discrimination,discrim_jsons/shuffled_g0.json,http://54.211.221.249/DepthDuration/v2_depth_discrimination_MTurk/v2_DepthDiscrim_HTML.html#4,4,1518,853,1517,853,8-2-2021,8-54-26,176,,,,,,,1795,501,999,1000,999,500,,3,3,depth_discrimination_stimuli/002043_2014-06-24_20-29-38_260595134347_rgbf000039-resize_4/002043_2014-06-24_20-29-38_260595134347_rgbf000039-resize-original.jpg,3541,933535,1078143,56
433727,DepthScenes,v2_duration_discrimination,discrim_jsons/shuffled_g0.json,http://54.211.221.249/DepthDuration/v2_depth_discrimination_MTurk/v2_DepthDiscrim_HTML.html#4,4,1518,853,1517,853,8-2-2021,8-54-26,177,,,,,,,1795,501,999,1000,999,500,,1,1,depth_discrimination_stimuli/001806_2014-06-26_20-50-20_260595134347_rgbf000091-resize_1/001806_2014-06-26_20-50-20_260595134347_rgbf000091-resize-original.jpg,2330,933535,1078143,56
433727,DepthScenes,v2_duration_discrimination,discrim_jsons/shuffled_g0.json,http://54.211.221.249/DepthDuration/v2_depth_discrimination_MTurk/v2_DepthDiscrim_HTML.html#4,4,1518,853,1517,853,8-2-2021,8-54-26,178,,,,,,,1795,501,999,1000,999,500,,1,1,depth_discrimination_stimuli/000555_2014-06-09_22-42-23_260595134347_rgbf000037-resize_4/000555_2014-06-09_22-42-23_260595134347_rgbf000037-resize-original.jpg,1891,933535,1078143,56
433727,DepthScenes,v2_duration_discrimination,discrim_jsons/shuffled_g0.json,http://54.211.221.249/DepthDuration/v2_depth_discrimination_MTurk/v2_DepthDiscrim_HTML.html#4,4,1518,853,1517,853,8-2-2021,8-54-26,179,,,,,,,1795,501,999,1000,999,500,,2,3,depth_discrimination_stimuli/001289_2014-06-16_16-25-52_260595134347_rgbf000067-resize_1/001289_2014-06-16_16-25-52_260595134347_rgbf000067-resize-original.jpg,2708,933535,1078143,56
433727,DepthScenes,v2_duration_discrimination,discrim_jsons/shuffled_g0.json,http://54.211.221.249/DepthDuration/v2_depth_discrimination_MTurk/v2_DepthDiscrim_HTML.html#4,4,1518,853,1517,853,8-2-2021,8-54-26,180,,,,,,,1795,501,999,1000,999,500,,1,1,depth_discrimination_stimuli/002579_2014-06-24_14-08-03_094959634447_rgbf000061-resize_2/002579_2014-06-24_14-08-03_094959634447_rgbf000061-resize-original.jpg,2748,933535,1078143,56
433727,DepthScenes,v2_duration_discrimination,discrim_jsons/shuffled_g0.json,http://54.211.221.249/DepthDuration/v2_depth_discrimination_MTurk/v2_DepthDiscrim_HTML.html#4,4,1518,853,1517,853,8-2-2021,8-54-26,181,,,,,,,1795,501,999,1000,999,500,,2,3,depth_discrimination_stimuli/002464_2014-06-28_20-36-57_260595134347_rgbf000029-resize_0/002464_2014-06-28_20-36-57_260595134347_rgbf000029-resize-original.jpg,4887,933535,1078143,56
433727,DepthScenes,v2_duration_discrimination,discrim_jsons/shuffled_g0.json,http://54.211.221.249/DepthDuration/v2_depth_discrimination_MTurk/v2_DepthDiscrim_HTML.html#4,4,1518,853,1517,853,8-2-2021,8-54-26,182,,,,,,,1795,501,999,1000,999,500,,3,3,depth_discrimination_stimuli/000749_2014-06-08_21-55-06_260595134347_rgbf000070-resize_2/000749_2014-06-08_21-55-06_260595134347_rgbf000070-resize-original.jpg,3949,933535,1078143,56
433727,DepthScenes,v2_duration_discrimination,discrim_jsons/shuffled_g0.json,http://54.211.221.249/DepthDuration/v2_depth_discrimination_MTurk/v2_DepthDiscrim_HTML.html#4,4,1518,853,1517,853,8-2-2021,8-54-26,183,,,,,,,1795,501,999,1000,999,500,,1,1,depth_discrimination_stimuli/002279_2014-06-28_18-55-32_260595134347_rgbf000040-resize_5/002279_2014-06-28_18-55-32_260595134347_rgbf000040-resize-original.jpg,2715,933535,1078143,56
433727,DepthScenes,v2_duration_discrimination,discrim_jsons/shuffled_g0.json,http://54.211.221.249/DepthDuration/v2_depth_discrimination_MTurk/v2_DepthDiscrim_HTML.html#4,4,1518,853,1517,853,8-2-2021,8-54-26,184,,,,,,,1795,501,999,1000,999,500,,4,5,depth_discrimination_stimuli/001199_2014-06-17_16-03-48_260595134347_rgbf000077-resize_0/001199_2014-06-17_16-03-48_260595134347_rgbf000077-resize-original.jpg,4335,933535,1078143,56
433727,DepthScenes,v2_duration_discrimination,discrim_jsons/shuffled_g0.json,http://54.211.221.249/DepthDuration/v2_depth_discrimination_MTurk/v2_DepthDiscrim_HTML.html#4,4,1518,853,1517,853,8-2-2021,8-54-26,185,,,,,,,1795,501,999,1000,999,500,,3,3,depth_discrimination_stimuli/000414_2014-06-04_19-49-13_260595134347_rgbf000044-resize_0/000414_2014-06-04_19-49-13_260595134347_rgbf000044-resize-original.jpg,2684,933535,1078143,56
433727,DepthScenes,v2_duration_discrimination,discrim_jsons/shuffled_g0.json,http://54.211.221.249/DepthDuration/v2_depth_discrimination_MTurk/v2_DepthDiscrim_HTML.html#4,4,1518,853,1517,853,8-2-2021,8-54-26,186,,,,,,,1795,501,999,1000,999,500,,2,2,depth_discrimination_stimuli/001052_2014-06-08_18-24-54_260595134347_rgbf000130-resize_1/001052_2014-06-08_18-24-54_260595134347_rgbf000130-resize-original.jpg,2635,933535,1078143,56
433727,DepthScenes,v2_duration_discrimination,discrim_jsons/shuffled_g0.json,http://54.211.221.249/DepthDuration/v2_depth_discrimination_MTurk/v2_DepthDiscrim_HTML.html#4,4,1518,853,1517,853,8-2-2021,8-54-26,187,,,,,,,1795,501,999,1000,999,500,,1,2,depth_discrimination_stimuli/002657_2014-06-13_15-29-54_094959634447_rgbf000150-resize_1/002657_2014-06-13_15-29-54_094959634447_rgbf000150-resize-original.jpg,3846,933535,1078143,56
433727,DepthScenes,v2_duration_discrimination,discrim_jsons/shuffled_g0.json,http://54.211.221.249/DepthDuration/v2_depth_discrimination_MTurk/v2_DepthDiscrim_HTML.html#4,4,1518,853,1517,853,8-2-2021,8-54-26,188,,,,,,,1795,501,999,1000,999,500,,3,4,depth_discrimination_stimuli/000469_2014-06-09_19-42-10_260595134347_rgbf000081-resize_1/000469_2014-06-09_19-42-10_260595134347_rgbf000081-resize-original.jpg,3125,933535,1078143,56
433727,DepthScenes,v2_duration_discrimination,discrim_jsons/shuffled_g0.json,http://54.211.221.249/DepthDuration/v2_depth_discrimination_MTurk/v2_DepthDiscrim_HTML.html#4,4,1518,853,1517,853,8-2-2021,8-54-26,189,,,,,,,1795,501,999,1000,999,500,,1,1,depth_discrimination_stimuli/002953_2014-06-08_17-32-18_094959634447_rgbf000059-resize_5/002953_2014-06-08_17-32-18_094959634447_rgbf000059-resize-original.jpg,2436,933535,1078143,56
433727,DepthScenes,v2_duration_discrimination,discrim_jsons/shuffled_g0.json,http://54.211.221.249/DepthDuration/v2_depth_discrimination_MTurk/v2_DepthDiscrim_HTML.html#4,4,1518,853,1517,853,8-2-2021,8-54-26,190,,,,,,,1795,501,999,1000,999,500,,3,4,depth_discrimination_stimuli/001617_2014-06-20_11-35-32_260595134347_rgbf000066-resize_1/001617_2014-06-20_11-35-32_260595134347_rgbf000066-resize-original.jpg,3107,933535,1078143,56
433727,DepthScenes,v2_duration_discrimination,discrim_jsons/shuffled_g0.json,http://54.211.221.249/DepthDuration/v2_depth_discrimination_MTurk/v2_DepthDiscrim_HTML.html#4,4,1518,853,1517,853,8-2-2021,8-54-26,191,,,,,,,1795,501,999,1000,999,500,,2,3,depth_discrimination_stimuli/002758_2014-06-22_19-11-20_094959634447_rgbf000128-resize_1/002758_2014-06-22_19-11-20_094959634447_rgbf000128-resize-original.jpg,3879,933535,1078143,56
433727,DepthScenes,v2_duration_discrimination,discrim_jsons/shuffled_g0.json,http://54.211.221.249/DepthDuration/v2_depth_discrimination_MTurk/v2_DepthDiscrim_HTML.html#4,4,1518,853,1517,853,8-2-2021,8-54-26,192,,,,,,,1795,501,999,1000,999,500,,2,3,depth_discrimination_stimuli/001092_2014-06-15_17-34-58_260595134347_rgbf000171-resize_3/001092_2014-06-15_17-34-58_260595134347_rgbf000171-resize-original.jpg,2563,933535,1078143,56
433727,DepthScenes,v2_duration_discrimination,discrim_jsons/shuffled_g0.json,http://54.211.221.249/DepthDuration/v2_depth_discrimination_MTurk/v2_DepthDiscrim_HTML.html#4,4,1518,853,1517,853,8-2-2021,8-54-26,193,,,,,,,1795,501,999,1000,999,500,,4,5,depth_discrimination_stimuli/002568_2014-06-24_13-59-21_094959634447_rgbf000062-resize_4/002568_2014-06-24_13-59-21_094959634447_rgbf000062-resize-original.jpg,3436,933535,1078143,56
433727,DepthScenes,v2_duration_discrimination,discrim_jsons/shuffled_g0.json,http://54.211.221.249/DepthDuration/v2_depth_discrimination_MTurk/v2_DepthDiscrim_HTML.html#4,4,1518,853,1517,853,8-2-2021,8-54-26,194,,,,,,,1795,501,999,1000,999,500,,4,5,depth_discrimination_stimuli/002763_2014-06-22_19-13-10_094959634447_rgbf000075-resize_4/002763_2014-06-22_19-13-10_094959634447_rgbf000075-resize-original.jpg,3467,933535,1078143,56
433727,DepthScenes,v2_duration_discrimination,discrim_jsons/shuffled_g0.json,http://54.211.221.249/DepthDuration/v2_depth_discrimination_MTurk/v2_DepthDiscrim_HTML.html#4,4,1518,853,1517,853,8-2-2021,8-54-26,195,,,,,,,1795,501,999,1000,999,500,,3,3,depth_discrimination_stimuli/003092_2014-06-24_21-01-49_094959634447_rgbf000049-resize_2/003092_2014-06-24_21-01-49_094959634447_rgbf000049-resize-original.jpg,3813,933535,1078143,56
433727,DepthScenes,v2_duration_discrimination,discrim_jsons/shuffled_g0.json,http://54.211.221.249/DepthDuration/v2_depth_discrimination_MTurk/v2_DepthDiscrim_HTML.html#4,4,1518,853,1517,853,8-2-2021,8-54-26,196,,,,,,,1795,501,999,1000,999,500,,3,5,depth_discrimination_stimuli/000470_2014-06-09_19-42-40_260595134347_rgbf000094-resize_1/000470_2014-06-09_19-42-40_260595134347_rgbf000094-resize-original.jpg,5458,933535,1078143,56
433727,DepthScenes,v2_duration_discrimination,discrim_jsons/shuffled_g0.json,http://54.211.221.249/DepthDuration/v2_depth_discrimination_MTurk/v2_DepthDiscrim_HTML.html#4,4,1518,853,1517,853,8-2-2021,8-54-26,197,,,,,,,1795,501,999,1000,999,500,,4,5,depth_discrimination_stimuli/002118_2014-06-25_20-32-08_260595134347_rgbf000078-resize_1/002118_2014-06-25_20-32-08_260595134347_rgbf000078-resize-original.jpg,3204,933535,1078143,56
433727,DepthScenes,v2_duration_discrimination,discrim_jsons/shuffled_g0.json,http://54.211.221.249/DepthDuration/v2_depth_discrimination_MTurk/v2_DepthDiscrim_HTML.html#4,4,1518,853,1517,853,8-2-2021,8-54-26,198,,,,,,,1795,501,999,1000,999,500,,4,4,depth_discrimination_stimuli/002131_2014-06-25_21-12-01_260595134347_rgbf000083-resize_0/002131_2014-06-25_21-12-01_260595134347_rgbf000083-resize-original.jpg,3838,933535,1078143,56
433727,DepthScenes,v2_duration_discrimination,discrim_jsons/shuffled_g0.json,http://54.211.221.249/DepthDuration/v2_depth_discrimination_MTurk/v2_DepthDiscrim_HTML.html#4,4,1518,853,1517,853,8-2-2021,8-54-26,199,,,,,,,1795,501,999,1000,999,500,,1,1,depth_discrimination_stimuli/002340_2014-06-28_20-05-46_260595134347_rgbf000113-resize_0/002340_2014-06-28_20-05-46_260595134347_rgbf000113-resize-original.jpg,4629,933535,1078143,56
433727,DepthScenes,v2_duration_discrimination,discrim_jsons/shuffled_g0.json,http://54.211.221.249/DepthDuration/v2_depth_discrimination_MTurk/v2_DepthDiscrim_HTML.html#4,4,1518,853,1517,853,8-2-2021,8-54-26,200,,,,,,,1795,501,999,1000,999,500,,2,2,depth_discrimination_stimuli/000780_2014-06-08_22-28-29_260595134347_rgbf000126-resize_1/000780_2014-06-08_22-28-29_260595134347_rgbf000126-resize-original.jpg,3283,933535,1078143,56
433727,DepthScenes,v2_duration_discrimination,discrim_jsons/shuffled_g0.json,http://54.211.221.249/DepthDuration/v2_depth_discrimination_MTurk/v2_DepthDiscrim_HTML.html#4,4,1518,853,1517,853,8-2-2021,8-54-26,201,,,,,,,1795,501,999,1000,999,500,,2,3,depth_discrimination_stimuli/003010_2014-06-15_12-54-35_094959634447_rgbf000112-resize_0/003010_2014-06-15_12-54-35_094959634447_rgbf000112-resize-original.jpg,3799,933535,1078143,56
433727,DepthScenes,v2_duration_discrimination,discrim_jsons/shuffled_g0.json,http://54.211.221.249/DepthDuration/v2_depth_discrimination_MTurk/v2_DepthDiscrim_HTML.html#4,4,1518,853,1517,853,8-2-2021,8-54-26,202,,,,,,,1795,501,999,1000,999,500,,3,3,depth_discrimination_stimuli/003495_2014-05-21_16-01-51_094959634447_rgbf000100-resize_3/003495_2014-05-21_16-01-51_094959634447_rgbf000100-resize-original.jpg,3283,933535,1078143,56
433727,DepthScenes,v2_duration_discrimination,discrim_jsons/shuffled_g0.json,http://54.211.221.249/DepthDuration/v2_depth_discrimination_MTurk/v2_DepthDiscrim_HTML.html#4,4,1518,853,1517,853,8-2-2021,8-54-26,203,,,,,,,1795,501,999,1000,999,500,,2,2,depth_discrimination_stimuli/002995_2014-06-15_12-31-26_094959634447_rgbf000150-resize_1/002995_2014-06-15_12-31-26_094959634447_rgbf000150-resize-original.jpg,2548,933535,1078143,56
433727,DepthScenes,v2_duration_discrimination,discrim_jsons/shuffled_g0.json,http://54.211.221.249/DepthDuration/v2_depth_discrimination_MTurk/v2_DepthDiscrim_HTML.html#4,4,1518,853,1517,853,8-2-2021,8-54-26,204,,,,,,,1795,501,999,1000,999,500,,2,3,depth_discrimination_stimuli/001197_2014-06-17_16-01-50_260595134347_rgbf000103-resize_4/001197_2014-06-17_16-01-50_260595134347_rgbf000103-resize-original.jpg,2610,933535,1078143,56
433727,DepthScenes,v2_duration_discrimination,discrim_jsons/shuffled_g0.json,http://54.211.221.249/DepthDuration/v2_depth_discrimination_MTurk/v2_DepthDiscrim_HTML.html#4,4,1518,853,1517,853,8-2-2021,8-54-26,205,,,,,,,1795,501,999,1000,999,500,,2,3,depth_discrimination_stimuli/001828_2014-06-26_21-40-03_260595134347_rgbf000024-resize_0/001828_2014-06-26_21-40-03_260595134347_rgbf000024-resize-original.jpg,3004,933535,1078143,56
433727,DepthScenes,v2_duration_discrimination,discrim_jsons/shuffled_g0.json,http://54.211.221.249/DepthDuration/v2_depth_discrimination_MTurk/v2_DepthDiscrim_HTML.html#4,4,1518,853,1517,853,8-2-2021,8-54-26,206,,,,,,,1795,501,999,1000,999,500,,2,2,depth_discrimination_stimuli/003492_2014-05-21_15-50-55_094959634447_rgbf000828-resize_1/003492_2014-05-21_15-50-55_094959634447_rgbf000828-resize-original.jpg,2878,933535,1078143,56
433727,DepthScenes,v2_duration_discrimination,discrim_jsons/shuffled_g0.json,http://54.211.221.249/DepthDuration/v2_depth_discrimination_MTurk/v2_DepthDiscrim_HTML.html#4,4,1518,853,1517,853,8-2-2021,8-54-26,207,,,,,,,1795,501,999,1000,999,500,,3,4,depth_discrimination_stimuli/002467_2014-06-28_20-38-07_260595134347_rgbf000026-resize_2/002467_2014-06-28_20-38-07_260595134347_rgbf000026-resize-original.jpg,7159,933535,1078143,56
433727,DepthScenes,v2_duration_discrimination,discrim_jsons/shuffled_g0.json,http://54.211.221.249/DepthDuration/v2_depth_discrimination_MTurk/v2_DepthDiscrim_HTML.html#4,4,1518,853,1517,853,8-2-2021,8-54-26,208,,,,,,,1795,501,999,1000,999,500,,3,4,depth_discrimination_stimuli/000486_2014-06-09_20-47-20_260595134347_rgbf000143-resize_2/000486_2014-06-09_20-47-20_260595134347_rgbf000143-resize-original.jpg,3723,933535,1078143,56
433727,DepthScenes,v2_duration_discrimination,discrim_jsons/shuffled_g0.json,http://54.211.221.249/DepthDuration/v2_depth_discrimination_MTurk/v2_DepthDiscrim_HTML.html#4,4,1518,853,1517,853,8-2-2021,8-54-26,209,,,,,,,1795,501,999,1000,999,500,,4,5,depth_discrimination_stimuli/001181_2014-06-17_15-50-57_260595134347_rgbf000106-resize_4/001181_2014-06-17_15-50-57_260595134347_rgbf000106-resize-original.jpg,2671,933535,1078143,56
433727,DepthScenes,v2_duration_discrimination,discrim_jsons/shuffled_g0.json,http://54.211.221.249/DepthDuration/v2_depth_discrimination_MTurk/v2_DepthDiscrim_HTML.html#4,4,1518,853,1517,853,8-2-2021,8-54-26,210,,,,,,,1795,501,999,1000,999,500,,4,5,depth_discrimination_stimuli/002784_2014-06-22_19-26-30_094959634447_rgbf000083-resize_3/002784_2014-06-22_19-26-30_094959634447_rgbf000083-resize-original.jpg,2651,933535,1078143,56
433727,DepthScenes,v2_duration_discrimination,discrim_jsons/shuffled_g0.json,http://54.211.221.249/DepthDuration/v2_depth_discrimination_MTurk/v2_DepthDiscrim_HTML.html#4,4,1518,853,1517,853,8-2-2021,8-54-26,211,,,,,,,1795,501,999,1000,999,500,,3,3,depth_discrimination_stimuli/002213_2014-06-28_18-37-58_260595134347_rgbf000055-resize_1/002213_2014-06-28_18-37-58_260595134347_rgbf000055-resize-original.jpg,2796,933535,1078143,56
433727,DepthScenes,v2_duration_discrimination,discrim_jsons/shuffled_g0.json,http://54.211.221.249/DepthDuration/v2_depth_discrimination_MTurk/v2_DepthDiscrim_HTML.html#4,4,1518,853,1517,853,8-2-2021,8-54-26,212,,,,,,,1795,501,999,1000,999,500,,4,5,depth_discrimination_stimuli/002139_2014-06-25_21-19-37_260595134347_rgbf000124-resize_2/002139_2014-06-25_21-19-37_260595134347_rgbf000124-resize-original.jpg,3500,933535,1078143,56
433727,DepthScenes,v2_duration_discrimination,discrim_jsons/shuffled_g0.json,http://54.211.221.249/DepthDuration/v2_depth_discrimination_MTurk/v2_DepthDiscrim_HTML.html#4,4,1518,853,1517,853,8-2-2021,8-54-26,213,,,,,,,1795,501,999,1000,999,500,,5,5,depth_discrimination_stimuli/001016_2014-06-09_16-16-10_260595134347_rgbf000112-resize_5/001016_2014-06-09_16-16-10_260595134347_rgbf000112-resize-original.jpg,3317,933535,1078143,56
433727,DepthScenes,v2_duration_discrimination,discrim_jsons/shuffled_g0.json,http://54.211.221.249/DepthDuration/v2_depth_discrimination_MTurk/v2_DepthDiscrim_HTML.html#4,4,1518,853,1517,853,8-2-2021,8-54-26,214,,,,,,,1795,501,999,1000,999,500,,4,4,depth_discrimination_stimuli/001136_2014-06-17_15-19-41_260595134347_rgbf000076-resize_3/001136_2014-06-17_15-19-41_260595134347_rgbf000076-resize-original.jpg,2532,933535,1078143,56
433727,DepthScenes,v2_duration_discrimination,discrim_jsons/shuffled_g0.json,http://54.211.221.249/DepthDuration/v2_depth_discrimination_MTurk/v2_DepthDiscrim_HTML.html#4,4,1518,853,1517,853,8-2-2021,8-54-26,215,,,,,,,1795,501,999,1000,999,500,,2,3,depth_discrimination_stimuli/002660_2014-06-13_15-44-18_094959634447_rgbf001878-resize_2/002660_2014-06-13_15-44-18_094959634447_rgbf001878-resize-original.jpg,3654,933535,1078143,56
