subjID,experimentName,versionName,sequenceName,url,selected_row,windowWidth,windowHeight,screenWidth,screenHeight,startDate,startTime,trial,stimulus_0,stimulus_1,duration,actual_depth_0,actual_depth_1,discrim_choice,trial_RT,log_fixation,log_sceneDuration1,log_mask1,log_sceneDuration2,log_mask2,unitSelection,meanDepth_rating,navigability_rating,rated_stimulus,rating_RT,experimentTime,totalTime,age
670721,DepthScenes,v2_duration_discrimination,discrim_jsons/shuffled_g0.json,http://54.211.221.249/DepthDuration/v2_depth_discrimination_MTurk/v2_DepthDiscrim_HTML.html#4,4,1367,768,1367,768,8-2-2021,5-56-31,1,depth_discrimination_stimuli/002043_2014-06-24_20-29-38_260595134347_rgbf000039-resize_4/002043_2014-06-24_20-29-38_260595134347_rgbf000039-resize_4-target.png,depth_discrimination_stimuli/001011_2014-06-08_23-18-54_260595134347_rgbf000044-resize_4/001011_2014-06-08_23-18-54_260595134347_rgbf000044-resize_4-target.png,250,2.8435,2.473,0,994,504,249,1000,249,499,,,,,,884095,1814265,40
670721,DepthScenes,v2_duration_discrimination,discrim_jsons/shuffled_g0.json,http://54.211.221.249/DepthDuration/v2_depth_discrimination_MTurk/v2_DepthDiscrim_HTML.html#4,4,1367,768,1367,768,8-2-2021,5-56-31,2,depth_discrimination_stimuli/000953_2014-06-08_11-42-19_260595134347_rgbf000083-resize_0/000953_2014-06-08_11-42-19_260595134347_rgbf000083-resize_0-target.png,depth_discrimination_stimuli/000787_2014-06-08_22-33-53_260595134347_rgbf000175-resize_1/000787_2014-06-08_22-33-53_260595134347_rgbf000175-resize_1-target.png,250,1.369,4.784,1,1791,501,249,1000,249,500,,,,,,884095,1814265,40
670721,DepthScenes,v2_duration_discrimination,discrim_jsons/shuffled_g0.json,http://54.211.221.249/DepthDuration/v2_depth_discrimination_MTurk/v2_DepthDiscrim_HTML.html#4,4,1367,768,1367,768,8-2-2021,5-56-31,3,depth_discrimination_stimuli/003083_2014-06-15_15-21-03_094959634447_rgbf000063-resize_1/003083_2014-06-15_15-21-03_094959634447_rgbf000063-resize_1-target.png,depth_discrimination_stimuli/000742_2014-06-08_18-48-09_260595134347_rgbf000164-resize_4/000742_2014-06-08_18-48-09_260595134347_rgbf000164-resize_4-target.png,250,4.1405,4.632,0,4143,502,249,1000,248,500,,,,,,884095,1814265,40
670721,DepthScenes,v2_duration_discrimination,discrim_jsons/shuffled_g0.json,http://54.211.221.249/DepthDuration/v2_depth_discrimination_MTurk/v2_DepthDiscrim_HTML.html#4,4,1367,768,1367,768,8-2-2021,5-56-31,4,depth_discrimination_stimuli/001092_2014-06-15_17-34-58_260595134347_rgbf000171-resize_3/001092_2014-06-15_17-34-58_260595134347_rgbf000171-resize_3-target.png,depth_discrimination_stimuli/000502_2014-06-08_23-02-32_260595134347_rgbf000063-resize_4/000502_2014-06-08_23-02-32_260595134347_rgbf000063-resize_4-target.png,1000,2.6935,2.431,0,5657,502,1000,1000,999,501,,,,,,884095,1814265,40
670721,DepthScenes,v2_duration_discrimination,discrim_jsons/shuffled_g0.json,http://54.211.221.249/DepthDuration/v2_depth_discrimination_MTurk/v2_DepthDiscrim_HTML.html#4,4,1367,768,1367,768,8-2-2021,5-56-31,5,depth_discrimination_stimuli/001532_2014-06-20_16-50-41_260595134347_rgbf000081-resize_4/001532_2014-06-20_16-50-41_260595134347_rgbf000081-resize_4-target.png,depth_discrimination_stimuli/000943_2014-06-09_19-31-07_260595134347_rgbf000128-resize_1/000943_2014-06-09_19-31-07_260595134347_rgbf000128-resize_1-target.png,1000,1.5758333333333,1.9765,0,4888,502,999,1000,1000,500,,,,,,884095,1814265,40
670721,DepthScenes,v2_duration_discrimination,discrim_jsons/shuffled_g0.json,http://54.211.221.249/DepthDuration/v2_depth_discrimination_MTurk/v2_DepthDiscrim_HTML.html#4,4,1367,768,1367,768,8-2-2021,5-56-31,6,depth_discrimination_stimuli/002103_2014-06-25_20-00-40_260595134347_rgbf000049-resize_0/002103_2014-06-25_20-00-40_260595134347_rgbf000049-resize_0-target.png,depth_discrimination_stimuli/002444_2014-06-28_20-32-08_260595134347_rgbf000027-resize_0/002444_2014-06-28_20-32-08_260595134347_rgbf000027-resize_0-target.png,250,4.105,4.389,0,1397,501,249,1000,249,501,,,,,,884095,1814265,40
670721,DepthScenes,v2_duration_discrimination,discrim_jsons/shuffled_g0.json,http://54.211.221.249/DepthDuration/v2_depth_discrimination_MTurk/v2_DepthDiscrim_HTML.html#4,4,1367,768,1367,768,8-2-2021,5-56-31,7,depth_discrimination_stimuli/000800_2014-06-08_22-42-09_260595134347_rgbf000095-resize_3/000800_2014-06-08_22-42-09_260595134347_rgbf000095-resize_3-target.png,depth_discrimination_stimuli/000869_2014-06-09_20-50-18_260595134347_rgbf000060-resize_3/000869_2014-06-09_20-50-18_260595134347_rgbf000060-resize_3-target.png,1000,2.8,2.266,1,3888,501,1000,999,1000,500,,,,,,884095,1814265,40
670721,DepthScenes,v2_duration_discrimination,discrim_jsons/shuffled_g0.json,http://54.211.221.249/DepthDuration/v2_depth_discrimination_MTurk/v2_DepthDiscrim_HTML.html#4,4,1367,768,1367,768,8-2-2021,5-56-31,8,depth_discrimination_stimuli/001618_2014-06-20_11-37-31_260595134347_rgbf000027-resize_3/001618_2014-06-20_11-37-31_260595134347_rgbf000027-resize_3-target.png,depth_discrimination_stimuli/000109_2014-05-14_23-41-52_260595134347_rgbf000035-resize_9/000109_2014-05-14_23-41-52_260595134347_rgbf000035-resize_9-target.png,250,1.8725,1.3545,0,2676,502,250,999,249,500,,,,,,884095,1814265,40
670721,DepthScenes,v2_duration_discrimination,discrim_jsons/shuffled_g0.json,http://54.211.221.249/DepthDuration/v2_depth_discrimination_MTurk/v2_DepthDiscrim_HTML.html#4,4,1367,768,1367,768,8-2-2021,5-56-31,9,depth_discrimination_stimuli/000454_2014-06-08_16-37-28_260595134347_rgbf000048-resize_2/000454_2014-06-08_16-37-28_260595134347_rgbf000048-resize_2-target.png,depth_discrimination_stimuli/000375_2014-06-08_11-17-29_260595134347_rgbf000133-resize_2/000375_2014-06-08_11-17-29_260595134347_rgbf000133-resize_2-target.png,1000,1.213,4.718,0,3375,501,999,1000,1000,500,,,,,,884095,1814265,40
670721,DepthScenes,v2_duration_discrimination,discrim_jsons/shuffled_g0.json,http://54.211.221.249/DepthDuration/v2_depth_discrimination_MTurk/v2_DepthDiscrim_HTML.html#4,4,1367,768,1367,768,8-2-2021,5-56-31,10,depth_discrimination_stimuli/000749_2014-06-08_21-55-06_260595134347_rgbf000070-resize_2/000749_2014-06-08_21-55-06_260595134347_rgbf000070-resize_2-target.png,depth_discrimination_stimuli/001056_2014-06-08_18-46-44_260595134347_rgbf000068-resize_0/001056_2014-06-08_18-46-44_260595134347_rgbf000068-resize_0-target.png,1000,2.331,2.6625,1,4203,501,1000,999,1001,499,,,,,,884095,1814265,40
670721,DepthScenes,v2_duration_discrimination,discrim_jsons/shuffled_g0.json,http://54.211.221.249/DepthDuration/v2_depth_discrimination_MTurk/v2_DepthDiscrim_HTML.html#4,4,1367,768,1367,768,8-2-2021,5-56-31,11,depth_discrimination_stimuli/002199_2014-06-28_18-33-56_260595134347_rgbf000074-resize_0/002199_2014-06-28_18-33-56_260595134347_rgbf000074-resize_0-target.png,depth_discrimination_stimuli/001016_2014-06-09_16-16-10_260595134347_rgbf000112-resize_5/001016_2014-06-09_16-16-10_260595134347_rgbf000112-resize_5-target.png,250,1.996,1.6565,0,2625,502,250,1000,250,500,,,,,,884095,1814265,40
670721,DepthScenes,v2_duration_discrimination,discrim_jsons/shuffled_g0.json,http://54.211.221.249/DepthDuration/v2_depth_discrimination_MTurk/v2_DepthDiscrim_HTML.html#4,4,1367,768,1367,768,8-2-2021,5-56-31,12,depth_discrimination_stimuli/002118_2014-06-25_20-32-08_260595134347_rgbf000078-resize_1/002118_2014-06-25_20-32-08_260595134347_rgbf000078-resize_1-target.png,depth_discrimination_stimuli/001164_2014-06-17_15-35-46_260595134347_rgbf000085-resize_3/001164_2014-06-17_15-35-46_260595134347_rgbf000085-resize_3-target.png,1000,2.646,2.354,0,1672,502,1000,1000,998,500,,,,,,884095,1814265,40
670721,DepthScenes,v2_duration_discrimination,discrim_jsons/shuffled_g0.json,http://54.211.221.249/DepthDuration/v2_depth_discrimination_MTurk/v2_DepthDiscrim_HTML.html#4,4,1367,768,1367,768,8-2-2021,5-56-31,13,depth_discrimination_stimuli/002953_2014-06-08_17-32-18_094959634447_rgbf000059-resize_5/002953_2014-06-08_17-32-18_094959634447_rgbf000059-resize_5-target.png,depth_discrimination_stimuli/000470_2014-06-09_19-42-40_260595134347_rgbf000094-resize_1/000470_2014-06-09_19-42-40_260595134347_rgbf000094-resize_1-target.png,250,1.551,1.831,0,5122,501,249,1000,249,500,,,,,,884095,1814265,40
670721,DepthScenes,v2_duration_discrimination,discrim_jsons/shuffled_g0.json,http://54.211.221.249/DepthDuration/v2_depth_discrimination_MTurk/v2_DepthDiscrim_HTML.html#4,4,1367,768,1367,768,8-2-2021,5-56-31,14,depth_discrimination_stimuli/000929_2014-06-09_16-33-19_260595134347_rgbf000139-resize_0/000929_2014-06-09_16-33-19_260595134347_rgbf000139-resize_0-target.png,depth_discrimination_stimuli/001055_2014-06-08_18-45-35_260595134347_rgbf000111-resize_4/001055_2014-06-08_18-45-35_260595134347_rgbf000111-resize_4-target.png,1000,2.868,2.429,0,3172,500,1000,1001,999,500,,,,,,884095,1814265,40
670721,DepthScenes,v2_duration_discrimination,discrim_jsons/shuffled_g0.json,http://54.211.221.249/DepthDuration/v2_depth_discrimination_MTurk/v2_DepthDiscrim_HTML.html#4,4,1367,768,1367,768,8-2-2021,5-56-31,15,depth_discrimination_stimuli/000493_2014-06-09_21-01-18_260595134347_rgbf000196-resize_3/000493_2014-06-09_21-01-18_260595134347_rgbf000196-resize_3-target.png,depth_discrimination_stimuli/000409_2014-06-04_19-23-33_260595134347_rgbf000067-resize_0/000409_2014-06-04_19-23-33_260595134347_rgbf000067-resize_0-target.png,250,3.44,3.7335,1,3690,502,249,999,250,499,,,,,,884095,1814265,40
670721,DepthScenes,v2_duration_discrimination,discrim_jsons/shuffled_g0.json,http://54.211.221.249/DepthDuration/v2_depth_discrimination_MTurk/v2_DepthDiscrim_HTML.html#4,4,1367,768,1367,768,8-2-2021,5-56-31,16,depth_discrimination_stimuli/000569_2014-06-09_22-51-47_260595134347_rgbf000141-resize_3/000569_2014-06-09_22-51-47_260595134347_rgbf000141-resize_3-target.png,depth_discrimination_stimuli/000868_2014-06-09_20-49-52_260595134347_rgbf000064-resize_4/000868_2014-06-09_20-49-52_260595134347_rgbf000064-resize_4-target.png,250,4.512,1.2815,0,4485,502,249,999,250,501,,,,,,884095,1814265,40
670721,DepthScenes,v2_duration_discrimination,discrim_jsons/shuffled_g0.json,http://54.211.221.249/DepthDuration/v2_depth_discrimination_MTurk/v2_DepthDiscrim_HTML.html#4,4,1367,768,1367,768,8-2-2021,5-56-31,17,depth_discrimination_stimuli/003587_2014-05-23_16-48-02_094959634447_rgbf002384-resize_2/003587_2014-05-23_16-48-02_094959634447_rgbf002384-resize_2-target.png,depth_discrimination_stimuli/000709_2014-06-08_13-51-55_260595134347_rgbf000068-resize_3/000709_2014-06-08_13-51-55_260595134347_rgbf000068-resize_3-target.png,1000,1.357,1.803,0,9317,501,998,1000,999,500,,,,,,884095,1814265,40
670721,DepthScenes,v2_duration_discrimination,discrim_jsons/shuffled_g0.json,http://54.211.221.249/DepthDuration/v2_depth_discrimination_MTurk/v2_DepthDiscrim_HTML.html#4,4,1367,768,1367,768,8-2-2021,5-56-31,18,depth_discrimination_stimuli/002675_2014-06-13_16-08-49_094959634447_rgbf000151-resize_2/002675_2014-06-13_16-08-49_094959634447_rgbf000151-resize_2-target.png,depth_discrimination_stimuli/001222_2014-06-17_16-24-06_260595134347_rgbf000073-resize_0/001222_2014-06-17_16-24-06_260595134347_rgbf000073-resize_0-target.png,1000,4.5065,1.4385,1,3208,502,999,1001,1000,499,,,,,,884095,1814265,40
670721,DepthScenes,v2_duration_discrimination,discrim_jsons/shuffled_g0.json,http://54.211.221.249/DepthDuration/v2_depth_discrimination_MTurk/v2_DepthDiscrim_HTML.html#4,4,1367,768,1367,768,8-2-2021,5-56-31,19,depth_discrimination_stimuli/002340_2014-06-28_20-05-46_260595134347_rgbf000113-resize_0/002340_2014-06-28_20-05-46_260595134347_rgbf000113-resize_0-target.png,depth_discrimination_stimuli/002905_2014-06-03_18-04-43_094959634447_rgbf000151-resize_2/002905_2014-06-03_18-04-43_094959634447_rgbf000151-resize_2-target.png,1000,2.4735,2.0295,0,10585,502,999,1001,999,500,,,,,,884095,1814265,40
670721,DepthScenes,v2_duration_discrimination,discrim_jsons/shuffled_g0.json,http://54.211.221.249/DepthDuration/v2_depth_discrimination_MTurk/v2_DepthDiscrim_HTML.html#4,4,1367,768,1367,768,8-2-2021,5-56-31,20,depth_discrimination_stimuli/000691_2014-06-08_13-08-50_260595134347_rgbf000132-resize_3/000691_2014-06-08_13-08-50_260595134347_rgbf000132-resize_3-target.png,depth_discrimination_stimuli/002039_2014-06-24_20-22-38_260595134347_rgbf000084-resize_1/002039_2014-06-24_20-22-38_260595134347_rgbf000084-resize_1-target.png,1000,4.153,4.408,0,3411,502,999,1000,1001,500,,,,,,884095,1814265,40
670721,DepthScenes,v2_duration_discrimination,discrim_jsons/shuffled_g0.json,http://54.211.221.249/DepthDuration/v2_depth_discrimination_MTurk/v2_DepthDiscrim_HTML.html#4,4,1367,768,1367,768,8-2-2021,5-56-31,21,depth_discrimination_stimuli/000549_2014-06-08_22-10-24_260595134347_rgbf000247-resize_3/000549_2014-06-08_22-10-24_260595134347_rgbf000247-resize_3-target.png,depth_discrimination_stimuli/002509_2014-06-24_13-19-22_094959634447_rgbf000077-resize_0/002509_2014-06-24_13-19-22_094959634447_rgbf000077-resize_0-target.png,1000,1.841,1.3065,1,3080,502,999,999,997,500,,,,,,884095,1814265,40
670721,DepthScenes,v2_duration_discrimination,discrim_jsons/shuffled_g0.json,http://54.211.221.249/DepthDuration/v2_depth_discrimination_MTurk/v2_DepthDiscrim_HTML.html#4,4,1367,768,1367,768,8-2-2021,5-56-31,22,depth_discrimination_stimuli/003495_2014-05-21_16-01-51_094959634447_rgbf000100-resize_3/003495_2014-05-21_16-01-51_094959634447_rgbf000100-resize_3-target.png,depth_discrimination_stimuli/002949_2014-06-26_15-57-42_094959634447_rgbf000079-resize_1/002949_2014-06-26_15-57-42_094959634447_rgbf000079-resize_1-target.png,250,1.6255,1.8915,0,4422,502,250,1000,248,500,,,,,,884095,1814265,40
670721,DepthScenes,v2_duration_discrimination,discrim_jsons/shuffled_g0.json,http://54.211.221.249/DepthDuration/v2_depth_discrimination_MTurk/v2_DepthDiscrim_HTML.html#4,4,1367,768,1367,768,8-2-2021,5-56-31,23,depth_discrimination_stimuli/001498_2014-06-19_17-45-14_260595134347_rgbf000129-resize_4/001498_2014-06-19_17-45-14_260595134347_rgbf000129-resize_4-target.png,depth_discrimination_stimuli/003125_2014-05-12_10-39-22_094959634447_rgbf000100-resize_0/003125_2014-05-12_10-39-22_094959634447_rgbf000100-resize_0-target.png,1000,1.4075,4.8655,0,2805,502,999,999,1000,501,,,,,,884095,1814265,40
670721,DepthScenes,v2_duration_discrimination,discrim_jsons/shuffled_g0.json,http://54.211.221.249/DepthDuration/v2_depth_discrimination_MTurk/v2_DepthDiscrim_HTML.html#4,4,1367,768,1367,768,8-2-2021,5-56-31,24,depth_discrimination_stimuli/003490_2014-05-21_15-50-11_094959634447_rgbf000101-resize_3/003490_2014-05-21_15-50-11_094959634447_rgbf000101-resize_3-target.png,depth_discrimination_stimuli/000866_2014-06-09_20-45-42_260595134347_rgbf000139-resize_1/000866_2014-06-09_20-45-42_260595134347_rgbf000139-resize_1-target.png,1000,3.6445,3.2155,1,2408,501,1001,1000,998,501,,,,,,884095,1814265,40
670721,DepthScenes,v2_duration_discrimination,discrim_jsons/shuffled_g0.json,http://54.211.221.249/DepthDuration/v2_depth_discrimination_MTurk/v2_DepthDiscrim_HTML.html#4,4,1367,768,1367,768,8-2-2021,5-56-31,25,depth_discrimination_stimuli/002072_2014-06-24_21-48-06_260595134347_rgbf000115-resize_0/002072_2014-06-24_21-48-06_260595134347_rgbf000115-resize_0-target.png,depth_discrimination_stimuli/001012_2014-06-08_23-19-38_260595134347_rgbf000057-resize_0/001012_2014-06-08_23-19-38_260595134347_rgbf000057-resize_0-target.png,250,4.702,1.38325,0,5216,501,250,999,249,501,,,,,,884095,1814265,40
670721,DepthScenes,v2_duration_discrimination,discrim_jsons/shuffled_g0.json,http://54.211.221.249/DepthDuration/v2_depth_discrimination_MTurk/v2_DepthDiscrim_HTML.html#4,4,1367,768,1367,768,8-2-2021,5-56-31,26,depth_discrimination_stimuli/002805_2014-06-22_19-54-03_094959634447_rgbf000079-resize_1/002805_2014-06-22_19-54-03_094959634447_rgbf000079-resize_1-target.png,depth_discrimination_stimuli/001584_2014-06-20_11-07-43_260595134347_rgbf000002-resize_1/001584_2014-06-20_11-07-43_260595134347_rgbf000002-resize_1-target.png,250,3.144,3.53,1,2237,502,250,999,250,508,,,,,,884095,1814265,40
670721,DepthScenes,v2_duration_discrimination,discrim_jsons/shuffled_g0.json,http://54.211.221.249/DepthDuration/v2_depth_discrimination_MTurk/v2_DepthDiscrim_HTML.html#4,4,1367,768,1367,768,8-2-2021,5-56-31,27,depth_discrimination_stimuli/003292_2014-05-14_21-53-49_094959634447_rgbf000100-resize_2/003292_2014-05-14_21-53-49_094959634447_rgbf000100-resize_2-target.png,depth_discrimination_stimuli/000542_2014-06-08_18-27-08_260595134347_rgbf000118-resize_1/000542_2014-06-08_18-27-08_260595134347_rgbf000118-resize_1-target.png,1000,3.4815,3,1,2038,500,1000,1001,1000,499,,,,,,884095,1814265,40
670721,DepthScenes,v2_duration_discrimination,discrim_jsons/shuffled_g0.json,http://54.211.221.249/DepthDuration/v2_depth_discrimination_MTurk/v2_DepthDiscrim_HTML.html#4,4,1367,768,1367,768,8-2-2021,5-56-31,28,depth_discrimination_stimuli/002549_2014-06-24_13-41-39_094959634447_rgbf000022-resize_3/002549_2014-06-24_13-41-39_094959634447_rgbf000022-resize_3-target.png,depth_discrimination_stimuli/001136_2014-06-17_15-19-41_260595134347_rgbf000076-resize_3/001136_2014-06-17_15-19-41_260595134347_rgbf000076-resize_3-target.png,1000,1.476,1.8655,0,3243,502,1000,1000,1000,499,,,,,,884095,1814265,40
670721,DepthScenes,v2_duration_discrimination,discrim_jsons/shuffled_g0.json,http://54.211.221.249/DepthDuration/v2_depth_discrimination_MTurk/v2_DepthDiscrim_HTML.html#4,4,1367,768,1367,768,8-2-2021,5-56-31,29,depth_discrimination_stimuli/000556_2014-06-09_22-42-56_260595134347_rgbf000214-resize_1/000556_2014-06-09_22-42-56_260595134347_rgbf000214-resize_1-target.png,depth_discrimination_stimuli/001148_2014-06-17_15-26-42_260595134347_rgbf000129-resize_0/001148_2014-06-17_15-26-42_260595134347_rgbf000129-resize_0-target.png,1000,4.8415,4.368,1,3597,501,998,1002,999,499,,,,,,884095,1814265,40
670721,DepthScenes,v2_duration_discrimination,discrim_jsons/shuffled_g0.json,http://54.211.221.249/DepthDuration/v2_depth_discrimination_MTurk/v2_DepthDiscrim_HTML.html#4,4,1367,768,1367,768,8-2-2021,5-56-31,30,depth_discrimination_stimuli/001450_2014-06-19_17-02-03_260595134347_rgbf000203-resize_4/001450_2014-06-19_17-02-03_260595134347_rgbf000203-resize_4-target.png,depth_discrimination_stimuli/002414_2014-06-28_20-24-58_260595134347_rgbf000067-resize_4/002414_2014-06-28_20-24-58_260595134347_rgbf000067-resize_4-target.png,250,4.0106666666667,4.363,0,6844,500,250,1000,250,500,,,,,,884095,1814265,40
670721,DepthScenes,v2_duration_discrimination,discrim_jsons/shuffled_g0.json,http://54.211.221.249/DepthDuration/v2_depth_discrimination_MTurk/v2_DepthDiscrim_HTML.html#4,4,1367,768,1367,768,8-2-2021,5-56-31,31,depth_discrimination_stimuli/000927_2014-06-09_16-32-30_260595134347_rgbf000123-resize_3/000927_2014-06-09_16-32-30_260595134347_rgbf000123-resize_3-target.png,depth_discrimination_stimuli/002678_2014-06-13_16-15-32_094959634447_rgbf000151-resize_6/002678_2014-06-13_16-15-32_094959634447_rgbf000151-resize_6-target.png,250,2.6785,2.183,0,2490,502,249,999,249,500,,,,,,884095,1814265,40
670721,DepthScenes,v2_duration_discrimination,discrim_jsons/shuffled_g0.json,http://54.211.221.249/DepthDuration/v2_depth_discrimination_MTurk/v2_DepthDiscrim_HTML.html#4,4,1367,768,1367,768,8-2-2021,5-56-31,32,depth_discrimination_stimuli/003423_2014-05-21_10-23-26_094959634447_rgbf002665-resize_2/003423_2014-05-21_10-23-26_094959634447_rgbf002665-resize_2-target.png,depth_discrimination_stimuli/000137_2014-05-20_17-04-49_260595134347_rgbf000120-resize_1/000137_2014-05-20_17-04-49_260595134347_rgbf000120-resize_1-target.png,250,3.2575,3.786,0,6320,502,250,1000,250,499,,,,,,884095,1814265,40
670721,DepthScenes,v2_duration_discrimination,discrim_jsons/shuffled_g0.json,http://54.211.221.249/DepthDuration/v2_depth_discrimination_MTurk/v2_DepthDiscrim_HTML.html#4,4,1367,768,1367,768,8-2-2021,5-56-31,33,depth_discrimination_stimuli/001158_2014-06-17_15-32-16_260595134347_rgbf000138-resize_2/001158_2014-06-17_15-32-16_260595134347_rgbf000138-resize_2-target.png,depth_discrimination_stimuli/001181_2014-06-17_15-50-57_260595134347_rgbf000106-resize_4/001181_2014-06-17_15-50-57_260595134347_rgbf000106-resize_4-target.png,250,4.5315,4.149,0,2566,501,251,1000,249,500,,,,,,884095,1814265,40
670721,DepthScenes,v2_duration_discrimination,discrim_jsons/shuffled_g0.json,http://54.211.221.249/DepthDuration/v2_depth_discrimination_MTurk/v2_DepthDiscrim_HTML.html#4,4,1367,768,1367,768,8-2-2021,5-56-31,34,depth_discrimination_stimuli/002467_2014-06-28_20-38-07_260595134347_rgbf000026-resize_2/002467_2014-06-28_20-38-07_260595134347_rgbf000026-resize_2-target.png,depth_discrimination_stimuli/001133_2014-06-17_14-49-16_260595134347_rgbf000100-resize_0/001133_2014-06-17_14-49-16_260595134347_rgbf000100-resize_0-target.png,250,4.742,4.2115,0,2036,501,249,1000,249,500,,,,,,884095,1814265,40
670721,DepthScenes,v2_duration_discrimination,discrim_jsons/shuffled_g0.json,http://54.211.221.249/DepthDuration/v2_depth_discrimination_MTurk/v2_DepthDiscrim_HTML.html#4,4,1367,768,1367,768,8-2-2021,5-56-31,35,depth_discrimination_stimuli/001197_2014-06-17_16-01-50_260595134347_rgbf000103-resize_4/001197_2014-06-17_16-01-50_260595134347_rgbf000103-resize_4-target.png,depth_discrimination_stimuli/001235_2014-06-17_16-37-36_260595134347_rgbf000084-resize_4/001235_2014-06-17_16-37-36_260595134347_rgbf000084-resize_4-target.png,250,3.4025,3.6605,0,4568,502,248,1001,249,499,,,,,,884095,1814265,40
670721,DepthScenes,v2_duration_discrimination,discrim_jsons/shuffled_g0.json,http://54.211.221.249/DepthDuration/v2_depth_discrimination_MTurk/v2_DepthDiscrim_HTML.html#4,4,1367,768,1367,768,8-2-2021,5-56-31,36,depth_discrimination_stimuli/001170_2014-06-17_15-43-44_260595134347_rgbf000096-resize_6/001170_2014-06-17_15-43-44_260595134347_rgbf000096-resize_6-target.png,depth_discrimination_stimuli/002364_2014-06-28_20-11-05_260595134347_rgbf000042-resize_0/002364_2014-06-28_20-11-05_260595134347_rgbf000042-resize_0-target.png,250,1.191,4.682,1,3984,502,250,1000,248,500,,,,,,884095,1814265,40
670721,DepthScenes,v2_duration_discrimination,discrim_jsons/shuffled_g0.json,http://54.211.221.249/DepthDuration/v2_depth_discrimination_MTurk/v2_DepthDiscrim_HTML.html#4,4,1367,768,1367,768,8-2-2021,5-56-31,37,depth_discrimination_stimuli/002323_2014-06-28_20-01-54_260595134347_rgbf000051-resize_4/002323_2014-06-28_20-01-54_260595134347_rgbf000051-resize_4-target.png,depth_discrimination_stimuli/001032_2014-06-08_13-23-17_260595134347_rgbf000021-resize_3/001032_2014-06-08_13-23-17_260595134347_rgbf000021-resize_3-target.png,250,3.731,3.2725,0,2036,502,251,999,249,501,,,,,,884095,1814265,40
670721,DepthScenes,v2_duration_discrimination,discrim_jsons/shuffled_g0.json,http://54.211.221.249/DepthDuration/v2_depth_discrimination_MTurk/v2_DepthDiscrim_HTML.html#4,4,1367,768,1367,768,8-2-2021,5-56-31,38,depth_discrimination_stimuli/001808_2014-06-26_20-50-58_260595134347_rgbf000029-resize_1/001808_2014-06-26_20-50-58_260595134347_rgbf000029-resize_1-target.png,depth_discrimination_stimuli/002748_2014-06-22_19-07-22_094959634447_rgbf000078-resize_1/002748_2014-06-22_19-07-22_094959634447_rgbf000078-resize_1-target.png,250,4.249,4.6705,0,1975,502,249,1000,250,499,,,,,,884095,1814265,40
670721,DepthScenes,v2_duration_discrimination,discrim_jsons/shuffled_g0.json,http://54.211.221.249/DepthDuration/v2_depth_discrimination_MTurk/v2_DepthDiscrim_HTML.html#4,4,1367,768,1367,768,8-2-2021,5-56-31,39,depth_discrimination_stimuli/002660_2014-06-13_15-44-18_094959634447_rgbf001878-resize_2/002660_2014-06-13_15-44-18_094959634447_rgbf001878-resize_2-target.png,depth_discrimination_stimuli/003081_2014-06-15_15-19-16_094959634447_rgbf000150-resize_1/003081_2014-06-15_15-19-16_094959634447_rgbf000150-resize_1-target.png,1000,3.576,3.9125,0,2278,502,998,1000,999,500,,,,,,884095,1814265,40
670721,DepthScenes,v2_duration_discrimination,discrim_jsons/shuffled_g0.json,http://54.211.221.249/DepthDuration/v2_depth_discrimination_MTurk/v2_DepthDiscrim_HTML.html#4,4,1367,768,1367,768,8-2-2021,5-56-31,40,depth_discrimination_stimuli/003395_2014-05-20_15-39-18_094959634447_rgbf000101-resize_0/003395_2014-05-20_15-39-18_094959634447_rgbf000101-resize_0-target.png,depth_discrimination_stimuli/001540_2014-06-20_17-01-05_260595134347_rgbf000086-resize_2/001540_2014-06-20_17-01-05_260595134347_rgbf000086-resize_2-target.png,1000,4.835,1.459,0,1756,502,1000,1000,999,500,,,,,,884095,1814265,40
670721,DepthScenes,v2_duration_discrimination,discrim_jsons/shuffled_g0.json,http://54.211.221.249/DepthDuration/v2_depth_discrimination_MTurk/v2_DepthDiscrim_HTML.html#4,4,1367,768,1367,768,8-2-2021,5-56-31,40,,,,,,,1756,502,1000,1000,999,500,,,,,,884095,1814265,40
670721,DepthScenes,v2_duration_discrimination,discrim_jsons/shuffled_g0.json,http://54.211.221.249/DepthDuration/v2_depth_discrimination_MTurk/v2_DepthDiscrim_HTML.html#4,4,1350,768,1367,768,8-2-2021,5-56-31,42,,,,,,,1756,502,1000,1000,999,500,,4,3,depth_discrimination_stimuli/001808_2014-06-26_20-50-58_260595134347_rgbf000029-resize_1/001808_2014-06-26_20-50-58_260595134347_rgbf000029-resize-original.jpg,9966,884095,1814265,40
670721,DepthScenes,v2_duration_discrimination,discrim_jsons/shuffled_g0.json,http://54.211.221.249/DepthDuration/v2_depth_discrimination_MTurk/v2_DepthDiscrim_HTML.html#4,4,1350,768,1367,768,8-2-2021,5-56-31,43,,,,,,,1756,502,1000,1000,999,500,,5,3,depth_discrimination_stimuli/001617_2014-06-20_11-35-32_260595134347_rgbf000066-resize_1/001617_2014-06-20_11-35-32_260595134347_rgbf000066-resize-original.jpg,4188,884095,1814265,40
670721,DepthScenes,v2_duration_discrimination,discrim_jsons/shuffled_g0.json,http://54.211.221.249/DepthDuration/v2_depth_discrimination_MTurk/v2_DepthDiscrim_HTML.html#4,4,1350,768,1367,768,8-2-2021,5-56-31,44,,,,,,,1756,502,1000,1000,999,500,,4,5,depth_discrimination_stimuli/003546_2014-05-22_15-48-53_094959634447_rgbf004816-resize_3/003546_2014-05-22_15-48-53_094959634447_rgbf004816-resize-original.jpg,3651,884095,1814265,40
670721,DepthScenes,v2_duration_discrimination,discrim_jsons/shuffled_g0.json,http://54.211.221.249/DepthDuration/v2_depth_discrimination_MTurk/v2_DepthDiscrim_HTML.html#4,4,1350,768,1367,768,8-2-2021,5-56-31,45,,,,,,,1756,502,1000,1000,999,500,,3,2,depth_discrimination_stimuli/003621_2014-05-23_18-06-08_094959634447_rgbf000101-resize_1/003621_2014-05-23_18-06-08_094959634447_rgbf000101-resize-original.jpg,2380,884095,1814265,40
670721,DepthScenes,v2_duration_discrimination,discrim_jsons/shuffled_g0.json,http://54.211.221.249/DepthDuration/v2_depth_discrimination_MTurk/v2_DepthDiscrim_HTML.html#4,4,1350,768,1367,768,8-2-2021,5-56-31,46,,,,,,,1756,502,1000,1000,999,500,,4,5,depth_discrimination_stimuli/002790_2014-06-22_19-36-35_094959634447_rgbf000074-resize_4/002790_2014-06-22_19-36-35_094959634447_rgbf000074-resize-original.jpg,3484,884095,1814265,40
670721,DepthScenes,v2_duration_discrimination,discrim_jsons/shuffled_g0.json,http://54.211.221.249/DepthDuration/v2_depth_discrimination_MTurk/v2_DepthDiscrim_HTML.html#4,4,1350,768,1367,768,8-2-2021,5-56-31,47,,,,,,,1756,502,1000,1000,999,500,,3,2,depth_discrimination_stimuli/001815_2014-06-26_20-52-55_260595134347_rgbf000020-resize_0/001815_2014-06-26_20-52-55_260595134347_rgbf000020-resize-original.jpg,3395,884095,1814265,40
670721,DepthScenes,v2_duration_discrimination,discrim_jsons/shuffled_g0.json,http://54.211.221.249/DepthDuration/v2_depth_discrimination_MTurk/v2_DepthDiscrim_HTML.html#4,4,1350,768,1367,768,8-2-2021,5-56-31,48,,,,,,,1756,502,1000,1000,999,500,,3,4,depth_discrimination_stimuli/002637_2014-06-24_14-51-13_094959634447_rgbf000066-resize_4/002637_2014-06-24_14-51-13_094959634447_rgbf000066-resize-original.jpg,3123,884095,1814265,40
670721,DepthScenes,v2_duration_discrimination,discrim_jsons/shuffled_g0.json,http://54.211.221.249/DepthDuration/v2_depth_discrimination_MTurk/v2_DepthDiscrim_HTML.html#4,4,1350,768,1367,768,8-2-2021,5-56-31,49,,,,,,,1756,502,1000,1000,999,500,,5,3,depth_discrimination_stimuli/002136_2014-06-25_21-18-03_260595134347_rgbf000109-resize_3/002136_2014-06-25_21-18-03_260595134347_rgbf000109-resize-original.jpg,2856,884095,1814265,40
670721,DepthScenes,v2_duration_discrimination,discrim_jsons/shuffled_g0.json,http://54.211.221.249/DepthDuration/v2_depth_discrimination_MTurk/v2_DepthDiscrim_HTML.html#4,4,1350,768,1367,768,8-2-2021,5-56-31,50,,,,,,,1756,502,1000,1000,999,500,,4,2,depth_discrimination_stimuli/000749_2014-06-08_21-55-06_260595134347_rgbf000070-resize_2/000749_2014-06-08_21-55-06_260595134347_rgbf000070-resize-original.jpg,2864,884095,1814265,40
670721,DepthScenes,v2_duration_discrimination,discrim_jsons/shuffled_g0.json,http://54.211.221.249/DepthDuration/v2_depth_discrimination_MTurk/v2_DepthDiscrim_HTML.html#4,4,1350,768,1367,768,8-2-2021,5-56-31,51,,,,,,,1756,502,1000,1000,999,500,,3,5,depth_discrimination_stimuli/001100_2014-06-15_17-46-26_260595134347_rgbf000225-resize_2/001100_2014-06-15_17-46-26_260595134347_rgbf000225-resize-original.jpg,3584,884095,1814265,40
670721,DepthScenes,v2_duration_discrimination,discrim_jsons/shuffled_g0.json,http://54.211.221.249/DepthDuration/v2_depth_discrimination_MTurk/v2_DepthDiscrim_HTML.html#4,4,1350,768,1367,768,8-2-2021,5-56-31,52,,,,,,,1756,502,1000,1000,999,500,,2,3,depth_discrimination_stimuli/000692_2014-06-08_13-09-42_260595134347_rgbf000199-resize_2/000692_2014-06-08_13-09-42_260595134347_rgbf000199-resize-original.jpg,2973,884095,1814265,40
670721,DepthScenes,v2_duration_discrimination,discrim_jsons/shuffled_g0.json,http://54.211.221.249/DepthDuration/v2_depth_discrimination_MTurk/v2_DepthDiscrim_HTML.html#4,4,1350,768,1367,768,8-2-2021,5-56-31,53,,,,,,,1756,502,1000,1000,999,500,,4,3,depth_discrimination_stimuli/002039_2014-06-24_20-22-38_260595134347_rgbf000084-resize_1/002039_2014-06-24_20-22-38_260595134347_rgbf000084-resize-original.jpg,2539,884095,1814265,40
670721,DepthScenes,v2_duration_discrimination,discrim_jsons/shuffled_g0.json,http://54.211.221.249/DepthDuration/v2_depth_discrimination_MTurk/v2_DepthDiscrim_HTML.html#4,4,1350,768,1367,768,8-2-2021,5-56-31,54,,,,,,,1756,502,1000,1000,999,500,,4,2,depth_discrimination_stimuli/000742_2014-06-08_18-48-09_260595134347_rgbf000164-resize_4/000742_2014-06-08_18-48-09_260595134347_rgbf000164-resize-original.jpg,13324,884095,1814265,40
670721,DepthScenes,v2_duration_discrimination,discrim_jsons/shuffled_g0.json,http://54.211.221.249/DepthDuration/v2_depth_discrimination_MTurk/v2_DepthDiscrim_HTML.html#4,4,1350,768,1367,768,8-2-2021,5-56-31,55,,,,,,,1756,502,1000,1000,999,500,,3,2,depth_discrimination_stimuli/001059_2014-06-08_21-53-27_260595134347_rgbf000061-resize_4/001059_2014-06-08_21-53-27_260595134347_rgbf000061-resize-original.jpg,4410,884095,1814265,40
670721,DepthScenes,v2_duration_discrimination,discrim_jsons/shuffled_g0.json,http://54.211.221.249/DepthDuration/v2_depth_discrimination_MTurk/v2_DepthDiscrim_HTML.html#4,4,1350,768,1367,768,8-2-2021,5-56-31,56,,,,,,,1756,502,1000,1000,999,500,,4,3,depth_discrimination_stimuli/003288_2014-05-14_21-50-30_094959634447_rgbf000028-resize_3/003288_2014-05-14_21-50-30_094959634447_rgbf000028-resize-original.jpg,2615,884095,1814265,40
670721,DepthScenes,v2_duration_discrimination,discrim_jsons/shuffled_g0.json,http://54.211.221.249/DepthDuration/v2_depth_discrimination_MTurk/v2_DepthDiscrim_HTML.html#4,4,1350,768,1367,768,8-2-2021,5-56-31,57,,,,,,,1756,502,1000,1000,999,500,,4,5,depth_discrimination_stimuli/001810_2014-06-26_20-51-35_260595134347_rgbf000040-resize_3/001810_2014-06-26_20-51-35_260595134347_rgbf000040-resize-original.jpg,3669,884095,1814265,40
670721,DepthScenes,v2_duration_discrimination,discrim_jsons/shuffled_g0.json,http://54.211.221.249/DepthDuration/v2_depth_discrimination_MTurk/v2_DepthDiscrim_HTML.html#4,4,1350,768,1367,768,8-2-2021,5-56-31,58,,,,,,,1756,502,1000,1000,999,500,,3,4,depth_discrimination_stimuli/000906_2014-06-08_13-35-43_260595134347_rgbf000155-resize_1/000906_2014-06-08_13-35-43_260595134347_rgbf000155-resize-original.jpg,3136,884095,1814265,40
670721,DepthScenes,v2_duration_discrimination,discrim_jsons/shuffled_g0.json,http://54.211.221.249/DepthDuration/v2_depth_discrimination_MTurk/v2_DepthDiscrim_HTML.html#4,4,1350,768,1367,768,8-2-2021,5-56-31,59,,,,,,,1756,502,1000,1000,999,500,,2,5,depth_discrimination_stimuli/003423_2014-05-21_10-23-26_094959634447_rgbf002665-resize_2/003423_2014-05-21_10-23-26_094959634447_rgbf002665-resize-original.jpg,2625,884095,1814265,40
670721,DepthScenes,v2_duration_discrimination,discrim_jsons/shuffled_g0.json,http://54.211.221.249/DepthDuration/v2_depth_discrimination_MTurk/v2_DepthDiscrim_HTML.html#4,4,1350,768,1367,768,8-2-2021,5-56-31,60,,,,,,,1756,502,1000,1000,999,500,,4,3,depth_discrimination_stimuli/000917_2014-06-09_22-45-29_260595134347_rgbf000149-resize_3/000917_2014-06-09_22-45-29_260595134347_rgbf000149-resize-original.jpg,2853,884095,1814265,40
670721,DepthScenes,v2_duration_discrimination,discrim_jsons/shuffled_g0.json,http://54.211.221.249/DepthDuration/v2_depth_discrimination_MTurk/v2_DepthDiscrim_HTML.html#4,4,1350,768,1367,768,8-2-2021,5-56-31,61,,,,,,,1756,502,1000,1000,999,500,,4,5,depth_discrimination_stimuli/002678_2014-06-13_16-15-32_094959634447_rgbf000151-resize_6/002678_2014-06-13_16-15-32_094959634447_rgbf000151-resize-original.jpg,3030,884095,1814265,40
670721,DepthScenes,v2_duration_discrimination,discrim_jsons/shuffled_g0.json,http://54.211.221.249/DepthDuration/v2_depth_discrimination_MTurk/v2_DepthDiscrim_HTML.html#4,4,1350,768,1367,768,8-2-2021,5-56-31,62,,,,,,,1756,502,1000,1000,999,500,,3,2,depth_discrimination_stimuli/001447_2014-06-19_17-00-32_260595134347_rgbf000082-resize_5/001447_2014-06-19_17-00-32_260595134347_rgbf000082-resize-original.jpg,2658,884095,1814265,40
670721,DepthScenes,v2_duration_discrimination,discrim_jsons/shuffled_g0.json,http://54.211.221.249/DepthDuration/v2_depth_discrimination_MTurk/v2_DepthDiscrim_HTML.html#4,4,1350,768,1367,768,8-2-2021,5-56-31,63,,,,,,,1756,502,1000,1000,999,500,,4,5,depth_discrimination_stimuli/000866_2014-06-09_20-45-42_260595134347_rgbf000139-resize_1/000866_2014-06-09_20-45-42_260595134347_rgbf000139-resize-original.jpg,3122,884095,1814265,40
670721,DepthScenes,v2_duration_discrimination,discrim_jsons/shuffled_g0.json,http://54.211.221.249/DepthDuration/v2_depth_discrimination_MTurk/v2_DepthDiscrim_HTML.html#4,4,1350,768,1367,768,8-2-2021,5-56-31,64,,,,,,,1756,502,1000,1000,999,500,,3,2,depth_discrimination_stimuli/003587_2014-05-23_16-48-02_094959634447_rgbf002384-resize_2/003587_2014-05-23_16-48-02_094959634447_rgbf002384-resize-original.jpg,2938,884095,1814265,40
670721,DepthScenes,v2_duration_discrimination,discrim_jsons/shuffled_g0.json,http://54.211.221.249/DepthDuration/v2_depth_discrimination_MTurk/v2_DepthDiscrim_HTML.html#4,4,1350,768,1367,768,8-2-2021,5-56-31,65,,,,,,,1756,502,1000,1000,999,500,,4,3,depth_discrimination_stimuli/002568_2014-06-24_13-59-21_094959634447_rgbf000062-resize_4/002568_2014-06-24_13-59-21_094959634447_rgbf000062-resize-original.jpg,2763,884095,1814265,40
670721,DepthScenes,v2_duration_discrimination,discrim_jsons/shuffled_g0.json,http://54.211.221.249/DepthDuration/v2_depth_discrimination_MTurk/v2_DepthDiscrim_HTML.html#4,4,1350,768,1367,768,8-2-2021,5-56-31,66,,,,,,,1756,502,1000,1000,999,500,,5,4,depth_discrimination_stimuli/000009_2014-05-26_14-32-05_260595134347_rgbf000034-resize_3/000009_2014-05-26_14-32-05_260595134347_rgbf000034-resize-original.jpg,2766,884095,1814265,40
670721,DepthScenes,v2_duration_discrimination,discrim_jsons/shuffled_g0.json,http://54.211.221.249/DepthDuration/v2_depth_discrimination_MTurk/v2_DepthDiscrim_HTML.html#4,4,1350,768,1367,768,8-2-2021,5-56-31,67,,,,,,,1756,502,1000,1000,999,500,,3,5,depth_discrimination_stimuli/002750_2014-06-22_19-08-03_094959634447_rgbf000094-resize_4/002750_2014-06-22_19-08-03_094959634447_rgbf000094-resize-original.jpg,3622,884095,1814265,40
670721,DepthScenes,v2_duration_discrimination,discrim_jsons/shuffled_g0.json,http://54.211.221.249/DepthDuration/v2_depth_discrimination_MTurk/v2_DepthDiscrim_HTML.html#4,4,1350,768,1367,768,8-2-2021,5-56-31,68,,,,,,,1756,502,1000,1000,999,500,,2,4,depth_discrimination_stimuli/003490_2014-05-21_15-50-11_094959634447_rgbf000101-resize_3/003490_2014-05-21_15-50-11_094959634447_rgbf000101-resize-original.jpg,2339,884095,1814265,40
670721,DepthScenes,v2_duration_discrimination,discrim_jsons/shuffled_g0.json,http://54.211.221.249/DepthDuration/v2_depth_discrimination_MTurk/v2_DepthDiscrim_HTML.html#4,4,1350,768,1367,768,8-2-2021,5-56-31,69,,,,,,,1756,502,1000,1000,999,500,,3,5,depth_discrimination_stimuli/001555_2014-06-20_17-12-10_260595134347_rgbf000065-resize_4/001555_2014-06-20_17-12-10_260595134347_rgbf000065-resize-original.jpg,1935,884095,1814265,40
670721,DepthScenes,v2_duration_discrimination,discrim_jsons/shuffled_g0.json,http://54.211.221.249/DepthDuration/v2_depth_discrimination_MTurk/v2_DepthDiscrim_HTML.html#4,4,1350,768,1367,768,8-2-2021,5-56-31,70,,,,,,,1756,502,1000,1000,999,500,,4,3,depth_discrimination_stimuli/001244_2014-06-17_16-47-45_260595134347_rgbf000030-resize_4/001244_2014-06-17_16-47-45_260595134347_rgbf000030-resize-original.jpg,1840,884095,1814265,40
670721,DepthScenes,v2_duration_discrimination,discrim_jsons/shuffled_g0.json,http://54.211.221.249/DepthDuration/v2_depth_discrimination_MTurk/v2_DepthDiscrim_HTML.html#4,4,1350,768,1367,768,8-2-2021,5-56-31,71,,,,,,,1756,502,1000,1000,999,500,,5,2,depth_discrimination_stimuli/003492_2014-05-21_15-50-55_094959634447_rgbf000828-resize_1/003492_2014-05-21_15-50-55_094959634447_rgbf000828-resize-original.jpg,2239,884095,1814265,40
670721,DepthScenes,v2_duration_discrimination,discrim_jsons/shuffled_g0.json,http://54.211.221.249/DepthDuration/v2_depth_discrimination_MTurk/v2_DepthDiscrim_HTML.html#4,4,1350,768,1367,768,8-2-2021,5-56-31,72,,,,,,,1756,502,1000,1000,999,500,,3,4,depth_discrimination_stimuli/001055_2014-06-08_18-45-35_260595134347_rgbf000111-resize_4/001055_2014-06-08_18-45-35_260595134347_rgbf000111-resize-original.jpg,2100,884095,1814265,40
670721,DepthScenes,v2_duration_discrimination,discrim_jsons/shuffled_g0.json,http://54.211.221.249/DepthDuration/v2_depth_discrimination_MTurk/v2_DepthDiscrim_HTML.html#4,4,1350,768,1367,768,8-2-2021,5-56-31,73,,,,,,,1756,502,1000,1000,999,500,,4,4,depth_discrimination_stimuli/001136_2014-06-17_15-19-41_260595134347_rgbf000076-resize_3/001136_2014-06-17_15-19-41_260595134347_rgbf000076-resize-original.jpg,13545,884095,1814265,40
670721,DepthScenes,v2_duration_discrimination,discrim_jsons/shuffled_g0.json,http://54.211.221.249/DepthDuration/v2_depth_discrimination_MTurk/v2_DepthDiscrim_HTML.html#4,4,1350,768,1367,768,8-2-2021,5-56-31,74,,,,,,,1756,502,1000,1000,999,500,,3,5,depth_discrimination_stimuli/000409_2014-06-04_19-23-33_260595134347_rgbf000067-resize_0/000409_2014-06-04_19-23-33_260595134347_rgbf000067-resize-original.jpg,3200,884095,1814265,40
670721,DepthScenes,v2_duration_discrimination,discrim_jsons/shuffled_g0.json,http://54.211.221.249/DepthDuration/v2_depth_discrimination_MTurk/v2_DepthDiscrim_HTML.html#4,4,1350,768,1367,768,8-2-2021,5-56-31,75,,,,,,,1756,502,1000,1000,999,500,,4,2,depth_discrimination_stimuli/000810_2014-06-08_17-20-01_260595134347_rgbf000105-resize_0/000810_2014-06-08_17-20-01_260595134347_rgbf000105-resize-original.jpg,2602,884095,1814265,40
670721,DepthScenes,v2_duration_discrimination,discrim_jsons/shuffled_g0.json,http://54.211.221.249/DepthDuration/v2_depth_discrimination_MTurk/v2_DepthDiscrim_HTML.html#4,4,1350,768,1367,768,8-2-2021,5-56-31,76,,,,,,,1756,502,1000,1000,999,500,,4,5,depth_discrimination_stimuli/003129_2014-05-12_10-48-10_094959634447_rgbf000100-resize_0/003129_2014-05-12_10-48-10_094959634447_rgbf000100-resize-original.jpg,3016,884095,1814265,40
670721,DepthScenes,v2_duration_discrimination,discrim_jsons/shuffled_g0.json,http://54.211.221.249/DepthDuration/v2_depth_discrimination_MTurk/v2_DepthDiscrim_HTML.html#4,4,1350,768,1367,768,8-2-2021,5-56-31,77,,,,,,,1756,502,1000,1000,999,500,,3,3,depth_discrimination_stimuli/001199_2014-06-17_16-03-48_260595134347_rgbf000077-resize_0/001199_2014-06-17_16-03-48_260595134347_rgbf000077-resize-original.jpg,1514,884095,1814265,40
670721,DepthScenes,v2_duration_discrimination,discrim_jsons/shuffled_g0.json,http://54.211.221.249/DepthDuration/v2_depth_discrimination_MTurk/v2_DepthDiscrim_HTML.html#4,4,1350,768,1367,768,8-2-2021,5-56-31,78,,,,,,,1756,502,1000,1000,999,500,,4,2,depth_discrimination_stimuli/002663_2014-06-13_15-50-26_094959634447_rgbf000075-resize_1/002663_2014-06-13_15-50-26_094959634447_rgbf000075-resize-original.jpg,2738,884095,1814265,40
670721,DepthScenes,v2_duration_discrimination,discrim_jsons/shuffled_g0.json,http://54.211.221.249/DepthDuration/v2_depth_discrimination_MTurk/v2_DepthDiscrim_HTML.html#4,4,1350,768,1367,768,8-2-2021,5-56-31,79,,,,,,,1756,502,1000,1000,999,500,,3,4,depth_discrimination_stimuli/001150_2014-06-17_15-27-34_260595134347_rgbf000108-resize_2/001150_2014-06-17_15-27-34_260595134347_rgbf000108-resize-original.jpg,3131,884095,1814265,40
670721,DepthScenes,v2_duration_discrimination,discrim_jsons/shuffled_g0.json,http://54.211.221.249/DepthDuration/v2_depth_discrimination_MTurk/v2_DepthDiscrim_HTML.html#4,4,1350,768,1367,768,8-2-2021,5-56-31,80,,,,,,,1756,502,1000,1000,999,500,,5,3,depth_discrimination_stimuli/002445_2014-06-28_20-32-16_260595134347_rgbf000029-resize_4/002445_2014-06-28_20-32-16_260595134347_rgbf000029-resize-original.jpg,1954,884095,1814265,40
670721,DepthScenes,v2_duration_discrimination,discrim_jsons/shuffled_g0.json,http://54.211.221.249/DepthDuration/v2_depth_discrimination_MTurk/v2_DepthDiscrim_HTML.html#4,4,1350,768,1367,768,8-2-2021,5-56-31,81,,,,,,,1756,502,1000,1000,999,500,,4,2,depth_discrimination_stimuli/001188_2014-06-17_15-54-10_260595134347_rgbf000090-resize_2/001188_2014-06-17_15-54-10_260595134347_rgbf000090-resize-original.jpg,2035,884095,1814265,40
670721,DepthScenes,v2_duration_discrimination,discrim_jsons/shuffled_g0.json,http://54.211.221.249/DepthDuration/v2_depth_discrimination_MTurk/v2_DepthDiscrim_HTML.html#4,4,1350,768,1367,768,8-2-2021,5-56-31,82,,,,,,,1756,502,1000,1000,999,500,,5,3,depth_discrimination_stimuli/002444_2014-06-28_20-32-08_260595134347_rgbf000027-resize_0/002444_2014-06-28_20-32-08_260595134347_rgbf000027-resize-original.jpg,2045,884095,1814265,40
670721,DepthScenes,v2_duration_discrimination,discrim_jsons/shuffled_g0.json,http://54.211.221.249/DepthDuration/v2_depth_discrimination_MTurk/v2_DepthDiscrim_HTML.html#4,4,1350,768,1367,768,8-2-2021,5-56-31,83,,,,,,,1756,502,1000,1000,999,500,,2,4,depth_discrimination_stimuli/000665_2014-06-09_20-42-35_260595134347_rgbf000110-resize_1/000665_2014-06-09_20-42-35_260595134347_rgbf000110-resize-original.jpg,2195,884095,1814265,40
670721,DepthScenes,v2_duration_discrimination,discrim_jsons/shuffled_g0.json,http://54.211.221.249/DepthDuration/v2_depth_discrimination_MTurk/v2_DepthDiscrim_HTML.html#4,4,1350,768,1367,768,8-2-2021,5-56-31,84,,,,,,,1756,502,1000,1000,999,500,,3,5,depth_discrimination_stimuli/003534_2014-05-22_15-06-10_094959634447_rgbf000102-resize_4/003534_2014-05-22_15-06-10_094959634447_rgbf000102-resize-original.jpg,2308,884095,1814265,40
670721,DepthScenes,v2_duration_discrimination,discrim_jsons/shuffled_g0.json,http://54.211.221.249/DepthDuration/v2_depth_discrimination_MTurk/v2_DepthDiscrim_HTML.html#4,4,1350,768,1367,768,8-2-2021,5-56-31,85,,,,,,,1756,502,1000,1000,999,500,,4,3,depth_discrimination_stimuli/003079_2014-06-15_15-18-20_094959634447_rgbf000152-resize_8/003079_2014-06-15_15-18-20_094959634447_rgbf000152-resize-original.jpg,2820,884095,1814265,40
670721,DepthScenes,v2_duration_discrimination,discrim_jsons/shuffled_g0.json,http://54.211.221.249/DepthDuration/v2_depth_discrimination_MTurk/v2_DepthDiscrim_HTML.html#4,4,1350,768,1367,768,8-2-2021,5-56-31,86,,,,,,,1756,502,1000,1000,999,500,,2,4,depth_discrimination_stimuli/001016_2014-06-09_16-16-10_260595134347_rgbf000112-resize_5/001016_2014-06-09_16-16-10_260595134347_rgbf000112-resize-original.jpg,3111,884095,1814265,40
670721,DepthScenes,v2_duration_discrimination,discrim_jsons/shuffled_g0.json,http://54.211.221.249/DepthDuration/v2_depth_discrimination_MTurk/v2_DepthDiscrim_HTML.html#4,4,1350,768,1367,768,8-2-2021,5-56-31,87,,,,,,,1756,502,1000,1000,999,500,,5,3,depth_discrimination_stimuli/002570_2014-06-24_13-59-54_094959634447_rgbf000059-resize_0/002570_2014-06-24_13-59-54_094959634447_rgbf000059-resize-original.jpg,2779,884095,1814265,40
670721,DepthScenes,v2_duration_discrimination,discrim_jsons/shuffled_g0.json,http://54.211.221.249/DepthDuration/v2_depth_discrimination_MTurk/v2_DepthDiscrim_HTML.html#4,4,1350,768,1367,768,8-2-2021,5-56-31,88,,,,,,,1756,502,1000,1000,999,500,,4,4,depth_discrimination_stimuli/002279_2014-06-28_18-55-32_260595134347_rgbf000040-resize_5/002279_2014-06-28_18-55-32_260595134347_rgbf000040-resize-original.jpg,1161,884095,1814265,40
670721,DepthScenes,v2_duration_discrimination,discrim_jsons/shuffled_g0.json,http://54.211.221.249/DepthDuration/v2_depth_discrimination_MTurk/v2_DepthDiscrim_HTML.html#4,4,1350,768,1367,768,8-2-2021,5-56-31,89,,,,,,,1756,502,1000,1000,999,500,,3,4,depth_discrimination_stimuli/002464_2014-06-28_20-36-57_260595134347_rgbf000029-resize_0/002464_2014-06-28_20-36-57_260595134347_rgbf000029-resize-original.jpg,15600,884095,1814265,40
670721,DepthScenes,v2_duration_discrimination,discrim_jsons/shuffled_g0.json,http://54.211.221.249/DepthDuration/v2_depth_discrimination_MTurk/v2_DepthDiscrim_HTML.html#4,4,1350,768,1367,768,8-2-2021,5-56-31,90,,,,,,,1756,502,1000,1000,999,500,,2,5,depth_discrimination_stimuli/002549_2014-06-24_13-41-39_094959634447_rgbf000022-resize_3/002549_2014-06-24_13-41-39_094959634447_rgbf000022-resize-original.jpg,2629,884095,1814265,40
670721,DepthScenes,v2_duration_discrimination,discrim_jsons/shuffled_g0.json,http://54.211.221.249/DepthDuration/v2_depth_discrimination_MTurk/v2_DepthDiscrim_HTML.html#4,4,1350,768,1367,768,8-2-2021,5-56-31,91,,,,,,,1756,502,1000,1000,999,500,,2,1,depth_discrimination_stimuli/000414_2014-06-04_19-49-13_260595134347_rgbf000044-resize_0/000414_2014-06-04_19-49-13_260595134347_rgbf000044-resize-original.jpg,3625,884095,1814265,40
670721,DepthScenes,v2_duration_discrimination,discrim_jsons/shuffled_g0.json,http://54.211.221.249/DepthDuration/v2_depth_discrimination_MTurk/v2_DepthDiscrim_HTML.html#4,4,1350,768,1367,768,8-2-2021,5-56-31,92,,,,,,,1756,502,1000,1000,999,500,,3,4,depth_discrimination_stimuli/002509_2014-06-24_13-19-22_094959634447_rgbf000077-resize_0/002509_2014-06-24_13-19-22_094959634447_rgbf000077-resize-original.jpg,2318,884095,1814265,40
670721,DepthScenes,v2_duration_discrimination,discrim_jsons/shuffled_g0.json,http://54.211.221.249/DepthDuration/v2_depth_discrimination_MTurk/v2_DepthDiscrim_HTML.html#4,4,1350,768,1367,768,8-2-2021,5-56-31,93,,,,,,,1756,502,1000,1000,999,500,,5,2,depth_discrimination_stimuli/002989_2014-06-15_12-25-03_094959634447_rgbf000150-resize_3/002989_2014-06-15_12-25-03_094959634447_rgbf000150-resize-original.jpg,2729,884095,1814265,40
670721,DepthScenes,v2_duration_discrimination,discrim_jsons/shuffled_g0.json,http://54.211.221.249/DepthDuration/v2_depth_discrimination_MTurk/v2_DepthDiscrim_HTML.html#4,4,1350,768,1367,768,8-2-2021,5-56-31,94,,,,,,,1756,502,1000,1000,999,500,,3,4,depth_discrimination_stimuli/001289_2014-06-16_16-25-52_260595134347_rgbf000067-resize_1/001289_2014-06-16_16-25-52_260595134347_rgbf000067-resize-original.jpg,1976,884095,1814265,40
670721,DepthScenes,v2_duration_discrimination,discrim_jsons/shuffled_g0.json,http://54.211.221.249/DepthDuration/v2_depth_discrimination_MTurk/v2_DepthDiscrim_HTML.html#4,4,1350,768,1367,768,8-2-2021,5-56-31,95,,,,,,,1756,502,1000,1000,999,500,,5,3,depth_discrimination_stimuli/002209_2014-06-28_18-36-10_260595134347_rgbf000051-resize_1/002209_2014-06-28_18-36-10_260595134347_rgbf000051-resize-original.jpg,2383,884095,1814265,40
670721,DepthScenes,v2_duration_discrimination,discrim_jsons/shuffled_g0.json,http://54.211.221.249/DepthDuration/v2_depth_discrimination_MTurk/v2_DepthDiscrim_HTML.html#4,4,1350,768,1367,768,8-2-2021,5-56-31,96,,,,,,,1756,502,1000,1000,999,500,,2,4,depth_discrimination_stimuli/000800_2014-06-08_22-42-09_260595134347_rgbf000095-resize_3/000800_2014-06-08_22-42-09_260595134347_rgbf000095-resize-original.jpg,2189,884095,1814265,40
670721,DepthScenes,v2_duration_discrimination,discrim_jsons/shuffled_g0.json,http://54.211.221.249/DepthDuration/v2_depth_discrimination_MTurk/v2_DepthDiscrim_HTML.html#4,4,1350,768,1367,768,8-2-2021,5-56-31,97,,,,,,,1756,502,1000,1000,999,500,,3,5,depth_discrimination_stimuli/000642_2014-06-08_16-59-25_260595134347_rgbf000098-resize_2/000642_2014-06-08_16-59-25_260595134347_rgbf000098-resize-original.jpg,2642,884095,1814265,40
670721,DepthScenes,v2_duration_discrimination,discrim_jsons/shuffled_g0.json,http://54.211.221.249/DepthDuration/v2_depth_discrimination_MTurk/v2_DepthDiscrim_HTML.html#4,4,1350,768,1367,768,8-2-2021,5-56-31,98,,,,,,,1756,502,1000,1000,999,500,,3,4,depth_discrimination_stimuli/000483_2014-06-09_20-41-45_260595134347_rgbf000116-resize_4/000483_2014-06-09_20-41-45_260595134347_rgbf000116-resize-original.jpg,3368,884095,1814265,40
670721,DepthScenes,v2_duration_discrimination,discrim_jsons/shuffled_g0.json,http://54.211.221.249/DepthDuration/v2_depth_discrimination_MTurk/v2_DepthDiscrim_HTML.html#4,4,1350,768,1367,768,8-2-2021,5-56-31,99,,,,,,,1756,502,1000,1000,999,500,,3,4,depth_discrimination_stimuli/002758_2014-06-22_19-11-20_094959634447_rgbf000128-resize_1/002758_2014-06-22_19-11-20_094959634447_rgbf000128-resize-original.jpg,2439,884095,1814265,40
670721,DepthScenes,v2_duration_discrimination,discrim_jsons/shuffled_g0.json,http://54.211.221.249/DepthDuration/v2_depth_discrimination_MTurk/v2_DepthDiscrim_HTML.html#4,4,1350,768,1367,768,8-2-2021,5-56-31,100,,,,,,,1756,502,1000,1000,999,500,,5,3,depth_discrimination_stimuli/001094_2014-06-15_17-36-00_260595134347_rgbf000205-resize_0/001094_2014-06-15_17-36-00_260595134347_rgbf000205-resize-original.jpg,2073,884095,1814265,40
670721,DepthScenes,v2_duration_discrimination,discrim_jsons/shuffled_g0.json,http://54.211.221.249/DepthDuration/v2_depth_discrimination_MTurk/v2_DepthDiscrim_HTML.html#4,4,1350,768,1367,768,8-2-2021,5-56-31,101,,,,,,,1756,502,1000,1000,999,500,,2,4,depth_discrimination_stimuli/002545_2014-06-24_13-38-53_094959634447_rgbf000080-resize_4/002545_2014-06-24_13-38-53_094959634447_rgbf000080-resize-original.jpg,2384,884095,1814265,40
670721,DepthScenes,v2_duration_discrimination,discrim_jsons/shuffled_g0.json,http://54.211.221.249/DepthDuration/v2_depth_discrimination_MTurk/v2_DepthDiscrim_HTML.html#4,4,1350,768,1367,768,8-2-2021,5-56-31,102,,,,,,,1756,502,1000,1000,999,500,,5,3,depth_discrimination_stimuli/000635_2014-06-08_16-38-42_260595134347_rgbf000106-resize_1/000635_2014-06-08_16-38-42_260595134347_rgbf000106-resize-original.jpg,2370,884095,1814265,40
670721,DepthScenes,v2_duration_discrimination,discrim_jsons/shuffled_g0.json,http://54.211.221.249/DepthDuration/v2_depth_discrimination_MTurk/v2_DepthDiscrim_HTML.html#4,4,1350,768,1367,768,8-2-2021,5-56-31,103,,,,,,,1756,502,1000,1000,999,500,,4,2,depth_discrimination_stimuli/002139_2014-06-25_21-19-37_260595134347_rgbf000124-resize_2/002139_2014-06-25_21-19-37_260595134347_rgbf000124-resize-original.jpg,2220,884095,1814265,40
670721,DepthScenes,v2_duration_discrimination,discrim_jsons/shuffled_g0.json,http://54.211.221.249/DepthDuration/v2_depth_discrimination_MTurk/v2_DepthDiscrim_HTML.html#4,4,1350,768,1367,768,8-2-2021,5-56-31,104,,,,,,,1756,502,1000,1000,999,500,,3,4,scene_property_catch_stimuli/sun_aoquhiddlfqapdlz.jpg,1949,884095,1814265,40
670721,DepthScenes,v2_duration_discrimination,discrim_jsons/shuffled_g0.json,http://54.211.221.249/DepthDuration/v2_depth_discrimination_MTurk/v2_DepthDiscrim_HTML.html#4,4,1350,768,1367,768,8-2-2021,5-56-31,105,,,,,,,1756,502,1000,1000,999,500,,5,2,depth_discrimination_stimuli/002340_2014-06-28_20-05-46_260595134347_rgbf000113-resize_0/002340_2014-06-28_20-05-46_260595134347_rgbf000113-resize-original.jpg,2420,884095,1814265,40
670721,DepthScenes,v2_duration_discrimination,discrim_jsons/shuffled_g0.json,http://54.211.221.249/DepthDuration/v2_depth_discrimination_MTurk/v2_DepthDiscrim_HTML.html#4,4,1350,768,1367,768,8-2-2021,5-56-31,106,,,,,,,1756,502,1000,1000,999,500,,1,3,depth_discrimination_stimuli/000773_2014-06-08_22-24-54_260595134347_rgbf000093-resize_1/000773_2014-06-08_22-24-54_260595134347_rgbf000093-resize-original.jpg,2140,884095,1814265,40
670721,DepthScenes,v2_duration_discrimination,discrim_jsons/shuffled_g0.json,http://54.211.221.249/DepthDuration/v2_depth_discrimination_MTurk/v2_DepthDiscrim_HTML.html#4,4,1350,768,1367,768,8-2-2021,5-56-31,107,,,,,,,1756,502,1000,1000,999,500,,4,5,depth_discrimination_stimuli/000556_2014-06-09_22-42-56_260595134347_rgbf000214-resize_1/000556_2014-06-09_22-42-56_260595134347_rgbf000214-resize-original.jpg,2043,884095,1814265,40
670721,DepthScenes,v2_duration_discrimination,discrim_jsons/shuffled_g0.json,http://54.211.221.249/DepthDuration/v2_depth_discrimination_MTurk/v2_DepthDiscrim_HTML.html#4,4,1350,768,1367,768,8-2-2021,5-56-31,108,,,,,,,1756,502,1000,1000,999,500,,4,3,depth_discrimination_stimuli/000682_2014-06-08_23-14-58_260595134347_rgbf000041-resize_5/000682_2014-06-08_23-14-58_260595134347_rgbf000041-resize-original.jpg,1578,884095,1814265,40
670721,DepthScenes,v2_duration_discrimination,discrim_jsons/shuffled_g0.json,http://54.211.221.249/DepthDuration/v2_depth_discrimination_MTurk/v2_DepthDiscrim_HTML.html#4,4,1350,768,1367,768,8-2-2021,5-56-31,109,,,,,,,1756,502,1000,1000,999,500,,3,4,depth_discrimination_stimuli/002953_2014-06-08_17-32-18_094959634447_rgbf000059-resize_5/002953_2014-06-08_17-32-18_094959634447_rgbf000059-resize-original.jpg,37617,884095,1814265,40
670721,DepthScenes,v2_duration_discrimination,discrim_jsons/shuffled_g0.json,http://54.211.221.249/DepthDuration/v2_depth_discrimination_MTurk/v2_DepthDiscrim_HTML.html#4,4,1350,768,1367,768,8-2-2021,5-56-31,110,,,,,,,1756,502,1000,1000,999,500,,2,3,depth_discrimination_stimuli/002131_2014-06-25_21-12-01_260595134347_rgbf000083-resize_0/002131_2014-06-25_21-12-01_260595134347_rgbf000083-resize-original.jpg,2363,884095,1814265,40
670721,DepthScenes,v2_duration_discrimination,discrim_jsons/shuffled_g0.json,http://54.211.221.249/DepthDuration/v2_depth_discrimination_MTurk/v2_DepthDiscrim_HTML.html#4,4,1350,768,1367,768,8-2-2021,5-56-31,111,,,,,,,1756,502,1000,1000,999,500,,4,5,depth_discrimination_stimuli/000758_2014-06-08_22-05-08_260595134347_rgbf000085-resize_0/000758_2014-06-08_22-05-08_260595134347_rgbf000085-resize-original.jpg,2344,884095,1814265,40
670721,DepthScenes,v2_duration_discrimination,discrim_jsons/shuffled_g0.json,http://54.211.221.249/DepthDuration/v2_depth_discrimination_MTurk/v2_DepthDiscrim_HTML.html#4,4,1350,768,1367,768,8-2-2021,5-56-31,112,,,,,,,1756,502,1000,1000,999,500,,4,3,depth_discrimination_stimuli/001052_2014-06-08_18-24-54_260595134347_rgbf000130-resize_1/001052_2014-06-08_18-24-54_260595134347_rgbf000130-resize-original.jpg,1689,884095,1814265,40
670721,DepthScenes,v2_duration_discrimination,discrim_jsons/shuffled_g0.json,http://54.211.221.249/DepthDuration/v2_depth_discrimination_MTurk/v2_DepthDiscrim_HTML.html#4,4,1350,768,1367,768,8-2-2021,5-56-31,113,,,,,,,1756,502,1000,1000,999,500,,2,4,depth_discrimination_stimuli/000734_2014-06-08_17-39-11_260595134347_rgbf000128-resize_2/000734_2014-06-08_17-39-11_260595134347_rgbf000128-resize-original.jpg,1911,884095,1814265,40
670721,DepthScenes,v2_duration_discrimination,discrim_jsons/shuffled_g0.json,http://54.211.221.249/DepthDuration/v2_depth_discrimination_MTurk/v2_DepthDiscrim_HTML.html#4,4,1350,768,1367,768,8-2-2021,5-56-31,114,,,,,,,1756,502,1000,1000,999,500,,3,5,depth_discrimination_stimuli/002118_2014-06-25_20-32-08_260595134347_rgbf000078-resize_1/002118_2014-06-25_20-32-08_260595134347_rgbf000078-resize-original.jpg,1854,884095,1814265,40
670721,DepthScenes,v2_duration_discrimination,discrim_jsons/shuffled_g0.json,http://54.211.221.249/DepthDuration/v2_depth_discrimination_MTurk/v2_DepthDiscrim_HTML.html#4,4,1350,768,1367,768,8-2-2021,5-56-31,115,,,,,,,1756,502,1000,1000,999,500,,4,3,depth_discrimination_stimuli/003228_2014-05-14_13-42-35_094959634447_rgbf000101-resize_1/003228_2014-05-14_13-42-35_094959634447_rgbf000101-resize-original.jpg,1685,884095,1814265,40
670721,DepthScenes,v2_duration_discrimination,discrim_jsons/shuffled_g0.json,http://54.211.221.249/DepthDuration/v2_depth_discrimination_MTurk/v2_DepthDiscrim_HTML.html#4,4,1350,768,1367,768,8-2-2021,5-56-31,116,,,,,,,1756,502,1000,1000,999,500,,2,4,depth_discrimination_stimuli/003338_2014-05-20_11-01-23_094959634447_rgbf000051-resize_6/003338_2014-05-20_11-01-23_094959634447_rgbf000051-resize-original.jpg,1874,884095,1814265,40
670721,DepthScenes,v2_duration_discrimination,discrim_jsons/shuffled_g0.json,http://54.211.221.249/DepthDuration/v2_depth_discrimination_MTurk/v2_DepthDiscrim_HTML.html#4,4,1350,768,1367,768,8-2-2021,5-56-31,117,,,,,,,1756,502,1000,1000,999,500,,3,4,depth_discrimination_stimuli/002600_2014-06-24_14-27-04_094959634447_rgbf000074-resize_2/002600_2014-06-24_14-27-04_094959634447_rgbf000074-resize-original.jpg,1713,884095,1814265,40
670721,DepthScenes,v2_duration_discrimination,discrim_jsons/shuffled_g0.json,http://54.211.221.249/DepthDuration/v2_depth_discrimination_MTurk/v2_DepthDiscrim_HTML.html#4,4,1350,768,1367,768,8-2-2021,5-56-31,118,,,,,,,1756,502,1000,1000,999,500,,5,3,depth_discrimination_stimuli/000436_2014-06-09_22-25-11_260595134347_rgbf000137-resize_1/000436_2014-06-09_22-25-11_260595134347_rgbf000137-resize-original.jpg,1995,884095,1814265,40
670721,DepthScenes,v2_duration_discrimination,discrim_jsons/shuffled_g0.json,http://54.211.221.249/DepthDuration/v2_depth_discrimination_MTurk/v2_DepthDiscrim_HTML.html#4,4,1350,768,1367,768,8-2-2021,5-56-31,119,,,,,,,1756,502,1000,1000,999,500,,4,3,depth_discrimination_stimuli/002725_2014-06-22_11-47-51_094959634447_rgbf000070-resize_1/002725_2014-06-22_11-47-51_094959634447_rgbf000070-resize-original.jpg,35476,884095,1814265,40
670721,DepthScenes,v2_duration_discrimination,discrim_jsons/shuffled_g0.json,http://54.211.221.249/DepthDuration/v2_depth_discrimination_MTurk/v2_DepthDiscrim_HTML.html#4,4,1350,768,1367,768,8-2-2021,5-56-31,120,,,,,,,1756,502,1000,1000,999,500,,5,4,depth_discrimination_stimuli/000457_2014-06-08_16-52-43_260595134347_rgbf000199-resize_1/000457_2014-06-08_16-52-43_260595134347_rgbf000199-resize-original.jpg,1809,884095,1814265,40
670721,DepthScenes,v2_duration_discrimination,discrim_jsons/shuffled_g0.json,http://54.211.221.249/DepthDuration/v2_depth_discrimination_MTurk/v2_DepthDiscrim_HTML.html#4,4,1350,768,1367,768,8-2-2021,5-56-31,121,,,,,,,1756,502,1000,1000,999,500,,2,3,depth_discrimination_stimuli/000522_2014-06-08_13-35-06_260595134347_rgbf000244-resize_1/000522_2014-06-08_13-35-06_260595134347_rgbf000244-resize-original.jpg,1568,884095,1814265,40
670721,DepthScenes,v2_duration_discrimination,discrim_jsons/shuffled_g0.json,http://54.211.221.249/DepthDuration/v2_depth_discrimination_MTurk/v2_DepthDiscrim_HTML.html#4,4,1350,768,1367,768,8-2-2021,5-56-31,122,,,,,,,1756,502,1000,1000,999,500,,4,5,depth_discrimination_stimuli/002272_2014-06-28_18-53-56_260595134347_rgbf000067-resize_2/002272_2014-06-28_18-53-56_260595134347_rgbf000067-resize-original.jpg,2210,884095,1814265,40
670721,DepthScenes,v2_duration_discrimination,discrim_jsons/shuffled_g0.json,http://54.211.221.249/DepthDuration/v2_depth_discrimination_MTurk/v2_DepthDiscrim_HTML.html#4,4,1350,768,1367,768,8-2-2021,5-56-31,123,,,,,,,1756,502,1000,1000,999,500,,3,4,depth_discrimination_stimuli/002365_2014-06-28_20-11-21_260595134347_rgbf000102-resize_1/002365_2014-06-28_20-11-21_260595134347_rgbf000102-resize-original.jpg,1846,884095,1814265,40
670721,DepthScenes,v2_duration_discrimination,discrim_jsons/shuffled_g0.json,http://54.211.221.249/DepthDuration/v2_depth_discrimination_MTurk/v2_DepthDiscrim_HTML.html#4,4,1350,768,1367,768,8-2-2021,5-56-31,124,,,,,,,1756,502,1000,1000,999,500,,2,5,depth_discrimination_stimuli/001148_2014-06-17_15-26-42_260595134347_rgbf000129-resize_0/001148_2014-06-17_15-26-42_260595134347_rgbf000129-resize-original.jpg,2183,884095,1814265,40
670721,DepthScenes,v2_duration_discrimination,discrim_jsons/shuffled_g0.json,http://54.211.221.249/DepthDuration/v2_depth_discrimination_MTurk/v2_DepthDiscrim_HTML.html#4,4,1350,768,1367,768,8-2-2021,5-56-31,125,,,,,,,1756,502,1000,1000,999,500,,4,3,depth_discrimination_stimuli/000521_2014-06-08_13-34-35_260595134347_rgbf000191-resize_2/000521_2014-06-08_13-34-35_260595134347_rgbf000191-resize-original.jpg,1761,884095,1814265,40
670721,DepthScenes,v2_duration_discrimination,discrim_jsons/shuffled_g0.json,http://54.211.221.249/DepthDuration/v2_depth_discrimination_MTurk/v2_DepthDiscrim_HTML.html#4,4,1350,768,1367,768,8-2-2021,5-56-31,126,,,,,,,1756,502,1000,1000,999,500,,5,5,depth_discrimination_stimuli/002748_2014-06-22_19-07-22_094959634447_rgbf000078-resize_1/002748_2014-06-22_19-07-22_094959634447_rgbf000078-resize-original.jpg,1019,884095,1814265,40
670721,DepthScenes,v2_duration_discrimination,discrim_jsons/shuffled_g0.json,http://54.211.221.249/DepthDuration/v2_depth_discrimination_MTurk/v2_DepthDiscrim_HTML.html#4,4,1350,768,1367,768,8-2-2021,5-56-31,127,,,,,,,1756,502,1000,1000,999,500,,3,2,depth_discrimination_stimuli/000691_2014-06-08_13-08-50_260595134347_rgbf000132-resize_3/000691_2014-06-08_13-08-50_260595134347_rgbf000132-resize-original.jpg,1651,884095,1814265,40
670721,DepthScenes,v2_duration_discrimination,discrim_jsons/shuffled_g0.json,http://54.211.221.249/DepthDuration/v2_depth_discrimination_MTurk/v2_DepthDiscrim_HTML.html#4,4,1350,768,1367,768,8-2-2021,5-56-31,128,,,,,,,1756,502,1000,1000,999,500,,4,3,depth_discrimination_stimuli/003092_2014-06-24_21-01-49_094959634447_rgbf000049-resize_2/003092_2014-06-24_21-01-49_094959634447_rgbf000049-resize-original.jpg,2030,884095,1814265,40
670721,DepthScenes,v2_duration_discrimination,discrim_jsons/shuffled_g0.json,http://54.211.221.249/DepthDuration/v2_depth_discrimination_MTurk/v2_DepthDiscrim_HTML.html#4,4,1350,768,1367,768,8-2-2021,5-56-31,129,,,,,,,1756,502,1000,1000,999,500,,5,4,depth_discrimination_stimuli/001029_2014-06-08_13-17-57_260595134347_rgbf000065-resize_1/001029_2014-06-08_13-17-57_260595134347_rgbf000065-resize-original.jpg,1943,884095,1814265,40
670721,DepthScenes,v2_duration_discrimination,discrim_jsons/shuffled_g0.json,http://54.211.221.249/DepthDuration/v2_depth_discrimination_MTurk/v2_DepthDiscrim_HTML.html#4,4,1350,768,1367,768,8-2-2021,5-56-31,130,,,,,,,1756,502,1000,1000,999,500,,2,4,depth_discrimination_stimuli/002964_2014-06-08_17-46-11_094959634447_rgbf000091-resize_4/002964_2014-06-08_17-46-11_094959634447_rgbf000091-resize-original.jpg,2156,884095,1814265,40
670721,DepthScenes,v2_duration_discrimination,discrim_jsons/shuffled_g0.json,http://54.211.221.249/DepthDuration/v2_depth_discrimination_MTurk/v2_DepthDiscrim_HTML.html#4,4,1350,768,1367,768,8-2-2021,5-56-31,131,,,,,,,1756,502,1000,1000,999,500,,3,5,depth_discrimination_stimuli/000780_2014-06-08_22-28-29_260595134347_rgbf000126-resize_1/000780_2014-06-08_22-28-29_260595134347_rgbf000126-resize-original.jpg,2009,884095,1814265,40
670721,DepthScenes,v2_duration_discrimination,discrim_jsons/shuffled_g0.json,http://54.211.221.249/DepthDuration/v2_depth_discrimination_MTurk/v2_DepthDiscrim_HTML.html#4,4,1350,768,1367,768,8-2-2021,5-56-31,132,,,,,,,1756,502,1000,1000,999,500,,4,3,depth_discrimination_stimuli/001056_2014-06-08_18-46-44_260595134347_rgbf000068-resize_0/001056_2014-06-08_18-46-44_260595134347_rgbf000068-resize-original.jpg,2519,884095,1814265,40
670721,DepthScenes,v2_duration_discrimination,discrim_jsons/shuffled_g0.json,http://54.211.221.249/DepthDuration/v2_depth_discrimination_MTurk/v2_DepthDiscrim_HTML.html#4,4,1350,768,1367,768,8-2-2021,5-56-31,133,,,,,,,1756,502,1000,1000,999,500,,4,5,depth_discrimination_stimuli/003081_2014-06-15_15-19-16_094959634447_rgbf000150-resize_1/003081_2014-06-15_15-19-16_094959634447_rgbf000150-resize-original.jpg,1579,884095,1814265,40
670721,DepthScenes,v2_duration_discrimination,discrim_jsons/shuffled_g0.json,http://54.211.221.249/DepthDuration/v2_depth_discrimination_MTurk/v2_DepthDiscrim_HTML.html#4,4,1350,768,1367,768,8-2-2021,5-56-31,134,,,,,,,1756,502,1000,1000,999,500,,4,3,depth_discrimination_stimuli/001011_2014-06-08_23-18-54_260595134347_rgbf000044-resize_4/001011_2014-06-08_23-18-54_260595134347_rgbf000044-resize-original.jpg,7001,884095,1814265,40
670721,DepthScenes,v2_duration_discrimination,discrim_jsons/shuffled_g0.json,http://54.211.221.249/DepthDuration/v2_depth_discrimination_MTurk/v2_DepthDiscrim_HTML.html#4,4,1350,768,1367,768,8-2-2021,5-56-31,135,,,,,,,1756,502,1000,1000,999,500,,5,4,depth_discrimination_stimuli/001158_2014-06-17_15-32-16_260595134347_rgbf000138-resize_2/001158_2014-06-17_15-32-16_260595134347_rgbf000138-resize-original.jpg,1909,884095,1814265,40
670721,DepthScenes,v2_duration_discrimination,discrim_jsons/shuffled_g0.json,http://54.211.221.249/DepthDuration/v2_depth_discrimination_MTurk/v2_DepthDiscrim_HTML.html#4,4,1350,768,1367,768,8-2-2021,5-56-31,136,,,,,,,1756,502,1000,1000,999,500,,2,3,depth_discrimination_stimuli/001092_2014-06-15_17-34-58_260595134347_rgbf000171-resize_3/001092_2014-06-15_17-34-58_260595134347_rgbf000171-resize-original.jpg,1787,884095,1814265,40
670721,DepthScenes,v2_duration_discrimination,discrim_jsons/shuffled_g0.json,http://54.211.221.249/DepthDuration/v2_depth_discrimination_MTurk/v2_DepthDiscrim_HTML.html#4,4,1350,768,1367,768,8-2-2021,5-56-31,137,,,,,,,1756,502,1000,1000,999,500,,4,5,depth_discrimination_stimuli/001110_2014-06-15_17-25-28_260595134347_rgbf000150-resize_1/001110_2014-06-15_17-25-28_260595134347_rgbf000150-resize-original.jpg,3011,884095,1814265,40
670721,DepthScenes,v2_duration_discrimination,discrim_jsons/shuffled_g0.json,http://54.211.221.249/DepthDuration/v2_depth_discrimination_MTurk/v2_DepthDiscrim_HTML.html#4,4,1350,768,1367,768,8-2-2021,5-56-31,138,,,,,,,1756,502,1000,1000,999,500,,4,3,depth_discrimination_stimuli/000555_2014-06-09_22-42-23_260595134347_rgbf000037-resize_4/000555_2014-06-09_22-42-23_260595134347_rgbf000037-resize-original.jpg,2742,884095,1814265,40
670721,DepthScenes,v2_duration_discrimination,discrim_jsons/shuffled_g0.json,http://54.211.221.249/DepthDuration/v2_depth_discrimination_MTurk/v2_DepthDiscrim_HTML.html#4,4,1350,768,1367,768,8-2-2021,5-56-31,139,,,,,,,1756,502,1000,1000,999,500,,4,2,depth_discrimination_stimuli/002660_2014-06-13_15-44-18_094959634447_rgbf001878-resize_2/002660_2014-06-13_15-44-18_094959634447_rgbf001878-resize-original.jpg,1912,884095,1814265,40
670721,DepthScenes,v2_duration_discrimination,discrim_jsons/shuffled_g0.json,http://54.211.221.249/DepthDuration/v2_depth_discrimination_MTurk/v2_DepthDiscrim_HTML.html#4,4,1350,768,1367,768,8-2-2021,5-56-31,140,,,,,,,1756,502,1000,1000,999,500,,5,4,depth_discrimination_stimuli/001066_2014-06-08_22-03-20_260595134347_rgbf000066-resize_4/001066_2014-06-08_22-03-20_260595134347_rgbf000066-resize-original.jpg,2215,884095,1814265,40
670721,DepthScenes,v2_duration_discrimination,discrim_jsons/shuffled_g0.json,http://54.211.221.249/DepthDuration/v2_depth_discrimination_MTurk/v2_DepthDiscrim_HTML.html#4,4,1350,768,1367,768,8-2-2021,5-56-31,141,,,,,,,1756,502,1000,1000,999,500,,3,5,depth_discrimination_stimuli/000447_2014-06-08_16-15-46_260595134347_rgbf000130-resize_1/000447_2014-06-08_16-15-46_260595134347_rgbf000130-resize-original.jpg,1846,884095,1814265,40
670721,DepthScenes,v2_duration_discrimination,discrim_jsons/shuffled_g0.json,http://54.211.221.249/DepthDuration/v2_depth_discrimination_MTurk/v2_DepthDiscrim_HTML.html#4,4,1350,768,1367,768,8-2-2021,5-56-31,142,,,,,,,1756,502,1000,1000,999,500,,4,3,depth_discrimination_stimuli/003495_2014-05-21_16-01-51_094959634447_rgbf000100-resize_3/003495_2014-05-21_16-01-51_094959634447_rgbf000100-resize-original.jpg,2174,884095,1814265,40
670721,DepthScenes,v2_duration_discrimination,discrim_jsons/shuffled_g0.json,http://54.211.221.249/DepthDuration/v2_depth_discrimination_MTurk/v2_DepthDiscrim_HTML.html#4,4,1350,768,1367,768,8-2-2021,5-56-31,143,,,,,,,1756,502,1000,1000,999,500,,2,4,depth_discrimination_stimuli/002057_2014-06-24_21-00-13_260595134347_rgbf000120-resize_1/002057_2014-06-24_21-00-13_260595134347_rgbf000120-resize-original.jpg,2233,884095,1814265,40
670721,DepthScenes,v2_duration_discrimination,discrim_jsons/shuffled_g0.json,http://54.211.221.249/DepthDuration/v2_depth_discrimination_MTurk/v2_DepthDiscrim_HTML.html#4,4,1350,768,1367,768,8-2-2021,5-56-31,144,,,,,,,1756,502,1000,1000,999,500,,3,5,depth_discrimination_stimuli/000753_2014-06-08_21-57-44_260595134347_rgbf000123-resize_3/000753_2014-06-08_21-57-44_260595134347_rgbf000123-resize-original.jpg,2031,884095,1814265,40
670721,DepthScenes,v2_duration_discrimination,discrim_jsons/shuffled_g0.json,http://54.211.221.249/DepthDuration/v2_depth_discrimination_MTurk/v2_DepthDiscrim_HTML.html#4,4,1350,768,1367,768,8-2-2021,5-56-31,145,,,,,,,1756,502,1000,1000,999,500,,4,2,depth_discrimination_stimuli/002784_2014-06-22_19-26-30_094959634447_rgbf000083-resize_3/002784_2014-06-22_19-26-30_094959634447_rgbf000083-resize-original.jpg,1984,884095,1814265,40
670721,DepthScenes,v2_duration_discrimination,discrim_jsons/shuffled_g0.json,http://54.211.221.249/DepthDuration/v2_depth_discrimination_MTurk/v2_DepthDiscrim_HTML.html#4,4,1350,768,1367,768,8-2-2021,5-56-31,146,,,,,,,1756,502,1000,1000,999,500,,3,4,depth_discrimination_stimuli/002305_2014-06-28_19-56-50_260595134347_rgbf000102-resize_7/002305_2014-06-28_19-56-50_260595134347_rgbf000102-resize-original.jpg,2460,884095,1814265,40
670721,DepthScenes,v2_duration_discrimination,discrim_jsons/shuffled_g0.json,http://54.211.221.249/DepthDuration/v2_depth_discrimination_MTurk/v2_DepthDiscrim_HTML.html#4,4,1350,768,1367,768,8-2-2021,5-56-31,147,,,,,,,1756,502,1000,1000,999,500,,5,3,depth_discrimination_stimuli/002579_2014-06-24_14-08-03_094959634447_rgbf000061-resize_2/002579_2014-06-24_14-08-03_094959634447_rgbf000061-resize-original.jpg,2448,884095,1814265,40
670721,DepthScenes,v2_duration_discrimination,discrim_jsons/shuffled_g0.json,http://54.211.221.249/DepthDuration/v2_depth_discrimination_MTurk/v2_DepthDiscrim_HTML.html#4,4,1350,768,1367,768,8-2-2021,5-56-31,148,,,,,,,1756,502,1000,1000,999,500,,4,2,depth_discrimination_stimuli/002995_2014-06-15_12-31-26_094959634447_rgbf000150-resize_1/002995_2014-06-15_12-31-26_094959634447_rgbf000150-resize-original.jpg,2290,884095,1814265,40
670721,DepthScenes,v2_duration_discrimination,discrim_jsons/shuffled_g0.json,http://54.211.221.249/DepthDuration/v2_depth_discrimination_MTurk/v2_DepthDiscrim_HTML.html#4,4,1350,768,1367,768,8-2-2021,5-56-31,149,,,,,,,1756,502,1000,1000,999,500,,3,4,depth_discrimination_stimuli/002763_2014-06-22_19-13-10_094959634447_rgbf000075-resize_4/002763_2014-06-22_19-13-10_094959634447_rgbf000075-resize-original.jpg,2499,884095,1814265,40
670721,DepthScenes,v2_duration_discrimination,discrim_jsons/shuffled_g0.json,http://54.211.221.249/DepthDuration/v2_depth_discrimination_MTurk/v2_DepthDiscrim_HTML.html#4,4,1350,768,1367,768,8-2-2021,5-56-31,150,,,,,,,1756,502,1000,1000,999,500,,5,3,depth_discrimination_stimuli/000486_2014-06-09_20-47-20_260595134347_rgbf000143-resize_2/000486_2014-06-09_20-47-20_260595134347_rgbf000143-resize-original.jpg,4475,884095,1814265,40
670721,DepthScenes,v2_duration_discrimination,discrim_jsons/shuffled_g0.json,http://54.211.221.249/DepthDuration/v2_depth_discrimination_MTurk/v2_DepthDiscrim_HTML.html#4,4,1350,768,1367,768,8-2-2021,5-56-31,151,,,,,,,1756,502,1000,1000,999,500,,4,2,depth_discrimination_stimuli/002460_2014-06-28_20-35-43_260595134347_rgbf000028-resize_4/002460_2014-06-28_20-35-43_260595134347_rgbf000028-resize-original.jpg,1897,884095,1814265,40
670721,DepthScenes,v2_duration_discrimination,discrim_jsons/shuffled_g0.json,http://54.211.221.249/DepthDuration/v2_depth_discrimination_MTurk/v2_DepthDiscrim_HTML.html#4,4,1350,768,1367,768,8-2-2021,5-56-31,152,,,,,,,1756,502,1000,1000,999,500,,3,4,depth_discrimination_stimuli/001197_2014-06-17_16-01-50_260595134347_rgbf000103-resize_4/001197_2014-06-17_16-01-50_260595134347_rgbf000103-resize-original.jpg,2107,884095,1814265,40
670721,DepthScenes,v2_duration_discrimination,discrim_jsons/shuffled_g0.json,http://54.211.221.249/DepthDuration/v2_depth_discrimination_MTurk/v2_DepthDiscrim_HTML.html#4,4,1350,768,1367,768,8-2-2021,5-56-31,153,,,,,,,1756,502,1000,1000,999,500,,5,2,depth_discrimination_stimuli/001181_2014-06-17_15-50-57_260595134347_rgbf000106-resize_4/001181_2014-06-17_15-50-57_260595134347_rgbf000106-resize-original.jpg,2351,884095,1814265,40
670721,DepthScenes,v2_duration_discrimination,discrim_jsons/shuffled_g0.json,http://54.211.221.249/DepthDuration/v2_depth_discrimination_MTurk/v2_DepthDiscrim_HTML.html#4,4,1350,768,1367,768,8-2-2021,5-56-31,154,,,,,,,1756,502,1000,1000,999,500,,4,5,depth_discrimination_stimuli/002987_2014-06-08_18-48-20_094959634447_rgbf000022-resize_0/002987_2014-06-08_18-48-20_094959634447_rgbf000022-resize-original.jpg,2028,884095,1814265,40
670721,DepthScenes,v2_duration_discrimination,discrim_jsons/shuffled_g0.json,http://54.211.221.249/DepthDuration/v2_depth_discrimination_MTurk/v2_DepthDiscrim_HTML.html#4,4,1350,768,1367,768,8-2-2021,5-56-31,155,,,,,,,1756,502,1000,1000,999,500,,3,2,depth_discrimination_stimuli/000869_2014-06-09_20-50-18_260595134347_rgbf000060-resize_3/000869_2014-06-09_20-50-18_260595134347_rgbf000060-resize-original.jpg,2080,884095,1814265,40
670721,DepthScenes,v2_duration_discrimination,discrim_jsons/shuffled_g0.json,http://54.211.221.249/DepthDuration/v2_depth_discrimination_MTurk/v2_DepthDiscrim_HTML.html#4,4,1350,768,1367,768,8-2-2021,5-56-31,156,,,,,,,1756,502,1000,1000,999,500,,5,3,depth_discrimination_stimuli/002467_2014-06-28_20-38-07_260595134347_rgbf000026-resize_2/002467_2014-06-28_20-38-07_260595134347_rgbf000026-resize-original.jpg,2661,884095,1814265,40
670721,DepthScenes,v2_duration_discrimination,discrim_jsons/shuffled_g0.json,http://54.211.221.249/DepthDuration/v2_depth_discrimination_MTurk/v2_DepthDiscrim_HTML.html#4,4,1350,768,1367,768,8-2-2021,5-56-31,157,,,,,,,1756,502,1000,1000,999,500,,4,5,depth_discrimination_stimuli/000929_2014-06-09_16-33-19_260595134347_rgbf000139-resize_0/000929_2014-06-09_16-33-19_260595134347_rgbf000139-resize-original.jpg,2189,884095,1814265,40
670721,DepthScenes,v2_duration_discrimination,discrim_jsons/shuffled_g0.json,http://54.211.221.249/DepthDuration/v2_depth_discrimination_MTurk/v2_DepthDiscrim_HTML.html#4,4,1350,768,1367,768,8-2-2021,5-56-31,158,,,,,,,1756,502,1000,1000,999,500,,5,2,depth_discrimination_stimuli/000368_2014-06-09_15-53-01_260595134347_rgbf000155-resize_2/000368_2014-06-09_15-53-01_260595134347_rgbf000155-resize-original.jpg,2049,884095,1814265,40
670721,DepthScenes,v2_duration_discrimination,discrim_jsons/shuffled_g0.json,http://54.211.221.249/DepthDuration/v2_depth_discrimination_MTurk/v2_DepthDiscrim_HTML.html#4,4,1350,768,1367,768,8-2-2021,5-56-31,159,,,,,,,1756,502,1000,1000,999,500,,3,4,depth_discrimination_stimuli/002875_2014-06-01_15-19-00_094959634447_rgbf000151-resize_1/002875_2014-06-01_15-19-00_094959634447_rgbf000151-resize-original.jpg,1469,884095,1814265,40
670721,DepthScenes,v2_duration_discrimination,discrim_jsons/shuffled_g0.json,http://54.211.221.249/DepthDuration/v2_depth_discrimination_MTurk/v2_DepthDiscrim_HTML.html#4,4,1350,768,1367,768,8-2-2021,5-56-31,160,,,,,,,1756,502,1000,1000,999,500,,5,4,depth_discrimination_stimuli/000542_2014-06-08_18-27-08_260595134347_rgbf000118-resize_1/000542_2014-06-08_18-27-08_260595134347_rgbf000118-resize-original.jpg,2519,884095,1814265,40
670721,DepthScenes,v2_duration_discrimination,discrim_jsons/shuffled_g0.json,http://54.211.221.249/DepthDuration/v2_depth_discrimination_MTurk/v2_DepthDiscrim_HTML.html#4,4,1350,768,1367,768,8-2-2021,5-56-31,161,,,,,,,1756,502,1000,1000,999,500,,3,2,depth_discrimination_stimuli/000103_2014-05-14_22-01-17_260595134347_rgbf000152-resize_5/000103_2014-05-14_22-01-17_260595134347_rgbf000152-resize-original.jpg,2161,884095,1814265,40
670721,DepthScenes,v2_duration_discrimination,discrim_jsons/shuffled_g0.json,http://54.211.221.249/DepthDuration/v2_depth_discrimination_MTurk/v2_DepthDiscrim_HTML.html#4,4,1350,768,1367,768,8-2-2021,5-56-31,162,,,,,,,1756,502,1000,1000,999,500,,5,4,depth_discrimination_stimuli/001450_2014-06-19_17-02-03_260595134347_rgbf000203-resize_4/001450_2014-06-19_17-02-03_260595134347_rgbf000203-resize-original.jpg,2249,884095,1814265,40
670721,DepthScenes,v2_duration_discrimination,discrim_jsons/shuffled_g0.json,http://54.211.221.249/DepthDuration/v2_depth_discrimination_MTurk/v2_DepthDiscrim_HTML.html#4,4,1350,768,1367,768,8-2-2021,5-56-31,163,,,,,,,1756,502,1000,1000,999,500,,3,5,depth_discrimination_stimuli/000788_2014-06-08_22-34-36_260595134347_rgbf000131-resize_1/000788_2014-06-08_22-34-36_260595134347_rgbf000131-resize-original.jpg,2165,884095,1814265,40
670721,DepthScenes,v2_duration_discrimination,discrim_jsons/shuffled_g0.json,http://54.211.221.249/DepthDuration/v2_depth_discrimination_MTurk/v2_DepthDiscrim_HTML.html#4,4,1350,768,1367,768,8-2-2021,5-56-31,164,,,,,,,1756,502,1000,1000,999,500,,2,4,depth_discrimination_stimuli/001828_2014-06-26_21-40-03_260595134347_rgbf000024-resize_0/001828_2014-06-26_21-40-03_260595134347_rgbf000024-resize-original.jpg,2135,884095,1814265,40
670721,DepthScenes,v2_duration_discrimination,discrim_jsons/shuffled_g0.json,http://54.211.221.249/DepthDuration/v2_depth_discrimination_MTurk/v2_DepthDiscrim_HTML.html#4,4,1350,768,1367,768,8-2-2021,5-56-31,165,,,,,,,1756,502,1000,1000,999,500,,3,5,depth_discrimination_stimuli/000709_2014-06-08_13-51-55_260595134347_rgbf000068-resize_3/000709_2014-06-08_13-51-55_260595134347_rgbf000068-resize-original.jpg,2380,884095,1814265,40
670721,DepthScenes,v2_duration_discrimination,discrim_jsons/shuffled_g0.json,http://54.211.221.249/DepthDuration/v2_depth_discrimination_MTurk/v2_DepthDiscrim_HTML.html#4,4,1350,768,1367,768,8-2-2021,5-56-31,166,,,,,,,1756,502,1000,1000,999,500,,4,5,depth_discrimination_stimuli/001806_2014-06-26_20-50-20_260595134347_rgbf000091-resize_1/001806_2014-06-26_20-50-20_260595134347_rgbf000091-resize-original.jpg,2279,884095,1814265,40
670721,DepthScenes,v2_duration_discrimination,discrim_jsons/shuffled_g0.json,http://54.211.221.249/DepthDuration/v2_depth_discrimination_MTurk/v2_DepthDiscrim_HTML.html#4,4,1350,768,1367,768,8-2-2021,5-56-31,167,,,,,,,1756,502,1000,1000,999,500,,3,2,depth_discrimination_stimuli/001164_2014-06-17_15-35-46_260595134347_rgbf000085-resize_3/001164_2014-06-17_15-35-46_260595134347_rgbf000085-resize-original.jpg,1848,884095,1814265,40
670721,DepthScenes,v2_duration_discrimination,discrim_jsons/shuffled_g0.json,http://54.211.221.249/DepthDuration/v2_depth_discrimination_MTurk/v2_DepthDiscrim_HTML.html#4,4,1350,768,1367,768,8-2-2021,5-56-31,168,,,,,,,1756,502,1000,1000,999,500,,4,5,depth_discrimination_stimuli/001392_2014-06-19_16-07-59_260595134347_rgbf000046-resize_1/001392_2014-06-19_16-07-59_260595134347_rgbf000046-resize-original.jpg,1939,884095,1814265,40
670721,DepthScenes,v2_duration_discrimination,discrim_jsons/shuffled_g0.json,http://54.211.221.249/DepthDuration/v2_depth_discrimination_MTurk/v2_DepthDiscrim_HTML.html#4,4,1350,768,1367,768,8-2-2021,5-56-31,169,,,,,,,1756,502,1000,1000,999,500,,3,2,depth_discrimination_stimuli/002323_2014-06-28_20-01-54_260595134347_rgbf000051-resize_4/002323_2014-06-28_20-01-54_260595134347_rgbf000051-resize-original.jpg,1779,884095,1814265,40
670721,DepthScenes,v2_duration_discrimination,discrim_jsons/shuffled_g0.json,http://54.211.221.249/DepthDuration/v2_depth_discrimination_MTurk/v2_DepthDiscrim_HTML.html#4,4,1350,768,1367,768,8-2-2021,5-56-31,170,,,,,,,1756,502,1000,1000,999,500,,4,5,depth_discrimination_stimuli/002375_2014-06-28_20-13-44_260595134347_rgbf000032-resize_1/002375_2014-06-28_20-13-44_260595134347_rgbf000032-resize-original.jpg,1951,884095,1814265,40
670721,DepthScenes,v2_duration_discrimination,discrim_jsons/shuffled_g0.json,http://54.211.221.249/DepthDuration/v2_depth_discrimination_MTurk/v2_DepthDiscrim_HTML.html#4,4,1350,768,1367,768,8-2-2021,5-56-31,171,,,,,,,1756,502,1000,1000,999,500,,3,2,depth_discrimination_stimuli/003010_2014-06-15_12-54-35_094959634447_rgbf000112-resize_0/003010_2014-06-15_12-54-35_094959634447_rgbf000112-resize-original.jpg,1573,884095,1814265,40
670721,DepthScenes,v2_duration_discrimination,discrim_jsons/shuffled_g0.json,http://54.211.221.249/DepthDuration/v2_depth_discrimination_MTurk/v2_DepthDiscrim_HTML.html#4,4,1350,768,1367,768,8-2-2021,5-56-31,172,,,,,,,1756,502,1000,1000,999,500,,4,5,scene_property_catch_stimuli/000675_2014-06-08_22-59-18_260595134347_rgbf000096-resize.jpg,1505,884095,1814265,40
670721,DepthScenes,v2_duration_discrimination,discrim_jsons/shuffled_g0.json,http://54.211.221.249/DepthDuration/v2_depth_discrimination_MTurk/v2_DepthDiscrim_HTML.html#4,4,1350,768,1367,768,8-2-2021,5-56-31,173,,,,,,,1756,502,1000,1000,999,500,,3,2,depth_discrimination_stimuli/000505_2014-06-08_23-03-23_260595134347_rgbf000091-resize_0/000505_2014-06-08_23-03-23_260595134347_rgbf000091-resize-original.jpg,1750,884095,1814265,40
670721,DepthScenes,v2_duration_discrimination,discrim_jsons/shuffled_g0.json,http://54.211.221.249/DepthDuration/v2_depth_discrimination_MTurk/v2_DepthDiscrim_HTML.html#4,4,1350,768,1367,768,8-2-2021,5-56-31,174,,,,,,,1756,502,1000,1000,999,500,,4,3,depth_discrimination_stimuli/003292_2014-05-14_21-53-49_094959634447_rgbf000100-resize_2/003292_2014-05-14_21-53-49_094959634447_rgbf000100-resize-original.jpg,38399,884095,1814265,40
670721,DepthScenes,v2_duration_discrimination,discrim_jsons/shuffled_g0.json,http://54.211.221.249/DepthDuration/v2_depth_discrimination_MTurk/v2_DepthDiscrim_HTML.html#4,4,1350,768,1367,768,8-2-2021,5-56-31,175,,,,,,,1756,502,1000,1000,999,500,,2,3,depth_discrimination_stimuli/001449_2014-06-19_17-01-27_260595134347_rgbf000116-resize_2/001449_2014-06-19_17-01-27_260595134347_rgbf000116-resize-original.jpg,1675,884095,1814265,40
670721,DepthScenes,v2_duration_discrimination,discrim_jsons/shuffled_g0.json,http://54.211.221.249/DepthDuration/v2_depth_discrimination_MTurk/v2_DepthDiscrim_HTML.html#4,4,1350,768,1367,768,8-2-2021,5-56-31,176,,,,,,,1756,502,1000,1000,999,500,,4,5,depth_discrimination_stimuli/003048_2014-06-15_13-49-43_094959634447_rgbf000150-resize_1/003048_2014-06-15_13-49-43_094959634447_rgbf000150-resize-original.jpg,1414,884095,1814265,40
670721,DepthScenes,v2_duration_discrimination,discrim_jsons/shuffled_g0.json,http://54.211.221.249/DepthDuration/v2_depth_discrimination_MTurk/v2_DepthDiscrim_HTML.html#4,4,1350,768,1367,768,8-2-2021,5-56-31,177,,,,,,,1756,502,1000,1000,999,500,,3,4,depth_discrimination_stimuli/002639_2014-06-24_14-51-37_094959634447_rgbf000074-resize_4/002639_2014-06-24_14-51-37_094959634447_rgbf000074-resize-original.jpg,1280,884095,1814265,40
670721,DepthScenes,v2_duration_discrimination,discrim_jsons/shuffled_g0.json,http://54.211.221.249/DepthDuration/v2_depth_discrimination_MTurk/v2_DepthDiscrim_HTML.html#4,4,1350,768,1367,768,8-2-2021,5-56-31,178,,,,,,,1756,502,1000,1000,999,500,,2,3,depth_discrimination_stimuli/000493_2014-06-09_21-01-18_260595134347_rgbf000196-resize_3/000493_2014-06-09_21-01-18_260595134347_rgbf000196-resize-original.jpg,1479,884095,1814265,40
670721,DepthScenes,v2_duration_discrimination,discrim_jsons/shuffled_g0.json,http://54.211.221.249/DepthDuration/v2_depth_discrimination_MTurk/v2_DepthDiscrim_HTML.html#4,4,1350,768,1367,768,8-2-2021,5-56-31,179,,,,,,,1756,502,1000,1000,999,500,,4,5,depth_discrimination_stimuli/001650_2014-06-20_12-09-00_260595134347_rgbf000087-resize_3/001650_2014-06-20_12-09-00_260595134347_rgbf000087-resize-original.jpg,1459,884095,1814265,40
670721,DepthScenes,v2_duration_discrimination,discrim_jsons/shuffled_g0.json,http://54.211.221.249/DepthDuration/v2_depth_discrimination_MTurk/v2_DepthDiscrim_HTML.html#4,4,1350,768,1367,768,8-2-2021,5-56-31,180,,,,,,,1756,502,1000,1000,999,500,,3,2,depth_discrimination_stimuli/000736_2014-06-08_18-24-15_260595134347_rgbf000206-resize_3/000736_2014-06-08_18-24-15_260595134347_rgbf000206-resize-original.jpg,1718,884095,1814265,40
670721,DepthScenes,v2_duration_discrimination,discrim_jsons/shuffled_g0.json,http://54.211.221.249/DepthDuration/v2_depth_discrimination_MTurk/v2_DepthDiscrim_HTML.html#4,4,1350,768,1367,768,8-2-2021,5-56-31,181,,,,,,,1756,502,1000,1000,999,500,,4,3,depth_discrimination_stimuli/000854_2014-06-09_19-43-13_260595134347_rgbf000066-resize_0/000854_2014-06-09_19-43-13_260595134347_rgbf000066-resize-original.jpg,1601,884095,1814265,40
670721,DepthScenes,v2_duration_discrimination,discrim_jsons/shuffled_g0.json,http://54.211.221.249/DepthDuration/v2_depth_discrimination_MTurk/v2_DepthDiscrim_HTML.html#4,4,1350,768,1367,768,8-2-2021,5-56-31,182,,,,,,,1756,502,1000,1000,999,500,,4,5,depth_discrimination_stimuli/002805_2014-06-22_19-54-03_094959634447_rgbf000079-resize_1/002805_2014-06-22_19-54-03_094959634447_rgbf000079-resize-original.jpg,1559,884095,1814265,40
670721,DepthScenes,v2_duration_discrimination,discrim_jsons/shuffled_g0.json,http://54.211.221.249/DepthDuration/v2_depth_discrimination_MTurk/v2_DepthDiscrim_HTML.html#4,4,1350,768,1367,768,8-2-2021,5-56-31,183,,,,,,,1756,502,1000,1000,999,500,,3,2,depth_discrimination_stimuli/002344_2014-06-28_20-06-29_260595134347_rgbf000030-resize_1/002344_2014-06-28_20-06-29_260595134347_rgbf000030-resize-original.jpg,1465,884095,1814265,40
670721,DepthScenes,v2_duration_discrimination,discrim_jsons/shuffled_g0.json,http://54.211.221.249/DepthDuration/v2_depth_discrimination_MTurk/v2_DepthDiscrim_HTML.html#4,4,1350,768,1367,768,8-2-2021,5-56-31,184,,,,,,,1756,502,1000,1000,999,500,,4,3,depth_discrimination_stimuli/001516_2014-06-20_16-25-09_260595134347_rgbf000076-resize_2/001516_2014-06-20_16-25-09_260595134347_rgbf000076-resize-original.jpg,1426,884095,1814265,40
670721,DepthScenes,v2_duration_discrimination,discrim_jsons/shuffled_g0.json,http://54.211.221.249/DepthDuration/v2_depth_discrimination_MTurk/v2_DepthDiscrim_HTML.html#4,4,1350,768,1367,768,8-2-2021,5-56-31,185,,,,,,,1756,502,1000,1000,999,500,,5,4,depth_discrimination_stimuli/003069_2014-06-15_14-57-50_094959634447_rgbf000150-resize_4/003069_2014-06-15_14-57-50_094959634447_rgbf000150-resize-original.jpg,1469,884095,1814265,40
670721,DepthScenes,v2_duration_discrimination,discrim_jsons/shuffled_g0.json,http://54.211.221.249/DepthDuration/v2_depth_discrimination_MTurk/v2_DepthDiscrim_HTML.html#4,4,1350,768,1367,768,8-2-2021,5-56-31,186,,,,,,,1756,502,1000,1000,999,500,,3,2,depth_discrimination_stimuli/001618_2014-06-20_11-37-31_260595134347_rgbf000027-resize_3/001618_2014-06-20_11-37-31_260595134347_rgbf000027-resize-original.jpg,1380,884095,1814265,40
670721,DepthScenes,v2_duration_discrimination,discrim_jsons/shuffled_g0.json,http://54.211.221.249/DepthDuration/v2_depth_discrimination_MTurk/v2_DepthDiscrim_HTML.html#4,4,1350,768,1367,768,8-2-2021,5-56-31,187,,,,,,,1756,502,1000,1000,999,500,,4,5,depth_discrimination_stimuli/000735_2014-06-08_18-23-50_260595134347_rgbf000163-resize_2/000735_2014-06-08_18-23-50_260595134347_rgbf000163-resize-original.jpg,1217,884095,1814265,40
670721,DepthScenes,v2_duration_discrimination,discrim_jsons/shuffled_g0.json,http://54.211.221.249/DepthDuration/v2_depth_discrimination_MTurk/v2_DepthDiscrim_HTML.html#4,4,1350,768,1367,768,8-2-2021,5-56-31,188,,,,,,,1756,502,1000,1000,999,500,,3,4,depth_discrimination_stimuli/000739_2014-06-08_18-45-58_260595134347_rgbf000068-resize_1/000739_2014-06-08_18-45-58_260595134347_rgbf000068-resize-original.jpg,1624,884095,1814265,40
670721,DepthScenes,v2_duration_discrimination,discrim_jsons/shuffled_g0.json,http://54.211.221.249/DepthDuration/v2_depth_discrimination_MTurk/v2_DepthDiscrim_HTML.html#4,4,1350,768,1367,768,8-2-2021,5-56-31,189,,,,,,,1756,502,1000,1000,999,500,,5,2,depth_discrimination_stimuli/002657_2014-06-13_15-29-54_094959634447_rgbf000150-resize_1/002657_2014-06-13_15-29-54_094959634447_rgbf000150-resize-original.jpg,1575,884095,1814265,40
670721,DepthScenes,v2_duration_discrimination,discrim_jsons/shuffled_g0.json,http://54.211.221.249/DepthDuration/v2_depth_discrimination_MTurk/v2_DepthDiscrim_HTML.html#4,4,1350,768,1367,768,8-2-2021,5-56-31,190,,,,,,,1756,502,1000,1000,999,500,,3,4,depth_discrimination_stimuli/003070_2014-06-15_14-58-27_094959634447_rgbf000150-resize_3/003070_2014-06-15_14-58-27_094959634447_rgbf000150-resize-original.jpg,4212,884095,1814265,40
670721,DepthScenes,v2_duration_discrimination,discrim_jsons/shuffled_g0.json,http://54.211.221.249/DepthDuration/v2_depth_discrimination_MTurk/v2_DepthDiscrim_HTML.html#4,4,1350,768,1367,768,8-2-2021,5-56-31,191,,,,,,,1756,502,1000,1000,999,500,,4,2,depth_discrimination_stimuli/001133_2014-06-17_14-49-16_260595134347_rgbf000100-resize_0/001133_2014-06-17_14-49-16_260595134347_rgbf000100-resize-original.jpg,1032,884095,1814265,40
670721,DepthScenes,v2_duration_discrimination,discrim_jsons/shuffled_g0.json,http://54.211.221.249/DepthDuration/v2_depth_discrimination_MTurk/v2_DepthDiscrim_HTML.html#4,4,1350,768,1367,768,8-2-2021,5-56-31,192,,,,,,,1756,502,1000,1000,999,500,,5,4,depth_discrimination_stimuli/000109_2014-05-14_23-41-52_260595134347_rgbf000035-resize_9/000109_2014-05-14_23-41-52_260595134347_rgbf000035-resize-original.jpg,2059,884095,1814265,40
670721,DepthScenes,v2_duration_discrimination,discrim_jsons/shuffled_g0.json,http://54.211.221.249/DepthDuration/v2_depth_discrimination_MTurk/v2_DepthDiscrim_HTML.html#4,4,1350,768,1367,768,8-2-2021,5-56-31,193,,,,,,,1756,502,1000,1000,999,500,,3,2,depth_discrimination_stimuli/002043_2014-06-24_20-29-38_260595134347_rgbf000039-resize_4/002043_2014-06-24_20-29-38_260595134347_rgbf000039-resize-original.jpg,2000,884095,1814265,40
670721,DepthScenes,v2_duration_discrimination,discrim_jsons/shuffled_g0.json,http://54.211.221.249/DepthDuration/v2_depth_discrimination_MTurk/v2_DepthDiscrim_HTML.html#4,4,1350,768,1367,768,8-2-2021,5-56-31,194,,,,,,,1756,502,1000,1000,999,500,,4,4,depth_discrimination_stimuli/000636_2014-06-08_16-39-02_260595134347_rgbf000108-resize_4/000636_2014-06-08_16-39-02_260595134347_rgbf000108-resize-original.jpg,1176,884095,1814265,40
670721,DepthScenes,v2_duration_discrimination,discrim_jsons/shuffled_g0.json,http://54.211.221.249/DepthDuration/v2_depth_discrimination_MTurk/v2_DepthDiscrim_HTML.html#4,4,1350,768,1367,768,8-2-2021,5-56-31,195,,,,,,,1756,502,1000,1000,999,500,,3,5,depth_discrimination_stimuli/002153_2014-06-25_21-27-18_260595134347_rgbf000038-resize_5/002153_2014-06-25_21-27-18_260595134347_rgbf000038-resize-original.jpg,1832,884095,1814265,40
670721,DepthScenes,v2_duration_discrimination,discrim_jsons/shuffled_g0.json,http://54.211.221.249/DepthDuration/v2_depth_discrimination_MTurk/v2_DepthDiscrim_HTML.html#4,4,1350,768,1367,768,8-2-2021,5-56-31,196,,,,,,,1756,502,1000,1000,999,500,,3,2,depth_discrimination_stimuli/002700_2014-06-22_11-27-02_094959634447_rgbf000124-resize_3/002700_2014-06-22_11-27-02_094959634447_rgbf000124-resize-original.jpg,2015,884095,1814265,40
670721,DepthScenes,v2_duration_discrimination,discrim_jsons/shuffled_g0.json,http://54.211.221.249/DepthDuration/v2_depth_discrimination_MTurk/v2_DepthDiscrim_HTML.html#4,4,1350,768,1367,768,8-2-2021,5-56-31,197,,,,,,,1756,502,1000,1000,999,500,,4,3,depth_discrimination_stimuli/001032_2014-06-08_13-23-17_260595134347_rgbf000021-resize_3/001032_2014-06-08_13-23-17_260595134347_rgbf000021-resize-original.jpg,1727,884095,1814265,40
670721,DepthScenes,v2_duration_discrimination,discrim_jsons/shuffled_g0.json,http://54.211.221.249/DepthDuration/v2_depth_discrimination_MTurk/v2_DepthDiscrim_HTML.html#4,4,1350,768,1367,768,8-2-2021,5-56-31,198,,,,,,,1756,502,1000,1000,999,500,,4,5,depth_discrimination_stimuli/000943_2014-06-09_19-31-07_260595134347_rgbf000128-resize_1/000943_2014-06-09_19-31-07_260595134347_rgbf000128-resize-original.jpg,1866,884095,1814265,40
670721,DepthScenes,v2_duration_discrimination,discrim_jsons/shuffled_g0.json,http://54.211.221.249/DepthDuration/v2_depth_discrimination_MTurk/v2_DepthDiscrim_HTML.html#4,4,1350,768,1367,768,8-2-2021,5-56-31,199,,,,,,,1756,502,1000,1000,999,500,,3,4,depth_discrimination_stimuli/000470_2014-06-09_19-42-40_260595134347_rgbf000094-resize_1/000470_2014-06-09_19-42-40_260595134347_rgbf000094-resize-original.jpg,1736,884095,1814265,40
670721,DepthScenes,v2_duration_discrimination,discrim_jsons/shuffled_g0.json,http://54.211.221.249/DepthDuration/v2_depth_discrimination_MTurk/v2_DepthDiscrim_HTML.html#4,4,1350,768,1367,768,8-2-2021,5-56-31,200,,,,,,,1756,502,1000,1000,999,500,,2,1,depth_discrimination_stimuli/001532_2014-06-20_16-50-41_260595134347_rgbf000081-resize_4/001532_2014-06-20_16-50-41_260595134347_rgbf000081-resize-original.jpg,1729,884095,1814265,40
670721,DepthScenes,v2_duration_discrimination,discrim_jsons/shuffled_g0.json,http://54.211.221.249/DepthDuration/v2_depth_discrimination_MTurk/v2_DepthDiscrim_HTML.html#4,4,1350,768,1367,768,8-2-2021,5-56-31,201,,,,,,,1756,502,1000,1000,999,500,,3,4,depth_discrimination_stimuli/000927_2014-06-09_16-32-30_260595134347_rgbf000123-resize_3/000927_2014-06-09_16-32-30_260595134347_rgbf000123-resize-original.jpg,1949,884095,1814265,40
670721,DepthScenes,v2_duration_discrimination,discrim_jsons/shuffled_g0.json,http://54.211.221.249/DepthDuration/v2_depth_discrimination_MTurk/v2_DepthDiscrim_HTML.html#4,4,1350,768,1367,768,8-2-2021,5-56-31,202,,,,,,,1756,502,1000,1000,999,500,,5,4,depth_discrimination_stimuli/001167_2014-06-17_15-38-07_260595134347_rgbf000108-resize_0/001167_2014-06-17_15-38-07_260595134347_rgbf000108-resize-original.jpg,1992,884095,1814265,40
670721,DepthScenes,v2_duration_discrimination,discrim_jsons/shuffled_g0.json,http://54.211.221.249/DepthDuration/v2_depth_discrimination_MTurk/v2_DepthDiscrim_HTML.html#4,4,1350,768,1367,768,8-2-2021,5-56-31,203,,,,,,,1756,502,1000,1000,999,500,,3,2,depth_discrimination_stimuli/002414_2014-06-28_20-24-58_260595134347_rgbf000067-resize_4/002414_2014-06-28_20-24-58_260595134347_rgbf000067-resize-original.jpg,1708,884095,1814265,40
670721,DepthScenes,v2_duration_discrimination,discrim_jsons/shuffled_g0.json,http://54.211.221.249/DepthDuration/v2_depth_discrimination_MTurk/v2_DepthDiscrim_HTML.html#4,4,1350,768,1367,768,8-2-2021,5-56-31,204,,,,,,,1756,502,1000,1000,999,500,,4,5,depth_discrimination_stimuli/002425_2014-06-28_20-27-29_260595134347_rgbf000031-resize_8/002425_2014-06-28_20-27-29_260595134347_rgbf000031-resize-original.jpg,1900,884095,1814265,40
670721,DepthScenes,v2_duration_discrimination,discrim_jsons/shuffled_g0.json,http://54.211.221.249/DepthDuration/v2_depth_discrimination_MTurk/v2_DepthDiscrim_HTML.html#4,4,1350,768,1367,768,8-2-2021,5-56-31,205,,,,,,,1756,502,1000,1000,999,500,,4,3,depth_discrimination_stimuli/000830_2014-06-04_19-49-31_260595134347_rgbf000096-resize_2/000830_2014-06-04_19-49-31_260595134347_rgbf000096-resize-original.jpg,1818,884095,1814265,40
670721,DepthScenes,v2_duration_discrimination,discrim_jsons/shuffled_g0.json,http://54.211.221.249/DepthDuration/v2_depth_discrimination_MTurk/v2_DepthDiscrim_HTML.html#4,4,1350,768,1367,768,8-2-2021,5-56-31,206,,,,,,,1756,502,1000,1000,999,500,,2,3,depth_discrimination_stimuli/000549_2014-06-08_22-10-24_260595134347_rgbf000247-resize_3/000549_2014-06-08_22-10-24_260595134347_rgbf000247-resize-original.jpg,1880,884095,1814265,40
670721,DepthScenes,v2_duration_discrimination,discrim_jsons/shuffled_g0.json,http://54.211.221.249/DepthDuration/v2_depth_discrimination_MTurk/v2_DepthDiscrim_HTML.html#4,4,1350,768,1367,768,8-2-2021,5-56-31,207,,,,,,,1756,502,1000,1000,999,500,,4,5,depth_discrimination_stimuli/000137_2014-05-20_17-04-49_260595134347_rgbf000120-resize_1/000137_2014-05-20_17-04-49_260595134347_rgbf000120-resize-original.jpg,1784,884095,1814265,40
670721,DepthScenes,v2_duration_discrimination,discrim_jsons/shuffled_g0.json,http://54.211.221.249/DepthDuration/v2_depth_discrimination_MTurk/v2_DepthDiscrim_HTML.html#4,4,1350,768,1367,768,8-2-2021,5-56-31,208,,,,,,,1756,502,1000,1000,999,500,,4,3,depth_discrimination_stimuli/000506_2014-06-08_23-21-00_260595134347_rgbf000070-resize_7/000506_2014-06-08_23-21-00_260595134347_rgbf000070-resize-original.jpg,1885,884095,1814265,40
670721,DepthScenes,v2_duration_discrimination,discrim_jsons/shuffled_g0.json,http://54.211.221.249/DepthDuration/v2_depth_discrimination_MTurk/v2_DepthDiscrim_HTML.html#4,4,1350,768,1367,768,8-2-2021,5-56-31,209,,,,,,,1756,502,1000,1000,999,500,,2,3,depth_discrimination_stimuli/002468_2014-06-28_20-38-39_260595134347_rgbf000045-resize_1/002468_2014-06-28_20-38-39_260595134347_rgbf000045-resize-original.jpg,1810,884095,1814265,40
670721,DepthScenes,v2_duration_discrimination,discrim_jsons/shuffled_g0.json,http://54.211.221.249/DepthDuration/v2_depth_discrimination_MTurk/v2_DepthDiscrim_HTML.html#4,4,1350,768,1367,768,8-2-2021,5-56-31,210,,,,,,,1756,502,1000,1000,999,500,,4,5,depth_discrimination_stimuli/000191_2014-05-12_17-07-38_260595134347_rgbf000199-resize_0/000191_2014-05-12_17-07-38_260595134347_rgbf000199-resize-original.jpg,1599,884095,1814265,40
670721,DepthScenes,v2_duration_discrimination,discrim_jsons/shuffled_g0.json,http://54.211.221.249/DepthDuration/v2_depth_discrimination_MTurk/v2_DepthDiscrim_HTML.html#4,4,1350,768,1367,768,8-2-2021,5-56-31,211,,,,,,,1756,502,1000,1000,999,500,,4,3,depth_discrimination_stimuli/000740_2014-06-08_18-46-23_260595134347_rgbf000049-resize_6/000740_2014-06-08_18-46-23_260595134347_rgbf000049-resize-original.jpg,1765,884095,1814265,40
670721,DepthScenes,v2_duration_discrimination,discrim_jsons/shuffled_g0.json,http://54.211.221.249/DepthDuration/v2_depth_discrimination_MTurk/v2_DepthDiscrim_HTML.html#4,4,1350,768,1367,768,8-2-2021,5-56-31,212,,,,,,,1756,502,1000,1000,999,500,,4,5,depth_discrimination_stimuli/002949_2014-06-26_15-57-42_094959634447_rgbf000079-resize_1/002949_2014-06-26_15-57-42_094959634447_rgbf000079-resize-original.jpg,1599,884095,1814265,40
670721,DepthScenes,v2_duration_discrimination,discrim_jsons/shuffled_g0.json,http://54.211.221.249/DepthDuration/v2_depth_discrimination_MTurk/v2_DepthDiscrim_HTML.html#4,4,1350,768,1367,768,8-2-2021,5-56-31,213,,,,,,,1756,502,1000,1000,999,500,,3,2,depth_discrimination_stimuli/001264_2014-06-16_16-10-23_260595134347_rgbf000109-resize_1/001264_2014-06-16_16-10-23_260595134347_rgbf000109-resize-original.jpg,1645,884095,1814265,40
670721,DepthScenes,v2_duration_discrimination,discrim_jsons/shuffled_g0.json,http://54.211.221.249/DepthDuration/v2_depth_discrimination_MTurk/v2_DepthDiscrim_HTML.html#4,4,1350,768,1367,768,8-2-2021,5-56-31,214,,,,,,,1756,502,1000,1000,999,500,,4,5,scene_property_catch_stimuli/sun_bpzzatthlcapxzol.jpg,2034,884095,1814265,40
670721,DepthScenes,v2_duration_discrimination,discrim_jsons/shuffled_g0.json,http://54.211.221.249/DepthDuration/v2_depth_discrimination_MTurk/v2_DepthDiscrim_HTML.html#4,4,1350,768,1367,768,8-2-2021,5-56-31,215,,,,,,,1756,502,1000,1000,999,500,,3,2,depth_discrimination_stimuli/000720_2014-06-08_18-37-27_260595134347_rgbf000203-resize_4/000720_2014-06-08_18-37-27_260595134347_rgbf000203-resize-original.jpg,1745,884095,1814265,40
