subjID,experimentName,versionName,sequenceName,url,selected_row,windowWidth,windowHeight,screenWidth,screenHeight,startDate,startTime,trial,stimulus_0,stimulus_1,duration,actual_depth_0,actual_depth_1,discrim_choice,trial_RT,log_fixation,log_sceneDuration1,log_mask1,log_sceneDuration2,log_mask2,unitSelection,meanDepth_rating,navigability_rating,rated_stimulus,rating_RT,experimentTime,totalTime,age
343974,DepthScenes,v2_duration_discrimination,discrim_jsons/shuffled_g0_dr.json,http://54.211.221.249/DepthDuration/v2_depth_discrimination_MTurk/v2_DepthDiscrim_HTML.html#1,1,1366,615,1366,768,8-2-2021,9-56-24,1,depth_discrimination_stimuli/001618_2014-06-20_11-37-31_260595134347_rgbf000027-resize_3/001618_2014-06-20_11-37-31_260595134347_rgbf000027-resize_3-target.png,depth_discrimination_stimuli/000109_2014-05-14_23-41-52_260595134347_rgbf000035-resize_9/000109_2014-05-14_23-41-52_260595134347_rgbf000035-resize_9-target.png,1000,1.8725,1.3545,0,2304,505,1001,997,998,499,,,,,,725498,930641,34
343974,DepthScenes,v2_duration_discrimination,discrim_jsons/shuffled_g0_dr.json,http://54.211.221.249/DepthDuration/v2_depth_discrimination_MTurk/v2_DepthDiscrim_HTML.html#1,1,1366,615,1366,768,8-2-2021,9-56-24,2,depth_discrimination_stimuli/002103_2014-06-25_20-00-40_260595134347_rgbf000049-resize_0/002103_2014-06-25_20-00-40_260595134347_rgbf000049-resize_0-target.png,depth_discrimination_stimuli/002444_2014-06-28_20-32-08_260595134347_rgbf000027-resize_0/002444_2014-06-28_20-32-08_260595134347_rgbf000027-resize_0-target.png,1000,4.105,4.389,1,2310,503,997,1000,999,505,,,,,,725498,930641,34
343974,DepthScenes,v2_duration_discrimination,discrim_jsons/shuffled_g0_dr.json,http://54.211.221.249/DepthDuration/v2_depth_discrimination_MTurk/v2_DepthDiscrim_HTML.html#1,1,1366,615,1366,768,8-2-2021,9-56-24,3,depth_discrimination_stimuli/000800_2014-06-08_22-42-09_260595134347_rgbf000095-resize_3/000800_2014-06-08_22-42-09_260595134347_rgbf000095-resize_3-target.png,depth_discrimination_stimuli/000869_2014-06-09_20-50-18_260595134347_rgbf000060-resize_3/000869_2014-06-09_20-50-18_260595134347_rgbf000060-resize_3-target.png,250,2.8,2.266,1,2025,502,248,1001,250,501,,,,,,725498,930641,34
343974,DepthScenes,v2_duration_discrimination,discrim_jsons/shuffled_g0_dr.json,http://54.211.221.249/DepthDuration/v2_depth_discrimination_MTurk/v2_DepthDiscrim_HTML.html#1,1,1366,615,1366,768,8-2-2021,9-56-24,4,depth_discrimination_stimuli/001092_2014-06-15_17-34-58_260595134347_rgbf000171-resize_3/001092_2014-06-15_17-34-58_260595134347_rgbf000171-resize_3-target.png,depth_discrimination_stimuli/000502_2014-06-08_23-02-32_260595134347_rgbf000063-resize_4/000502_2014-06-08_23-02-32_260595134347_rgbf000063-resize_4-target.png,250,2.6935,2.431,0,1921,502,245,1005,245,500,,,,,,725498,930641,34
343974,DepthScenes,v2_duration_discrimination,discrim_jsons/shuffled_g0_dr.json,http://54.211.221.249/DepthDuration/v2_depth_discrimination_MTurk/v2_DepthDiscrim_HTML.html#1,1,1366,615,1366,768,8-2-2021,9-56-24,5,depth_discrimination_stimuli/000953_2014-06-08_11-42-19_260595134347_rgbf000083-resize_0/000953_2014-06-08_11-42-19_260595134347_rgbf000083-resize_0-target.png,depth_discrimination_stimuli/000787_2014-06-08_22-33-53_260595134347_rgbf000175-resize_1/000787_2014-06-08_22-33-53_260595134347_rgbf000175-resize_1-target.png,250,1.369,4.784,0,1798,502,248,1001,251,500,,,,,,725498,930641,34
343974,DepthScenes,v2_duration_discrimination,discrim_jsons/shuffled_g0_dr.json,http://54.211.221.249/DepthDuration/v2_depth_discrimination_MTurk/v2_DepthDiscrim_HTML.html#1,1,1366,615,1366,768,8-2-2021,9-56-24,6,depth_discrimination_stimuli/003083_2014-06-15_15-21-03_094959634447_rgbf000063-resize_1/003083_2014-06-15_15-21-03_094959634447_rgbf000063-resize_1-target.png,depth_discrimination_stimuli/000742_2014-06-08_18-48-09_260595134347_rgbf000164-resize_4/000742_2014-06-08_18-48-09_260595134347_rgbf000164-resize_4-target.png,1000,4.1405,4.632,0,2338,501,998,1000,1000,499,,,,,,725498,930641,34
343974,DepthScenes,v2_duration_discrimination,discrim_jsons/shuffled_g0_dr.json,http://54.211.221.249/DepthDuration/v2_depth_discrimination_MTurk/v2_DepthDiscrim_HTML.html#1,1,1366,615,1366,768,8-2-2021,9-56-24,7,depth_discrimination_stimuli/000749_2014-06-08_21-55-06_260595134347_rgbf000070-resize_2/000749_2014-06-08_21-55-06_260595134347_rgbf000070-resize_2-target.png,depth_discrimination_stimuli/001056_2014-06-08_18-46-44_260595134347_rgbf000068-resize_0/001056_2014-06-08_18-46-44_260595134347_rgbf000068-resize_0-target.png,250,2.331,2.6625,1,1918,502,251,1000,247,502,,,,,,725498,930641,34
343974,DepthScenes,v2_duration_discrimination,discrim_jsons/shuffled_g0_dr.json,http://54.211.221.249/DepthDuration/v2_depth_discrimination_MTurk/v2_DepthDiscrim_HTML.html#1,1,1366,615,1366,768,8-2-2021,9-56-24,8,depth_discrimination_stimuli/002043_2014-06-24_20-29-38_260595134347_rgbf000039-resize_4/002043_2014-06-24_20-29-38_260595134347_rgbf000039-resize_4-target.png,depth_discrimination_stimuli/001011_2014-06-08_23-18-54_260595134347_rgbf000044-resize_4/001011_2014-06-08_23-18-54_260595134347_rgbf000044-resize_4-target.png,1000,2.8435,2.473,0,3523,511,991,1000,999,500,,,,,,725498,930641,34
343974,DepthScenes,v2_duration_discrimination,discrim_jsons/shuffled_g0_dr.json,http://54.211.221.249/DepthDuration/v2_depth_discrimination_MTurk/v2_DepthDiscrim_HTML.html#1,1,1366,615,1366,768,8-2-2021,9-56-24,9,depth_discrimination_stimuli/000454_2014-06-08_16-37-28_260595134347_rgbf000048-resize_2/000454_2014-06-08_16-37-28_260595134347_rgbf000048-resize_2-target.png,depth_discrimination_stimuli/000375_2014-06-08_11-17-29_260595134347_rgbf000133-resize_2/000375_2014-06-08_11-17-29_260595134347_rgbf000133-resize_2-target.png,1000,1.213,4.718,1,2593,501,1003,996,999,504,,,,,,725498,930641,34
343974,DepthScenes,v2_duration_discrimination,discrim_jsons/shuffled_g0_dr.json,http://54.211.221.249/DepthDuration/v2_depth_discrimination_MTurk/v2_DepthDiscrim_HTML.html#1,1,1366,615,1366,768,8-2-2021,9-56-24,10,depth_discrimination_stimuli/001532_2014-06-20_16-50-41_260595134347_rgbf000081-resize_4/001532_2014-06-20_16-50-41_260595134347_rgbf000081-resize_4-target.png,depth_discrimination_stimuli/000943_2014-06-09_19-31-07_260595134347_rgbf000128-resize_1/000943_2014-06-09_19-31-07_260595134347_rgbf000128-resize_1-target.png,250,1.5758333333333,1.9765,1,3178,502,249,999,251,508,,,,,,725498,930641,34
343974,DepthScenes,v2_duration_discrimination,discrim_jsons/shuffled_g0_dr.json,http://54.211.221.249/DepthDuration/v2_depth_discrimination_MTurk/v2_DepthDiscrim_HTML.html#1,1,1366,615,1366,768,8-2-2021,9-56-24,11,depth_discrimination_stimuli/002340_2014-06-28_20-05-46_260595134347_rgbf000113-resize_0/002340_2014-06-28_20-05-46_260595134347_rgbf000113-resize_0-target.png,depth_discrimination_stimuli/002905_2014-06-03_18-04-43_094959634447_rgbf000151-resize_2/002905_2014-06-03_18-04-43_094959634447_rgbf000151-resize_2-target.png,250,2.4735,2.0295,1,1786,510,242,1001,248,501,,,,,,725498,930641,34
343974,DepthScenes,v2_duration_discrimination,discrim_jsons/shuffled_g0_dr.json,http://54.211.221.249/DepthDuration/v2_depth_discrimination_MTurk/v2_DepthDiscrim_HTML.html#1,1,1366,615,1366,768,8-2-2021,9-56-24,12,depth_discrimination_stimuli/000691_2014-06-08_13-08-50_260595134347_rgbf000132-resize_3/000691_2014-06-08_13-08-50_260595134347_rgbf000132-resize_3-target.png,depth_discrimination_stimuli/002039_2014-06-24_20-22-38_260595134347_rgbf000084-resize_1/002039_2014-06-24_20-22-38_260595134347_rgbf000084-resize_1-target.png,250,4.153,4.408,0,1796,502,248,1002,248,500,,,,,,725498,930641,34
343974,DepthScenes,v2_duration_discrimination,discrim_jsons/shuffled_g0_dr.json,http://54.211.221.249/DepthDuration/v2_depth_discrimination_MTurk/v2_DepthDiscrim_HTML.html#1,1,1366,615,1366,768,8-2-2021,9-56-24,13,depth_discrimination_stimuli/000569_2014-06-09_22-51-47_260595134347_rgbf000141-resize_3/000569_2014-06-09_22-51-47_260595134347_rgbf000141-resize_3-target.png,depth_discrimination_stimuli/000868_2014-06-09_20-49-52_260595134347_rgbf000064-resize_4/000868_2014-06-09_20-49-52_260595134347_rgbf000064-resize_4-target.png,250,4.512,1.2815,1,1611,501,249,998,249,501,,,,,,725498,930641,34
343974,DepthScenes,v2_duration_discrimination,discrim_jsons/shuffled_g0_dr.json,http://54.211.221.249/DepthDuration/v2_depth_discrimination_MTurk/v2_DepthDiscrim_HTML.html#1,1,1366,615,1366,768,8-2-2021,9-56-24,14,depth_discrimination_stimuli/003587_2014-05-23_16-48-02_094959634447_rgbf002384-resize_2/003587_2014-05-23_16-48-02_094959634447_rgbf002384-resize_2-target.png,depth_discrimination_stimuli/000709_2014-06-08_13-51-55_260595134347_rgbf000068-resize_3/000709_2014-06-08_13-51-55_260595134347_rgbf000068-resize_3-target.png,250,1.357,1.803,0,1274,501,250,1003,246,500,,,,,,725498,930641,34
343974,DepthScenes,v2_duration_discrimination,discrim_jsons/shuffled_g0_dr.json,http://54.211.221.249/DepthDuration/v2_depth_discrimination_MTurk/v2_DepthDiscrim_HTML.html#1,1,1366,615,1366,768,8-2-2021,9-56-24,15,depth_discrimination_stimuli/002199_2014-06-28_18-33-56_260595134347_rgbf000074-resize_0/002199_2014-06-28_18-33-56_260595134347_rgbf000074-resize_0-target.png,depth_discrimination_stimuli/001016_2014-06-09_16-16-10_260595134347_rgbf000112-resize_5/001016_2014-06-09_16-16-10_260595134347_rgbf000112-resize_5-target.png,1000,1.996,1.6565,1,1612,505,1001,993,1000,501,,,,,,725498,930641,34
343974,DepthScenes,v2_duration_discrimination,discrim_jsons/shuffled_g0_dr.json,http://54.211.221.249/DepthDuration/v2_depth_discrimination_MTurk/v2_DepthDiscrim_HTML.html#1,1,1366,615,1366,768,8-2-2021,9-56-24,16,depth_discrimination_stimuli/000493_2014-06-09_21-01-18_260595134347_rgbf000196-resize_3/000493_2014-06-09_21-01-18_260595134347_rgbf000196-resize_3-target.png,depth_discrimination_stimuli/000409_2014-06-04_19-23-33_260595134347_rgbf000067-resize_0/000409_2014-06-04_19-23-33_260595134347_rgbf000067-resize_0-target.png,1000,3.44,3.7335,1,1655,505,999,1007,994,499,,,,,,725498,930641,34
343974,DepthScenes,v2_duration_discrimination,discrim_jsons/shuffled_g0_dr.json,http://54.211.221.249/DepthDuration/v2_depth_discrimination_MTurk/v2_DepthDiscrim_HTML.html#1,1,1366,615,1366,768,8-2-2021,9-56-24,17,depth_discrimination_stimuli/002953_2014-06-08_17-32-18_094959634447_rgbf000059-resize_5/002953_2014-06-08_17-32-18_094959634447_rgbf000059-resize_5-target.png,depth_discrimination_stimuli/000470_2014-06-09_19-42-40_260595134347_rgbf000094-resize_1/000470_2014-06-09_19-42-40_260595134347_rgbf000094-resize_1-target.png,1000,1.551,1.831,0,3505,501,999,1001,998,507,,,,,,725498,930641,34
343974,DepthScenes,v2_duration_discrimination,discrim_jsons/shuffled_g0_dr.json,http://54.211.221.249/DepthDuration/v2_depth_discrimination_MTurk/v2_DepthDiscrim_HTML.html#1,1,1366,615,1366,768,8-2-2021,9-56-24,18,depth_discrimination_stimuli/000929_2014-06-09_16-33-19_260595134347_rgbf000139-resize_0/000929_2014-06-09_16-33-19_260595134347_rgbf000139-resize_0-target.png,depth_discrimination_stimuli/001055_2014-06-08_18-45-35_260595134347_rgbf000111-resize_4/001055_2014-06-08_18-45-35_260595134347_rgbf000111-resize_4-target.png,250,2.868,2.429,0,1961,502,249,1001,249,501,,,,,,725498,930641,34
343974,DepthScenes,v2_duration_discrimination,discrim_jsons/shuffled_g0_dr.json,http://54.211.221.249/DepthDuration/v2_depth_discrimination_MTurk/v2_DepthDiscrim_HTML.html#1,1,1366,615,1366,768,8-2-2021,9-56-24,19,depth_discrimination_stimuli/002118_2014-06-25_20-32-08_260595134347_rgbf000078-resize_1/002118_2014-06-25_20-32-08_260595134347_rgbf000078-resize_1-target.png,depth_discrimination_stimuli/001164_2014-06-17_15-35-46_260595134347_rgbf000085-resize_3/001164_2014-06-17_15-35-46_260595134347_rgbf000085-resize_3-target.png,250,2.646,2.354,1,1776,501,250,1000,252,499,,,,,,725498,930641,34
343974,DepthScenes,v2_duration_discrimination,discrim_jsons/shuffled_g0_dr.json,http://54.211.221.249/DepthDuration/v2_depth_discrimination_MTurk/v2_DepthDiscrim_HTML.html#1,1,1366,615,1366,768,8-2-2021,9-56-24,20,depth_discrimination_stimuli/002675_2014-06-13_16-08-49_094959634447_rgbf000151-resize_2/002675_2014-06-13_16-08-49_094959634447_rgbf000151-resize_2-target.png,depth_discrimination_stimuli/001222_2014-06-17_16-24-06_260595134347_rgbf000073-resize_0/001222_2014-06-17_16-24-06_260595134347_rgbf000073-resize_0-target.png,1000,4.5065,1.4385,0,1649,502,1002,998,1000,510,,,,,,725498,930641,34
343974,DepthScenes,v2_duration_discrimination,discrim_jsons/shuffled_g0_dr.json,http://54.211.221.249/DepthDuration/v2_depth_discrimination_MTurk/v2_DepthDiscrim_HTML.html#1,1,1366,615,1366,768,8-2-2021,9-56-24,21,depth_discrimination_stimuli/000556_2014-06-09_22-42-56_260595134347_rgbf000214-resize_1/000556_2014-06-09_22-42-56_260595134347_rgbf000214-resize_1-target.png,depth_discrimination_stimuli/001148_2014-06-17_15-26-42_260595134347_rgbf000129-resize_0/001148_2014-06-17_15-26-42_260595134347_rgbf000129-resize_0-target.png,250,4.8415,4.368,1,1244,501,250,999,250,500,,,,,,725498,930641,34
343974,DepthScenes,v2_duration_discrimination,discrim_jsons/shuffled_g0_dr.json,http://54.211.221.249/DepthDuration/v2_depth_discrimination_MTurk/v2_DepthDiscrim_HTML.html#1,1,1366,615,1366,768,8-2-2021,9-56-24,22,depth_discrimination_stimuli/002805_2014-06-22_19-54-03_094959634447_rgbf000079-resize_1/002805_2014-06-22_19-54-03_094959634447_rgbf000079-resize_1-target.png,depth_discrimination_stimuli/001584_2014-06-20_11-07-43_260595134347_rgbf000002-resize_1/001584_2014-06-20_11-07-43_260595134347_rgbf000002-resize_1-target.png,1000,3.144,3.53,0,1574,501,999,1004,996,501,,,,,,725498,930641,34
343974,DepthScenes,v2_duration_discrimination,discrim_jsons/shuffled_g0_dr.json,http://54.211.221.249/DepthDuration/v2_depth_discrimination_MTurk/v2_DepthDiscrim_HTML.html#1,1,1366,615,1366,768,8-2-2021,9-56-24,23,depth_discrimination_stimuli/000549_2014-06-08_22-10-24_260595134347_rgbf000247-resize_3/000549_2014-06-08_22-10-24_260595134347_rgbf000247-resize_3-target.png,depth_discrimination_stimuli/002509_2014-06-24_13-19-22_094959634447_rgbf000077-resize_0/002509_2014-06-24_13-19-22_094959634447_rgbf000077-resize_0-target.png,250,1.841,1.3065,1,2031,500,250,999,254,495,,,,,,725498,930641,34
343974,DepthScenes,v2_duration_discrimination,discrim_jsons/shuffled_g0_dr.json,http://54.211.221.249/DepthDuration/v2_depth_discrimination_MTurk/v2_DepthDiscrim_HTML.html#1,1,1366,615,1366,768,8-2-2021,9-56-24,24,depth_discrimination_stimuli/001450_2014-06-19_17-02-03_260595134347_rgbf000203-resize_4/001450_2014-06-19_17-02-03_260595134347_rgbf000203-resize_4-target.png,depth_discrimination_stimuli/002414_2014-06-28_20-24-58_260595134347_rgbf000067-resize_4/002414_2014-06-28_20-24-58_260595134347_rgbf000067-resize_4-target.png,1000,4.0106666666667,4.363,1,10619,503,1002,996,1000,502,,,,,,725498,930641,34
343974,DepthScenes,v2_duration_discrimination,discrim_jsons/shuffled_g0_dr.json,http://54.211.221.249/DepthDuration/v2_depth_discrimination_MTurk/v2_DepthDiscrim_HTML.html#1,1,1366,615,1366,768,8-2-2021,9-56-24,25,depth_discrimination_stimuli/003495_2014-05-21_16-01-51_094959634447_rgbf000100-resize_3/003495_2014-05-21_16-01-51_094959634447_rgbf000100-resize_3-target.png,depth_discrimination_stimuli/002949_2014-06-26_15-57-42_094959634447_rgbf000079-resize_1/002949_2014-06-26_15-57-42_094959634447_rgbf000079-resize_1-target.png,1000,1.6255,1.8915,1,4082,502,1009,991,1000,502,,,,,,725498,930641,34
343974,DepthScenes,v2_duration_discrimination,discrim_jsons/shuffled_g0_dr.json,http://54.211.221.249/DepthDuration/v2_depth_discrimination_MTurk/v2_DepthDiscrim_HTML.html#1,1,1366,615,1366,768,8-2-2021,9-56-24,26,depth_discrimination_stimuli/001498_2014-06-19_17-45-14_260595134347_rgbf000129-resize_4/001498_2014-06-19_17-45-14_260595134347_rgbf000129-resize_4-target.png,depth_discrimination_stimuli/003125_2014-05-12_10-39-22_094959634447_rgbf000100-resize_0/003125_2014-05-12_10-39-22_094959634447_rgbf000100-resize_0-target.png,1000,1.4075,4.8655,0,4017,502,1003,996,999,500,,,,,,725498,930641,34
343974,DepthScenes,v2_duration_discrimination,discrim_jsons/shuffled_g0_dr.json,http://54.211.221.249/DepthDuration/v2_depth_discrimination_MTurk/v2_DepthDiscrim_HTML.html#1,1,1366,615,1366,768,8-2-2021,9-56-24,27,depth_discrimination_stimuli/002549_2014-06-24_13-41-39_094959634447_rgbf000022-resize_3/002549_2014-06-24_13-41-39_094959634447_rgbf000022-resize_3-target.png,depth_discrimination_stimuli/001136_2014-06-17_15-19-41_260595134347_rgbf000076-resize_3/001136_2014-06-17_15-19-41_260595134347_rgbf000076-resize_3-target.png,250,1.476,1.8655,1,1066,501,249,1001,249,499,,,,,,725498,930641,34
343974,DepthScenes,v2_duration_discrimination,discrim_jsons/shuffled_g0_dr.json,http://54.211.221.249/DepthDuration/v2_depth_discrimination_MTurk/v2_DepthDiscrim_HTML.html#1,1,1366,615,1366,768,8-2-2021,9-56-24,28,depth_discrimination_stimuli/003490_2014-05-21_15-50-11_094959634447_rgbf000101-resize_3/003490_2014-05-21_15-50-11_094959634447_rgbf000101-resize_3-target.png,depth_discrimination_stimuli/000866_2014-06-09_20-45-42_260595134347_rgbf000139-resize_1/000866_2014-06-09_20-45-42_260595134347_rgbf000139-resize_1-target.png,250,3.6445,3.2155,1,1015,502,247,1002,249,501,,,,,,725498,930641,34
343974,DepthScenes,v2_duration_discrimination,discrim_jsons/shuffled_g0_dr.json,http://54.211.221.249/DepthDuration/v2_depth_discrimination_MTurk/v2_DepthDiscrim_HTML.html#1,1,1366,615,1366,768,8-2-2021,9-56-24,29,depth_discrimination_stimuli/003292_2014-05-14_21-53-49_094959634447_rgbf000100-resize_2/003292_2014-05-14_21-53-49_094959634447_rgbf000100-resize_2-target.png,depth_discrimination_stimuli/000542_2014-06-08_18-27-08_260595134347_rgbf000118-resize_1/000542_2014-06-08_18-27-08_260595134347_rgbf000118-resize_1-target.png,250,3.4815,3,0,1579,502,251,998,249,500,,,,,,725498,930641,34
343974,DepthScenes,v2_duration_discrimination,discrim_jsons/shuffled_g0_dr.json,http://54.211.221.249/DepthDuration/v2_depth_discrimination_MTurk/v2_DepthDiscrim_HTML.html#1,1,1366,615,1366,768,8-2-2021,9-56-24,30,depth_discrimination_stimuli/002072_2014-06-24_21-48-06_260595134347_rgbf000115-resize_0/002072_2014-06-24_21-48-06_260595134347_rgbf000115-resize_0-target.png,depth_discrimination_stimuli/001012_2014-06-08_23-19-38_260595134347_rgbf000057-resize_0/001012_2014-06-08_23-19-38_260595134347_rgbf000057-resize_0-target.png,250,4.702,1.38325,1,1522,502,249,1001,248,502,,,,,,725498,930641,34
343974,DepthScenes,v2_duration_discrimination,discrim_jsons/shuffled_g0_dr.json,http://54.211.221.249/DepthDuration/v2_depth_discrimination_MTurk/v2_DepthDiscrim_HTML.html#1,1,1366,615,1366,768,8-2-2021,9-56-24,31,depth_discrimination_stimuli/000927_2014-06-09_16-32-30_260595134347_rgbf000123-resize_3/000927_2014-06-09_16-32-30_260595134347_rgbf000123-resize_3-target.png,depth_discrimination_stimuli/002678_2014-06-13_16-15-32_094959634447_rgbf000151-resize_6/002678_2014-06-13_16-15-32_094959634447_rgbf000151-resize_6-target.png,1000,2.6785,2.183,1,4578,500,1001,999,999,499,,,,,,725498,930641,34
343974,DepthScenes,v2_duration_discrimination,discrim_jsons/shuffled_g0_dr.json,http://54.211.221.249/DepthDuration/v2_depth_discrimination_MTurk/v2_DepthDiscrim_HTML.html#1,1,1366,615,1366,768,8-2-2021,9-56-24,32,depth_discrimination_stimuli/002660_2014-06-13_15-44-18_094959634447_rgbf001878-resize_2/002660_2014-06-13_15-44-18_094959634447_rgbf001878-resize_2-target.png,depth_discrimination_stimuli/003081_2014-06-15_15-19-16_094959634447_rgbf000150-resize_1/003081_2014-06-15_15-19-16_094959634447_rgbf000150-resize_1-target.png,250,3.576,3.9125,1,1900,501,244,1000,251,498,,,,,,725498,930641,34
343974,DepthScenes,v2_duration_discrimination,discrim_jsons/shuffled_g0_dr.json,http://54.211.221.249/DepthDuration/v2_depth_discrimination_MTurk/v2_DepthDiscrim_HTML.html#1,1,1366,615,1366,768,8-2-2021,9-56-24,33,depth_discrimination_stimuli/001158_2014-06-17_15-32-16_260595134347_rgbf000138-resize_2/001158_2014-06-17_15-32-16_260595134347_rgbf000138-resize_2-target.png,depth_discrimination_stimuli/001181_2014-06-17_15-50-57_260595134347_rgbf000106-resize_4/001181_2014-06-17_15-50-57_260595134347_rgbf000106-resize_4-target.png,1000,4.5315,4.149,1,1517,500,999,1000,999,501,,,,,,725498,930641,34
343974,DepthScenes,v2_duration_discrimination,discrim_jsons/shuffled_g0_dr.json,http://54.211.221.249/DepthDuration/v2_depth_discrimination_MTurk/v2_DepthDiscrim_HTML.html#1,1,1366,615,1366,768,8-2-2021,9-56-24,34,depth_discrimination_stimuli/002467_2014-06-28_20-38-07_260595134347_rgbf000026-resize_2/002467_2014-06-28_20-38-07_260595134347_rgbf000026-resize_2-target.png,depth_discrimination_stimuli/001133_2014-06-17_14-49-16_260595134347_rgbf000100-resize_0/001133_2014-06-17_14-49-16_260595134347_rgbf000100-resize_0-target.png,1000,4.742,4.2115,1,6064,502,1000,1005,993,500,,,,,,725498,930641,34
343974,DepthScenes,v2_duration_discrimination,discrim_jsons/shuffled_g0_dr.json,http://54.211.221.249/DepthDuration/v2_depth_discrimination_MTurk/v2_DepthDiscrim_HTML.html#1,1,1366,615,1366,768,8-2-2021,9-56-24,35,depth_discrimination_stimuli/001170_2014-06-17_15-43-44_260595134347_rgbf000096-resize_6/001170_2014-06-17_15-43-44_260595134347_rgbf000096-resize_6-target.png,depth_discrimination_stimuli/002364_2014-06-28_20-11-05_260595134347_rgbf000042-resize_0/002364_2014-06-28_20-11-05_260595134347_rgbf000042-resize_0-target.png,250,1.191,4.682,0,1562,501,249,1000,251,499,,,,,,725498,930641,34
343974,DepthScenes,v2_duration_discrimination,discrim_jsons/shuffled_g0_dr.json,http://54.211.221.249/DepthDuration/v2_depth_discrimination_MTurk/v2_DepthDiscrim_HTML.html#1,1,1366,615,1366,768,8-2-2021,9-56-24,36,depth_discrimination_stimuli/003423_2014-05-21_10-23-26_094959634447_rgbf002665-resize_2/003423_2014-05-21_10-23-26_094959634447_rgbf002665-resize_2-target.png,depth_discrimination_stimuli/000137_2014-05-20_17-04-49_260595134347_rgbf000120-resize_1/000137_2014-05-20_17-04-49_260595134347_rgbf000120-resize_1-target.png,1000,3.2575,3.786,1,4074,502,1000,999,1001,498,,,,,,725498,930641,34
343974,DepthScenes,v2_duration_discrimination,discrim_jsons/shuffled_g0_dr.json,http://54.211.221.249/DepthDuration/v2_depth_discrimination_MTurk/v2_DepthDiscrim_HTML.html#1,1,1366,615,1366,768,8-2-2021,9-56-24,37,depth_discrimination_stimuli/001197_2014-06-17_16-01-50_260595134347_rgbf000103-resize_4/001197_2014-06-17_16-01-50_260595134347_rgbf000103-resize_4-target.png,depth_discrimination_stimuli/001235_2014-06-17_16-37-36_260595134347_rgbf000084-resize_4/001235_2014-06-17_16-37-36_260595134347_rgbf000084-resize_4-target.png,1000,3.4025,3.6605,1,6108,503,999,999,999,500,,,,,,725498,930641,34
343974,DepthScenes,v2_duration_discrimination,discrim_jsons/shuffled_g0_dr.json,http://54.211.221.249/DepthDuration/v2_depth_discrimination_MTurk/v2_DepthDiscrim_HTML.html#1,1,1366,615,1366,768,8-2-2021,9-56-24,38,depth_discrimination_stimuli/003395_2014-05-20_15-39-18_094959634447_rgbf000101-resize_0/003395_2014-05-20_15-39-18_094959634447_rgbf000101-resize_0-target.png,depth_discrimination_stimuli/001540_2014-06-20_17-01-05_260595134347_rgbf000086-resize_2/001540_2014-06-20_17-01-05_260595134347_rgbf000086-resize_2-target.png,1000,4.835,1.459,1,3120,502,999,999,1000,505,,,,,,725498,930641,34
343974,DepthScenes,v2_duration_discrimination,discrim_jsons/shuffled_g0_dr.json,http://54.211.221.249/DepthDuration/v2_depth_discrimination_MTurk/v2_DepthDiscrim_HTML.html#1,1,1366,615,1366,768,8-2-2021,9-56-24,39,depth_discrimination_stimuli/001808_2014-06-26_20-50-58_260595134347_rgbf000029-resize_1/001808_2014-06-26_20-50-58_260595134347_rgbf000029-resize_1-target.png,depth_discrimination_stimuli/002748_2014-06-22_19-07-22_094959634447_rgbf000078-resize_1/002748_2014-06-22_19-07-22_094959634447_rgbf000078-resize_1-target.png,1000,4.249,4.6705,1,5220,502,1000,1000,1000,499,,,,,,725498,930641,34
343974,DepthScenes,v2_duration_discrimination,discrim_jsons/shuffled_g0_dr.json,http://54.211.221.249/DepthDuration/v2_depth_discrimination_MTurk/v2_DepthDiscrim_HTML.html#1,1,1366,615,1366,768,8-2-2021,9-56-24,40,depth_discrimination_stimuli/002323_2014-06-28_20-01-54_260595134347_rgbf000051-resize_4/002323_2014-06-28_20-01-54_260595134347_rgbf000051-resize_4-target.png,depth_discrimination_stimuli/001032_2014-06-08_13-23-17_260595134347_rgbf000021-resize_3/001032_2014-06-08_13-23-17_260595134347_rgbf000021-resize_3-target.png,1000,3.731,3.2725,1,4066,505,995,1000,1000,500,,,,,,725498,930641,34
343974,DepthScenes,v2_duration_discrimination,discrim_jsons/shuffled_g0_dr.json,http://54.211.221.249/DepthDuration/v2_depth_discrimination_MTurk/v2_DepthDiscrim_HTML.html#1,1,1366,615,1366,768,8-2-2021,9-56-24,40,,,,,,,4066,505,995,1000,1000,500,,,,,,725498,930641,34
343974,DepthScenes,v2_duration_discrimination,discrim_jsons/shuffled_g0_dr.json,http://54.211.221.249/DepthDuration/v2_depth_discrimination_MTurk/v2_DepthDiscrim_HTML.html#1,1,2024,923,2049,1152,8-2-2021,9-56-24,42,,,,,,,4066,505,995,1000,1000,500,,2,4,depth_discrimination_stimuli/003587_2014-05-23_16-48-02_094959634447_rgbf002384-resize_2/003587_2014-05-23_16-48-02_094959634447_rgbf002384-resize-original.jpg,10229,725498,930641,34
343974,DepthScenes,v2_duration_discrimination,discrim_jsons/shuffled_g0_dr.json,http://54.211.221.249/DepthDuration/v2_depth_discrimination_MTurk/v2_DepthDiscrim_HTML.html#1,1,2024,923,2049,1152,8-2-2021,9-56-24,43,,,,,,,4066,505,995,1000,1000,500,,4,2,depth_discrimination_stimuli/000810_2014-06-08_17-20-01_260595134347_rgbf000105-resize_0/000810_2014-06-08_17-20-01_260595134347_rgbf000105-resize-original.jpg,4159,725498,930641,34
343974,DepthScenes,v2_duration_discrimination,discrim_jsons/shuffled_g0_dr.json,http://54.211.221.249/DepthDuration/v2_depth_discrimination_MTurk/v2_DepthDiscrim_HTML.html#1,1,2024,923,2049,1152,8-2-2021,9-56-24,44,,,,,,,4066,505,995,1000,1000,500,,2,4,depth_discrimination_stimuli/002989_2014-06-15_12-25-03_094959634447_rgbf000150-resize_3/002989_2014-06-15_12-25-03_094959634447_rgbf000150-resize-original.jpg,3239,725498,930641,34
343974,DepthScenes,v2_duration_discrimination,discrim_jsons/shuffled_g0_dr.json,http://54.211.221.249/DepthDuration/v2_depth_discrimination_MTurk/v2_DepthDiscrim_HTML.html#1,1,2024,923,2049,1152,8-2-2021,9-56-24,45,,,,,,,4066,505,995,1000,1000,500,,4,2,depth_discrimination_stimuli/000720_2014-06-08_18-37-27_260595134347_rgbf000203-resize_4/000720_2014-06-08_18-37-27_260595134347_rgbf000203-resize-original.jpg,4542,725498,930641,34
343974,DepthScenes,v2_duration_discrimination,discrim_jsons/shuffled_g0_dr.json,http://54.211.221.249/DepthDuration/v2_depth_discrimination_MTurk/v2_DepthDiscrim_HTML.html#1,1,2024,923,2049,1152,8-2-2021,9-56-24,46,,,,,,,4066,505,995,1000,1000,500,,4,2,depth_discrimination_stimuli/003048_2014-06-15_13-49-43_094959634447_rgbf000150-resize_1/003048_2014-06-15_13-49-43_094959634447_rgbf000150-resize-original.jpg,3732,725498,930641,34
343974,DepthScenes,v2_duration_discrimination,discrim_jsons/shuffled_g0_dr.json,http://54.211.221.249/DepthDuration/v2_depth_discrimination_MTurk/v2_DepthDiscrim_HTML.html#1,1,2024,923,2049,1152,8-2-2021,9-56-24,47,,,,,,,4066,505,995,1000,1000,500,,4,2,depth_discrimination_stimuli/000753_2014-06-08_21-57-44_260595134347_rgbf000123-resize_3/000753_2014-06-08_21-57-44_260595134347_rgbf000123-resize-original.jpg,3099,725498,930641,34
343974,DepthScenes,v2_duration_discrimination,discrim_jsons/shuffled_g0_dr.json,http://54.211.221.249/DepthDuration/v2_depth_discrimination_MTurk/v2_DepthDiscrim_HTML.html#1,1,2024,923,2049,1152,8-2-2021,9-56-24,48,,,,,,,4066,505,995,1000,1000,500,,4,2,depth_discrimination_stimuli/000780_2014-06-08_22-28-29_260595134347_rgbf000126-resize_1/000780_2014-06-08_22-28-29_260595134347_rgbf000126-resize-original.jpg,3024,725498,930641,34
343974,DepthScenes,v2_duration_discrimination,discrim_jsons/shuffled_g0_dr.json,http://54.211.221.249/DepthDuration/v2_depth_discrimination_MTurk/v2_DepthDiscrim_HTML.html#1,1,2024,923,2049,1152,8-2-2021,9-56-24,49,,,,,,,4066,505,995,1000,1000,500,,4,2,depth_discrimination_stimuli/000483_2014-06-09_20-41-45_260595134347_rgbf000116-resize_4/000483_2014-06-09_20-41-45_260595134347_rgbf000116-resize-original.jpg,3051,725498,930641,34
343974,DepthScenes,v2_duration_discrimination,discrim_jsons/shuffled_g0_dr.json,http://54.211.221.249/DepthDuration/v2_depth_discrimination_MTurk/v2_DepthDiscrim_HTML.html#1,1,2024,923,2049,1152,8-2-2021,9-56-24,50,,,,,,,4066,505,995,1000,1000,500,,4,2,depth_discrimination_stimuli/002136_2014-06-25_21-18-03_260595134347_rgbf000109-resize_3/002136_2014-06-25_21-18-03_260595134347_rgbf000109-resize-original.jpg,2764,725498,930641,34
343974,DepthScenes,v2_duration_discrimination,discrim_jsons/shuffled_g0_dr.json,http://54.211.221.249/DepthDuration/v2_depth_discrimination_MTurk/v2_DepthDiscrim_HTML.html#1,1,2024,923,2049,1152,8-2-2021,9-56-24,51,,,,,,,4066,505,995,1000,1000,500,,4,2,depth_discrimination_stimuli/002414_2014-06-28_20-24-58_260595134347_rgbf000067-resize_4/002414_2014-06-28_20-24-58_260595134347_rgbf000067-resize-original.jpg,2562,725498,930641,34
343974,DepthScenes,v2_duration_discrimination,discrim_jsons/shuffled_g0_dr.json,http://54.211.221.249/DepthDuration/v2_depth_discrimination_MTurk/v2_DepthDiscrim_HTML.html#1,1,2024,923,2049,1152,8-2-2021,9-56-24,52,,,,,,,4066,505,995,1000,1000,500,,4,2,depth_discrimination_stimuli/003129_2014-05-12_10-48-10_094959634447_rgbf000100-resize_0/003129_2014-05-12_10-48-10_094959634447_rgbf000100-resize-original.jpg,2823,725498,930641,34
343974,DepthScenes,v2_duration_discrimination,discrim_jsons/shuffled_g0_dr.json,http://54.211.221.249/DepthDuration/v2_depth_discrimination_MTurk/v2_DepthDiscrim_HTML.html#1,1,2024,923,2049,1152,8-2-2021,9-56-24,53,,,,,,,4066,505,995,1000,1000,500,,4,2,depth_discrimination_stimuli/003621_2014-05-23_18-06-08_094959634447_rgbf000101-resize_1/003621_2014-05-23_18-06-08_094959634447_rgbf000101-resize-original.jpg,3213,725498,930641,34
343974,DepthScenes,v2_duration_discrimination,discrim_jsons/shuffled_g0_dr.json,http://54.211.221.249/DepthDuration/v2_depth_discrimination_MTurk/v2_DepthDiscrim_HTML.html#1,1,2024,923,2049,1152,8-2-2021,9-56-24,54,,,,,,,4066,505,995,1000,1000,500,,4,2,depth_discrimination_stimuli/000906_2014-06-08_13-35-43_260595134347_rgbf000155-resize_1/000906_2014-06-08_13-35-43_260595134347_rgbf000155-resize-original.jpg,2717,725498,930641,34
343974,DepthScenes,v2_duration_discrimination,discrim_jsons/shuffled_g0_dr.json,http://54.211.221.249/DepthDuration/v2_depth_discrimination_MTurk/v2_DepthDiscrim_HTML.html#1,1,2024,923,2049,1152,8-2-2021,9-56-24,55,,,,,,,4066,505,995,1000,1000,500,,4,2,depth_discrimination_stimuli/000493_2014-06-09_21-01-18_260595134347_rgbf000196-resize_3/000493_2014-06-09_21-01-18_260595134347_rgbf000196-resize-original.jpg,2710,725498,930641,34
343974,DepthScenes,v2_duration_discrimination,discrim_jsons/shuffled_g0_dr.json,http://54.211.221.249/DepthDuration/v2_depth_discrimination_MTurk/v2_DepthDiscrim_HTML.html#1,1,2024,923,2049,1152,8-2-2021,9-56-24,56,,,,,,,4066,505,995,1000,1000,500,,4,2,depth_discrimination_stimuli/002509_2014-06-24_13-19-22_094959634447_rgbf000077-resize_0/002509_2014-06-24_13-19-22_094959634447_rgbf000077-resize-original.jpg,2745,725498,930641,34
343974,DepthScenes,v2_duration_discrimination,discrim_jsons/shuffled_g0_dr.json,http://54.211.221.249/DepthDuration/v2_depth_discrimination_MTurk/v2_DepthDiscrim_HTML.html#1,1,2024,923,2049,1152,8-2-2021,9-56-24,57,,,,,,,4066,505,995,1000,1000,500,,4,2,depth_discrimination_stimuli/000137_2014-05-20_17-04-49_260595134347_rgbf000120-resize_1/000137_2014-05-20_17-04-49_260595134347_rgbf000120-resize-original.jpg,3676,725498,930641,34
343974,DepthScenes,v2_duration_discrimination,discrim_jsons/shuffled_g0_dr.json,http://54.211.221.249/DepthDuration/v2_depth_discrimination_MTurk/v2_DepthDiscrim_HTML.html#1,1,2024,923,2049,1152,8-2-2021,9-56-24,58,,,,,,,4066,505,995,1000,1000,500,,4,2,depth_discrimination_stimuli/001289_2014-06-16_16-25-52_260595134347_rgbf000067-resize_1/001289_2014-06-16_16-25-52_260595134347_rgbf000067-resize-original.jpg,2550,725498,930641,34
343974,DepthScenes,v2_duration_discrimination,discrim_jsons/shuffled_g0_dr.json,http://54.211.221.249/DepthDuration/v2_depth_discrimination_MTurk/v2_DepthDiscrim_HTML.html#1,1,2024,923,2049,1152,8-2-2021,9-56-24,59,,,,,,,4066,505,995,1000,1000,500,,4,2,depth_discrimination_stimuli/000469_2014-06-09_19-42-10_260595134347_rgbf000081-resize_1/000469_2014-06-09_19-42-10_260595134347_rgbf000081-resize-original.jpg,2685,725498,930641,34
343974,DepthScenes,v2_duration_discrimination,discrim_jsons/shuffled_g0_dr.json,http://54.211.221.249/DepthDuration/v2_depth_discrimination_MTurk/v2_DepthDiscrim_HTML.html#1,1,2024,923,2049,1152,8-2-2021,9-56-24,60,,,,,,,4066,505,995,1000,1000,500,,4,2,depth_discrimination_stimuli/002987_2014-06-08_18-48-20_094959634447_rgbf000022-resize_0/002987_2014-06-08_18-48-20_094959634447_rgbf000022-resize-original.jpg,2782,725498,930641,34
343974,DepthScenes,v2_duration_discrimination,discrim_jsons/shuffled_g0_dr.json,http://54.211.221.249/DepthDuration/v2_depth_discrimination_MTurk/v2_DepthDiscrim_HTML.html#1,1,2024,923,2049,1152,8-2-2021,9-56-24,61,,,,,,,4066,505,995,1000,1000,500,,4,2,depth_discrimination_stimuli/001150_2014-06-17_15-27-34_260595134347_rgbf000108-resize_2/001150_2014-06-17_15-27-34_260595134347_rgbf000108-resize-original.jpg,2529,725498,930641,34
343974,DepthScenes,v2_duration_discrimination,discrim_jsons/shuffled_g0_dr.json,http://54.211.221.249/DepthDuration/v2_depth_discrimination_MTurk/v2_DepthDiscrim_HTML.html#1,1,2024,923,2049,1152,8-2-2021,9-56-24,62,,,,,,,4066,505,995,1000,1000,500,,4,2,depth_discrimination_stimuli/002949_2014-06-26_15-57-42_094959634447_rgbf000079-resize_1/002949_2014-06-26_15-57-42_094959634447_rgbf000079-resize-original.jpg,2702,725498,930641,34
343974,DepthScenes,v2_duration_discrimination,discrim_jsons/shuffled_g0_dr.json,http://54.211.221.249/DepthDuration/v2_depth_discrimination_MTurk/v2_DepthDiscrim_HTML.html#1,1,2024,923,2049,1152,8-2-2021,9-56-24,63,,,,,,,4066,505,995,1000,1000,500,,5,2,depth_discrimination_stimuli/002875_2014-06-01_15-19-00_094959634447_rgbf000151-resize_1/002875_2014-06-01_15-19-00_094959634447_rgbf000151-resize-original.jpg,2758,725498,930641,34
343974,DepthScenes,v2_duration_discrimination,discrim_jsons/shuffled_g0_dr.json,http://54.211.221.249/DepthDuration/v2_depth_discrimination_MTurk/v2_DepthDiscrim_HTML.html#1,1,2024,923,2049,1152,8-2-2021,9-56-24,64,,,,,,,4066,505,995,1000,1000,500,,4,2,scene_property_catch_stimuli/sun_bpzzatthlcapxzol.jpg,9420,725498,930641,34
343974,DepthScenes,v2_duration_discrimination,discrim_jsons/shuffled_g0_dr.json,http://54.211.221.249/DepthDuration/v2_depth_discrimination_MTurk/v2_DepthDiscrim_HTML.html#1,1,2024,923,2049,1152,8-2-2021,9-56-24,65,,,,,,,4066,505,995,1000,1000,500,,4,1,depth_discrimination_stimuli/001650_2014-06-20_12-09-00_260595134347_rgbf000087-resize_3/001650_2014-06-20_12-09-00_260595134347_rgbf000087-resize-original.jpg,3535,725498,930641,34
343974,DepthScenes,v2_duration_discrimination,discrim_jsons/shuffled_g0_dr.json,http://54.211.221.249/DepthDuration/v2_depth_discrimination_MTurk/v2_DepthDiscrim_HTML.html#1,1,2024,923,2049,1152,8-2-2021,9-56-24,66,,,,,,,4066,505,995,1000,1000,500,,4,2,depth_discrimination_stimuli/000734_2014-06-08_17-39-11_260595134347_rgbf000128-resize_2/000734_2014-06-08_17-39-11_260595134347_rgbf000128-resize-original.jpg,3094,725498,930641,34
343974,DepthScenes,v2_duration_discrimination,discrim_jsons/shuffled_g0_dr.json,http://54.211.221.249/DepthDuration/v2_depth_discrimination_MTurk/v2_DepthDiscrim_HTML.html#1,1,2024,923,2049,1152,8-2-2021,9-56-24,67,,,,,,,4066,505,995,1000,1000,500,,4,2,depth_discrimination_stimuli/001175_2014-06-17_15-45-55_260595134347_rgbf000129-resize_4/001175_2014-06-17_15-45-55_260595134347_rgbf000129-resize-original.jpg,4620,725498,930641,34
343974,DepthScenes,v2_duration_discrimination,discrim_jsons/shuffled_g0_dr.json,http://54.211.221.249/DepthDuration/v2_depth_discrimination_MTurk/v2_DepthDiscrim_HTML.html#1,1,2024,923,2049,1152,8-2-2021,9-56-24,68,,,,,,,4066,505,995,1000,1000,500,,5,2,depth_discrimination_stimuli/002579_2014-06-24_14-08-03_094959634447_rgbf000061-resize_2/002579_2014-06-24_14-08-03_094959634447_rgbf000061-resize-original.jpg,2781,725498,930641,34
343974,DepthScenes,v2_duration_discrimination,discrim_jsons/shuffled_g0_dr.json,http://54.211.221.249/DepthDuration/v2_depth_discrimination_MTurk/v2_DepthDiscrim_HTML.html#1,1,2024,923,2049,1152,8-2-2021,9-56-24,69,,,,,,,4066,505,995,1000,1000,500,,5,2,depth_discrimination_stimuli/000486_2014-06-09_20-47-20_260595134347_rgbf000143-resize_2/000486_2014-06-09_20-47-20_260595134347_rgbf000143-resize-original.jpg,2724,725498,930641,34
343974,DepthScenes,v2_duration_discrimination,discrim_jsons/shuffled_g0_dr.json,http://54.211.221.249/DepthDuration/v2_depth_discrimination_MTurk/v2_DepthDiscrim_HTML.html#1,1,2024,923,2049,1152,8-2-2021,9-56-24,70,,,,,,,4066,505,995,1000,1000,500,,5,2,depth_discrimination_stimuli/000692_2014-06-08_13-09-42_260595134347_rgbf000199-resize_2/000692_2014-06-08_13-09-42_260595134347_rgbf000199-resize-original.jpg,2173,725498,930641,34
343974,DepthScenes,v2_duration_discrimination,discrim_jsons/shuffled_g0_dr.json,http://54.211.221.249/DepthDuration/v2_depth_discrimination_MTurk/v2_DepthDiscrim_HTML.html#1,1,2024,923,2049,1152,8-2-2021,9-56-24,71,,,,,,,4066,505,995,1000,1000,500,,5,2,depth_discrimination_stimuli/003010_2014-06-15_12-54-35_094959634447_rgbf000112-resize_0/003010_2014-06-15_12-54-35_094959634447_rgbf000112-resize-original.jpg,2328,725498,930641,34
343974,DepthScenes,v2_duration_discrimination,discrim_jsons/shuffled_g0_dr.json,http://54.211.221.249/DepthDuration/v2_depth_discrimination_MTurk/v2_DepthDiscrim_HTML.html#1,1,2024,923,2049,1152,8-2-2021,9-56-24,72,,,,,,,4066,505,995,1000,1000,500,,5,2,depth_discrimination_stimuli/003092_2014-06-24_21-01-49_094959634447_rgbf000049-resize_2/003092_2014-06-24_21-01-49_094959634447_rgbf000049-resize-original.jpg,2661,725498,930641,34
343974,DepthScenes,v2_duration_discrimination,discrim_jsons/shuffled_g0_dr.json,http://54.211.221.249/DepthDuration/v2_depth_discrimination_MTurk/v2_DepthDiscrim_HTML.html#1,1,2024,923,2049,1152,8-2-2021,9-56-24,73,,,,,,,4066,505,995,1000,1000,500,,5,2,depth_discrimination_stimuli/001724_2014-06-26_19-28-50_260595134347_rgbf000037-resize_7/001724_2014-06-26_19-28-50_260595134347_rgbf000037-resize-original.jpg,2336,725498,930641,34
343974,DepthScenes,v2_duration_discrimination,discrim_jsons/shuffled_g0_dr.json,http://54.211.221.249/DepthDuration/v2_depth_discrimination_MTurk/v2_DepthDiscrim_HTML.html#1,1,2024,923,2049,1152,8-2-2021,9-56-24,74,,,,,,,4066,505,995,1000,1000,500,,5,2,depth_discrimination_stimuli/002639_2014-06-24_14-51-37_094959634447_rgbf000074-resize_4/002639_2014-06-24_14-51-37_094959634447_rgbf000074-resize-original.jpg,2128,725498,930641,34
343974,DepthScenes,v2_duration_discrimination,discrim_jsons/shuffled_g0_dr.json,http://54.211.221.249/DepthDuration/v2_depth_discrimination_MTurk/v2_DepthDiscrim_HTML.html#1,1,2024,923,2049,1152,8-2-2021,9-56-24,75,,,,,,,4066,505,995,1000,1000,500,,5,2,depth_discrimination_stimuli/002467_2014-06-28_20-38-07_260595134347_rgbf000026-resize_2/002467_2014-06-28_20-38-07_260595134347_rgbf000026-resize-original.jpg,2409,725498,930641,34
343974,DepthScenes,v2_duration_discrimination,discrim_jsons/shuffled_g0_dr.json,http://54.211.221.249/DepthDuration/v2_depth_discrimination_MTurk/v2_DepthDiscrim_HTML.html#1,1,2024,923,2049,1152,8-2-2021,9-56-24,76,,,,,,,4066,505,995,1000,1000,500,,5,2,depth_discrimination_stimuli/002323_2014-06-28_20-01-54_260595134347_rgbf000051-resize_4/002323_2014-06-28_20-01-54_260595134347_rgbf000051-resize-original.jpg,2257,725498,930641,34
343974,DepthScenes,v2_duration_discrimination,discrim_jsons/shuffled_g0_dr.json,http://54.211.221.249/DepthDuration/v2_depth_discrimination_MTurk/v2_DepthDiscrim_HTML.html#1,1,2024,923,2049,1152,8-2-2021,9-56-24,77,,,,,,,4066,505,995,1000,1000,500,,5,2,depth_discrimination_stimuli/003079_2014-06-15_15-18-20_094959634447_rgbf000152-resize_8/003079_2014-06-15_15-18-20_094959634447_rgbf000152-resize-original.jpg,2517,725498,930641,34
343974,DepthScenes,v2_duration_discrimination,discrim_jsons/shuffled_g0_dr.json,http://54.211.221.249/DepthDuration/v2_depth_discrimination_MTurk/v2_DepthDiscrim_HTML.html#1,1,2024,923,2049,1152,8-2-2021,9-56-24,78,,,,,,,4066,505,995,1000,1000,500,,5,2,depth_discrimination_stimuli/000788_2014-06-08_22-34-36_260595134347_rgbf000131-resize_1/000788_2014-06-08_22-34-36_260595134347_rgbf000131-resize-original.jpg,2713,725498,930641,34
343974,DepthScenes,v2_duration_discrimination,discrim_jsons/shuffled_g0_dr.json,http://54.211.221.249/DepthDuration/v2_depth_discrimination_MTurk/v2_DepthDiscrim_HTML.html#1,1,2024,923,2049,1152,8-2-2021,9-56-24,79,,,,,,,4066,505,995,1000,1000,500,,5,3,depth_discrimination_stimuli/002748_2014-06-22_19-07-22_094959634447_rgbf000078-resize_1/002748_2014-06-22_19-07-22_094959634447_rgbf000078-resize-original.jpg,5338,725498,930641,34
343974,DepthScenes,v2_duration_discrimination,discrim_jsons/shuffled_g0_dr.json,http://54.211.221.249/DepthDuration/v2_depth_discrimination_MTurk/v2_DepthDiscrim_HTML.html#1,1,2024,923,2049,1152,8-2-2021,9-56-24,80,,,,,,,4066,505,995,1000,1000,500,,4,3,depth_discrimination_stimuli/002425_2014-06-28_20-27-29_260595134347_rgbf000031-resize_8/002425_2014-06-28_20-27-29_260595134347_rgbf000031-resize-original.jpg,2852,725498,930641,34
343974,DepthScenes,v2_duration_discrimination,discrim_jsons/shuffled_g0_dr.json,http://54.211.221.249/DepthDuration/v2_depth_discrimination_MTurk/v2_DepthDiscrim_HTML.html#1,1,2024,923,2049,1152,8-2-2021,9-56-24,81,,,,,,,4066,505,995,1000,1000,500,,4,3,depth_discrimination_stimuli/000522_2014-06-08_13-35-06_260595134347_rgbf000244-resize_1/000522_2014-06-08_13-35-06_260595134347_rgbf000244-resize-original.jpg,2782,725498,930641,34
343974,DepthScenes,v2_duration_discrimination,discrim_jsons/shuffled_g0_dr.json,http://54.211.221.249/DepthDuration/v2_depth_discrimination_MTurk/v2_DepthDiscrim_HTML.html#1,1,2024,923,2049,1152,8-2-2021,9-56-24,82,,,,,,,4066,505,995,1000,1000,500,,4,2,depth_discrimination_stimuli/000506_2014-06-08_23-21-00_260595134347_rgbf000070-resize_7/000506_2014-06-08_23-21-00_260595134347_rgbf000070-resize-original.jpg,2565,725498,930641,34
343974,DepthScenes,v2_duration_discrimination,discrim_jsons/shuffled_g0_dr.json,http://54.211.221.249/DepthDuration/v2_depth_discrimination_MTurk/v2_DepthDiscrim_HTML.html#1,1,2024,923,2049,1152,8-2-2021,9-56-24,83,,,,,,,4066,505,995,1000,1000,500,,4,2,depth_discrimination_stimuli/001016_2014-06-09_16-16-10_260595134347_rgbf000112-resize_5/001016_2014-06-09_16-16-10_260595134347_rgbf000112-resize-original.jpg,2419,725498,930641,34
343974,DepthScenes,v2_duration_discrimination,discrim_jsons/shuffled_g0_dr.json,http://54.211.221.249/DepthDuration/v2_depth_discrimination_MTurk/v2_DepthDiscrim_HTML.html#1,1,2024,923,2049,1152,8-2-2021,9-56-24,84,,,,,,,4066,505,995,1000,1000,500,,4,2,depth_discrimination_stimuli/001618_2014-06-20_11-37-31_260595134347_rgbf000027-resize_3/001618_2014-06-20_11-37-31_260595134347_rgbf000027-resize-original.jpg,2433,725498,930641,34
343974,DepthScenes,v2_duration_discrimination,discrim_jsons/shuffled_g0_dr.json,http://54.211.221.249/DepthDuration/v2_depth_discrimination_MTurk/v2_DepthDiscrim_HTML.html#1,1,2024,923,2049,1152,8-2-2021,9-56-24,85,,,,,,,4066,505,995,1000,1000,500,,4,2,depth_discrimination_stimuli/000878_2014-06-08_22-52-45_260595134347_rgbf000045-resize_2/000878_2014-06-08_22-52-45_260595134347_rgbf000045-resize-original.jpg,2676,725498,930641,34
343974,DepthScenes,v2_duration_discrimination,discrim_jsons/shuffled_g0_dr.json,http://54.211.221.249/DepthDuration/v2_depth_discrimination_MTurk/v2_DepthDiscrim_HTML.html#1,1,2024,923,2049,1152,8-2-2021,9-56-24,86,,,,,,,4066,505,995,1000,1000,500,,4,2,depth_discrimination_stimuli/002375_2014-06-28_20-13-44_260595134347_rgbf000032-resize_1/002375_2014-06-28_20-13-44_260595134347_rgbf000032-resize-original.jpg,3246,725498,930641,34
343974,DepthScenes,v2_duration_discrimination,discrim_jsons/shuffled_g0_dr.json,http://54.211.221.249/DepthDuration/v2_depth_discrimination_MTurk/v2_DepthDiscrim_HTML.html#1,1,2024,923,2049,1152,8-2-2021,9-56-24,87,,,,,,,4066,505,995,1000,1000,500,,4,2,depth_discrimination_stimuli/000109_2014-05-14_23-41-52_260595134347_rgbf000035-resize_9/000109_2014-05-14_23-41-52_260595134347_rgbf000035-resize-original.jpg,2608,725498,930641,34
343974,DepthScenes,v2_duration_discrimination,discrim_jsons/shuffled_g0_dr.json,http://54.211.221.249/DepthDuration/v2_depth_discrimination_MTurk/v2_DepthDiscrim_HTML.html#1,1,2024,923,2049,1152,8-2-2021,9-56-24,88,,,,,,,4066,505,995,1000,1000,500,,4,2,depth_discrimination_stimuli/001094_2014-06-15_17-36-00_260595134347_rgbf000205-resize_0/001094_2014-06-15_17-36-00_260595134347_rgbf000205-resize-original.jpg,2834,725498,930641,34
343974,DepthScenes,v2_duration_discrimination,discrim_jsons/shuffled_g0_dr.json,http://54.211.221.249/DepthDuration/v2_depth_discrimination_MTurk/v2_DepthDiscrim_HTML.html#1,1,2024,923,2049,1152,8-2-2021,9-56-24,89,,,,,,,4066,505,995,1000,1000,500,,4,2,depth_discrimination_stimuli/001584_2014-06-20_11-07-43_260595134347_rgbf000002-resize_1/001584_2014-06-20_11-07-43_260595134347_rgbf000002-resize-original.jpg,5095,725498,930641,34
343974,DepthScenes,v2_duration_discrimination,discrim_jsons/shuffled_g0_dr.json,http://54.211.221.249/DepthDuration/v2_depth_discrimination_MTurk/v2_DepthDiscrim_HTML.html#1,1,2024,923,2049,1152,8-2-2021,9-56-24,90,,,,,,,4066,505,995,1000,1000,500,,4,2,depth_discrimination_stimuli/002657_2014-06-13_15-29-54_094959634447_rgbf000150-resize_1/002657_2014-06-13_15-29-54_094959634447_rgbf000150-resize-original.jpg,3294,725498,930641,34
343974,DepthScenes,v2_duration_discrimination,discrim_jsons/shuffled_g0_dr.json,http://54.211.221.249/DepthDuration/v2_depth_discrimination_MTurk/v2_DepthDiscrim_HTML.html#1,1,2024,923,2049,1152,8-2-2021,9-56-24,91,,,,,,,4066,505,995,1000,1000,500,,4,2,depth_discrimination_stimuli/000505_2014-06-08_23-03-23_260595134347_rgbf000091-resize_0/000505_2014-06-08_23-03-23_260595134347_rgbf000091-resize-original.jpg,2825,725498,930641,34
343974,DepthScenes,v2_duration_discrimination,discrim_jsons/shuffled_g0_dr.json,http://54.211.221.249/DepthDuration/v2_depth_discrimination_MTurk/v2_DepthDiscrim_HTML.html#1,1,2024,923,2049,1152,8-2-2021,9-56-24,92,,,,,,,4066,505,995,1000,1000,500,,4,2,depth_discrimination_stimuli/000830_2014-06-04_19-49-31_260595134347_rgbf000096-resize_2/000830_2014-06-04_19-49-31_260595134347_rgbf000096-resize-original.jpg,2958,725498,930641,34
343974,DepthScenes,v2_duration_discrimination,discrim_jsons/shuffled_g0_dr.json,http://54.211.221.249/DepthDuration/v2_depth_discrimination_MTurk/v2_DepthDiscrim_HTML.html#1,1,2024,923,2049,1152,8-2-2021,9-56-24,93,,,,,,,4066,505,995,1000,1000,500,,4,2,depth_discrimination_stimuli/002995_2014-06-15_12-31-26_094959634447_rgbf000150-resize_1/002995_2014-06-15_12-31-26_094959634447_rgbf000150-resize-original.jpg,2519,725498,930641,34
343974,DepthScenes,v2_duration_discrimination,discrim_jsons/shuffled_g0_dr.json,http://54.211.221.249/DepthDuration/v2_depth_discrimination_MTurk/v2_DepthDiscrim_HTML.html#1,1,2024,923,2049,1152,8-2-2021,9-56-24,94,,,,,,,4066,505,995,1000,1000,500,,4,2,depth_discrimination_stimuli/001164_2014-06-17_15-35-46_260595134347_rgbf000085-resize_3/001164_2014-06-17_15-35-46_260595134347_rgbf000085-resize-original.jpg,2546,725498,930641,34
343974,DepthScenes,v2_duration_discrimination,discrim_jsons/shuffled_g0_dr.json,http://54.211.221.249/DepthDuration/v2_depth_discrimination_MTurk/v2_DepthDiscrim_HTML.html#1,1,2024,923,2049,1152,8-2-2021,9-56-24,95,,,,,,,4066,505,995,1000,1000,500,,4,2,depth_discrimination_stimuli/002131_2014-06-25_21-12-01_260595134347_rgbf000083-resize_0/002131_2014-06-25_21-12-01_260595134347_rgbf000083-resize-original.jpg,2971,725498,930641,34
343974,DepthScenes,v2_duration_discrimination,discrim_jsons/shuffled_g0_dr.json,http://54.211.221.249/DepthDuration/v2_depth_discrimination_MTurk/v2_DepthDiscrim_HTML.html#1,1,2024,923,2049,1152,8-2-2021,9-56-24,96,,,,,,,4066,505,995,1000,1000,500,,4,2,depth_discrimination_stimuli/000555_2014-06-09_22-42-23_260595134347_rgbf000037-resize_4/000555_2014-06-09_22-42-23_260595134347_rgbf000037-resize-original.jpg,2748,725498,930641,34
343974,DepthScenes,v2_duration_discrimination,discrim_jsons/shuffled_g0_dr.json,http://54.211.221.249/DepthDuration/v2_depth_discrimination_MTurk/v2_DepthDiscrim_HTML.html#1,1,2024,923,2049,1152,8-2-2021,9-56-24,97,,,,,,,4066,505,995,1000,1000,500,,4,2,depth_discrimination_stimuli/002340_2014-06-28_20-05-46_260595134347_rgbf000113-resize_0/002340_2014-06-28_20-05-46_260595134347_rgbf000113-resize-original.jpg,3735,725498,930641,34
343974,DepthScenes,v2_duration_discrimination,discrim_jsons/shuffled_g0_dr.json,http://54.211.221.249/DepthDuration/v2_depth_discrimination_MTurk/v2_DepthDiscrim_HTML.html#1,1,2024,923,2049,1152,8-2-2021,9-56-24,98,,,,,,,4066,505,995,1000,1000,500,,4,2,depth_discrimination_stimuli/002660_2014-06-13_15-44-18_094959634447_rgbf001878-resize_2/002660_2014-06-13_15-44-18_094959634447_rgbf001878-resize-original.jpg,2270,725498,930641,34
343974,DepthScenes,v2_duration_discrimination,discrim_jsons/shuffled_g0_dr.json,http://54.211.221.249/DepthDuration/v2_depth_discrimination_MTurk/v2_DepthDiscrim_HTML.html#1,1,2024,923,2049,1152,8-2-2021,9-56-24,99,,,,,,,4066,505,995,1000,1000,500,,4,2,depth_discrimination_stimuli/002953_2014-06-08_17-32-18_094959634447_rgbf000059-resize_5/002953_2014-06-08_17-32-18_094959634447_rgbf000059-resize-original.jpg,2923,725498,930641,34
343974,DepthScenes,v2_duration_discrimination,discrim_jsons/shuffled_g0_dr.json,http://54.211.221.249/DepthDuration/v2_depth_discrimination_MTurk/v2_DepthDiscrim_HTML.html#1,1,2024,923,2049,1152,8-2-2021,9-56-24,100,,,,,,,4066,505,995,1000,1000,500,,2,4,depth_discrimination_stimuli/000521_2014-06-08_13-34-35_260595134347_rgbf000191-resize_2/000521_2014-06-08_13-34-35_260595134347_rgbf000191-resize-original.jpg,2692,725498,930641,34
343974,DepthScenes,v2_duration_discrimination,discrim_jsons/shuffled_g0_dr.json,http://54.211.221.249/DepthDuration/v2_depth_discrimination_MTurk/v2_DepthDiscrim_HTML.html#1,1,2024,923,2049,1152,8-2-2021,9-56-24,101,,,,,,,4066,505,995,1000,1000,500,,2,4,depth_discrimination_stimuli/002199_2014-06-28_18-33-56_260595134347_rgbf000074-resize_0/002199_2014-06-28_18-33-56_260595134347_rgbf000074-resize-original.jpg,2519,725498,930641,34
343974,DepthScenes,v2_duration_discrimination,discrim_jsons/shuffled_g0_dr.json,http://54.211.221.249/DepthDuration/v2_depth_discrimination_MTurk/v2_DepthDiscrim_HTML.html#1,1,2024,923,2049,1152,8-2-2021,9-56-24,102,,,,,,,4066,505,995,1000,1000,500,,3,5,depth_discrimination_stimuli/002763_2014-06-22_19-13-10_094959634447_rgbf000075-resize_4/002763_2014-06-22_19-13-10_094959634447_rgbf000075-resize-original.jpg,2481,725498,930641,34
343974,DepthScenes,v2_duration_discrimination,discrim_jsons/shuffled_g0_dr.json,http://54.211.221.249/DepthDuration/v2_depth_discrimination_MTurk/v2_DepthDiscrim_HTML.html#1,1,2024,923,2049,1152,8-2-2021,9-56-24,103,,,,,,,4066,505,995,1000,1000,500,,2,5,depth_discrimination_stimuli/001417_2014-06-19_16-25-36_260595134347_rgbf000115-resize_5/001417_2014-06-19_16-25-36_260595134347_rgbf000115-resize-original.jpg,2554,725498,930641,34
343974,DepthScenes,v2_duration_discrimination,discrim_jsons/shuffled_g0_dr.json,http://54.211.221.249/DepthDuration/v2_depth_discrimination_MTurk/v2_DepthDiscrim_HTML.html#1,1,2024,923,2049,1152,8-2-2021,9-56-24,104,,,,,,,4066,505,995,1000,1000,500,,2,4,depth_discrimination_stimuli/000943_2014-06-09_19-31-07_260595134347_rgbf000128-resize_1/000943_2014-06-09_19-31-07_260595134347_rgbf000128-resize-original.jpg,1810,725498,930641,34
343974,DepthScenes,v2_duration_discrimination,discrim_jsons/shuffled_g0_dr.json,http://54.211.221.249/DepthDuration/v2_depth_discrimination_MTurk/v2_DepthDiscrim_HTML.html#1,1,2024,923,2049,1152,8-2-2021,9-56-24,105,,,,,,,4066,505,995,1000,1000,500,,2,4,depth_discrimination_stimuli/002784_2014-06-22_19-26-30_094959634447_rgbf000083-resize_3/002784_2014-06-22_19-26-30_094959634447_rgbf000083-resize-original.jpg,1815,725498,930641,34
343974,DepthScenes,v2_duration_discrimination,discrim_jsons/shuffled_g0_dr.json,http://54.211.221.249/DepthDuration/v2_depth_discrimination_MTurk/v2_DepthDiscrim_HTML.html#1,1,2024,923,2049,1152,8-2-2021,9-56-24,106,,,,,,,4066,505,995,1000,1000,500,,2,4,depth_discrimination_stimuli/000854_2014-06-09_19-43-13_260595134347_rgbf000066-resize_0/000854_2014-06-09_19-43-13_260595134347_rgbf000066-resize-original.jpg,1923,725498,930641,34
343974,DepthScenes,v2_duration_discrimination,discrim_jsons/shuffled_g0_dr.json,http://54.211.221.249/DepthDuration/v2_depth_discrimination_MTurk/v2_DepthDiscrim_HTML.html#1,1,2024,923,2049,1152,8-2-2021,9-56-24,107,,,,,,,4066,505,995,1000,1000,500,,4,2,depth_discrimination_stimuli/002758_2014-06-22_19-11-20_094959634447_rgbf000128-resize_1/002758_2014-06-22_19-11-20_094959634447_rgbf000128-resize-original.jpg,3689,725498,930641,34
343974,DepthScenes,v2_duration_discrimination,discrim_jsons/shuffled_g0_dr.json,http://54.211.221.249/DepthDuration/v2_depth_discrimination_MTurk/v2_DepthDiscrim_HTML.html#1,1,2024,923,2049,1152,8-2-2021,9-56-24,108,,,,,,,4066,505,995,1000,1000,500,,4,2,depth_discrimination_stimuli/003495_2014-05-21_16-01-51_094959634447_rgbf000100-resize_3/003495_2014-05-21_16-01-51_094959634447_rgbf000100-resize-original.jpg,1990,725498,930641,34
343974,DepthScenes,v2_duration_discrimination,discrim_jsons/shuffled_g0_dr.json,http://54.211.221.249/DepthDuration/v2_depth_discrimination_MTurk/v2_DepthDiscrim_HTML.html#1,1,2024,923,2049,1152,8-2-2021,9-56-24,109,,,,,,,4066,505,995,1000,1000,500,,4,2,depth_discrimination_stimuli/000414_2014-06-04_19-49-13_260595134347_rgbf000044-resize_0/000414_2014-06-04_19-49-13_260595134347_rgbf000044-resize-original.jpg,1811,725498,930641,34
343974,DepthScenes,v2_duration_discrimination,discrim_jsons/shuffled_g0_dr.json,http://54.211.221.249/DepthDuration/v2_depth_discrimination_MTurk/v2_DepthDiscrim_HTML.html#1,1,2024,923,2049,1152,8-2-2021,9-56-24,110,,,,,,,4066,505,995,1000,1000,500,,4,2,depth_discrimination_stimuli/001092_2014-06-15_17-34-58_260595134347_rgbf000171-resize_3/001092_2014-06-15_17-34-58_260595134347_rgbf000171-resize-original.jpg,1758,725498,930641,34
343974,DepthScenes,v2_duration_discrimination,discrim_jsons/shuffled_g0_dr.json,http://54.211.221.249/DepthDuration/v2_depth_discrimination_MTurk/v2_DepthDiscrim_HTML.html#1,1,2024,923,2049,1152,8-2-2021,9-56-24,111,,,,,,,4066,505,995,1000,1000,500,,5,2,depth_discrimination_stimuli/001532_2014-06-20_16-50-41_260595134347_rgbf000081-resize_4/001532_2014-06-20_16-50-41_260595134347_rgbf000081-resize-original.jpg,3216,725498,930641,34
343974,DepthScenes,v2_duration_discrimination,discrim_jsons/shuffled_g0_dr.json,http://54.211.221.249/DepthDuration/v2_depth_discrimination_MTurk/v2_DepthDiscrim_HTML.html#1,1,2024,923,2049,1152,8-2-2021,9-56-24,112,,,,,,,4066,505,995,1000,1000,500,,4,2,depth_discrimination_stimuli/003534_2014-05-22_15-06-10_094959634447_rgbf000102-resize_4/003534_2014-05-22_15-06-10_094959634447_rgbf000102-resize-original.jpg,2499,725498,930641,34
343974,DepthScenes,v2_duration_discrimination,discrim_jsons/shuffled_g0_dr.json,http://54.211.221.249/DepthDuration/v2_depth_discrimination_MTurk/v2_DepthDiscrim_HTML.html#1,1,2024,923,2049,1152,8-2-2021,9-56-24,113,,,,,,,4066,505,995,1000,1000,500,,4,1,depth_discrimination_stimuli/000740_2014-06-08_18-46-23_260595134347_rgbf000049-resize_6/000740_2014-06-08_18-46-23_260595134347_rgbf000049-resize-original.jpg,2423,725498,930641,34
343974,DepthScenes,v2_duration_discrimination,discrim_jsons/shuffled_g0_dr.json,http://54.211.221.249/DepthDuration/v2_depth_discrimination_MTurk/v2_DepthDiscrim_HTML.html#1,1,2024,923,2049,1152,8-2-2021,9-56-24,114,,,,,,,4066,505,995,1000,1000,500,,4,4,depth_discrimination_stimuli/000735_2014-06-08_18-23-50_260595134347_rgbf000163-resize_2/000735_2014-06-08_18-23-50_260595134347_rgbf000163-resize-original.jpg,3264,725498,930641,34
343974,DepthScenes,v2_duration_discrimination,discrim_jsons/shuffled_g0_dr.json,http://54.211.221.249/DepthDuration/v2_depth_discrimination_MTurk/v2_DepthDiscrim_HTML.html#1,1,2024,923,2049,1152,8-2-2021,9-56-24,115,,,,,,,4066,505,995,1000,1000,500,,4,3,depth_discrimination_stimuli/001056_2014-06-08_18-46-44_260595134347_rgbf000068-resize_0/001056_2014-06-08_18-46-44_260595134347_rgbf000068-resize-original.jpg,2641,725498,930641,34
343974,DepthScenes,v2_duration_discrimination,discrim_jsons/shuffled_g0_dr.json,http://54.211.221.249/DepthDuration/v2_depth_discrimination_MTurk/v2_DepthDiscrim_HTML.html#1,1,2024,923,2049,1152,8-2-2021,9-56-24,116,,,,,,,4066,505,995,1000,1000,500,,3,5,depth_discrimination_stimuli/002788_2014-06-22_19-36-03_094959634447_rgbf000088-resize_2/002788_2014-06-22_19-36-03_094959634447_rgbf000088-resize-original.jpg,2583,725498,930641,34
343974,DepthScenes,v2_duration_discrimination,discrim_jsons/shuffled_g0_dr.json,http://54.211.221.249/DepthDuration/v2_depth_discrimination_MTurk/v2_DepthDiscrim_HTML.html#1,1,2024,923,2049,1152,8-2-2021,9-56-24,117,,,,,,,4066,505,995,1000,1000,500,,4,2,depth_discrimination_stimuli/000736_2014-06-08_18-24-15_260595134347_rgbf000206-resize_3/000736_2014-06-08_18-24-15_260595134347_rgbf000206-resize-original.jpg,2249,725498,930641,34
343974,DepthScenes,v2_duration_discrimination,discrim_jsons/shuffled_g0_dr.json,http://54.211.221.249/DepthDuration/v2_depth_discrimination_MTurk/v2_DepthDiscrim_HTML.html#1,1,2024,923,2049,1152,8-2-2021,9-56-24,118,,,,,,,4066,505,995,1000,1000,500,,4,2,depth_discrimination_stimuli/002678_2014-06-13_16-15-32_094959634447_rgbf000151-resize_6/002678_2014-06-13_16-15-32_094959634447_rgbf000151-resize-original.jpg,2857,725498,930641,34
343974,DepthScenes,v2_duration_discrimination,discrim_jsons/shuffled_g0_dr.json,http://54.211.221.249/DepthDuration/v2_depth_discrimination_MTurk/v2_DepthDiscrim_HTML.html#1,1,2024,923,2049,1152,8-2-2021,9-56-24,119,,,,,,,4066,505,995,1000,1000,500,,4,2,depth_discrimination_stimuli/002700_2014-06-22_11-27-02_094959634447_rgbf000124-resize_3/002700_2014-06-22_11-27-02_094959634447_rgbf000124-resize-original.jpg,1871,725498,930641,34
343974,DepthScenes,v2_duration_discrimination,discrim_jsons/shuffled_g0_dr.json,http://54.211.221.249/DepthDuration/v2_depth_discrimination_MTurk/v2_DepthDiscrim_HTML.html#1,1,2024,923,2049,1152,8-2-2021,9-56-24,120,,,,,,,4066,505,995,1000,1000,500,,4,2,depth_discrimination_stimuli/002568_2014-06-24_13-59-21_094959634447_rgbf000062-resize_4/002568_2014-06-24_13-59-21_094959634447_rgbf000062-resize-original.jpg,2408,725498,930641,34
343974,DepthScenes,v2_duration_discrimination,discrim_jsons/shuffled_g0_dr.json,http://54.211.221.249/DepthDuration/v2_depth_discrimination_MTurk/v2_DepthDiscrim_HTML.html#1,1,2024,923,2049,1152,8-2-2021,9-56-24,121,,,,,,,4066,505,995,1000,1000,500,,4,2,depth_discrimination_stimuli/000917_2014-06-09_22-45-29_260595134347_rgbf000149-resize_3/000917_2014-06-09_22-45-29_260595134347_rgbf000149-resize-original.jpg,1993,725498,930641,34
343974,DepthScenes,v2_duration_discrimination,discrim_jsons/shuffled_g0_dr.json,http://54.211.221.249/DepthDuration/v2_depth_discrimination_MTurk/v2_DepthDiscrim_HTML.html#1,1,2024,923,2049,1152,8-2-2021,9-56-24,122,,,,,,,4066,505,995,1000,1000,500,,4,2,depth_discrimination_stimuli/000635_2014-06-08_16-38-42_260595134347_rgbf000106-resize_1/000635_2014-06-08_16-38-42_260595134347_rgbf000106-resize-original.jpg,2125,725498,930641,34
343974,DepthScenes,v2_duration_discrimination,discrim_jsons/shuffled_g0_dr.json,http://54.211.221.249/DepthDuration/v2_depth_discrimination_MTurk/v2_DepthDiscrim_HTML.html#1,1,2024,923,2049,1152,8-2-2021,9-56-24,123,,,,,,,4066,505,995,1000,1000,500,,4,3,depth_discrimination_stimuli/001214_2014-06-17_16-13-55_260595134347_rgbf000111-resize_0/001214_2014-06-17_16-13-55_260595134347_rgbf000111-resize-original.jpg,2831,725498,930641,34
343974,DepthScenes,v2_duration_discrimination,discrim_jsons/shuffled_g0_dr.json,http://54.211.221.249/DepthDuration/v2_depth_discrimination_MTurk/v2_DepthDiscrim_HTML.html#1,1,2024,923,2049,1152,8-2-2021,9-56-24,124,,,,,,,4066,505,995,1000,1000,500,,4,3,depth_discrimination_stimuli/000677_2014-06-08_23-10-32_260595134347_rgbf000158-resize_6/000677_2014-06-08_23-10-32_260595134347_rgbf000158-resize-original.jpg,2409,725498,930641,34
343974,DepthScenes,v2_duration_discrimination,discrim_jsons/shuffled_g0_dr.json,http://54.211.221.249/DepthDuration/v2_depth_discrimination_MTurk/v2_DepthDiscrim_HTML.html#1,1,2024,923,2049,1152,8-2-2021,9-56-24,125,,,,,,,4066,505,995,1000,1000,500,,4,3,depth_discrimination_stimuli/001810_2014-06-26_20-51-35_260595134347_rgbf000040-resize_3/001810_2014-06-26_20-51-35_260595134347_rgbf000040-resize-original.jpg,2014,725498,930641,34
343974,DepthScenes,v2_duration_discrimination,discrim_jsons/shuffled_g0_dr.json,http://54.211.221.249/DepthDuration/v2_depth_discrimination_MTurk/v2_DepthDiscrim_HTML.html#1,1,2024,923,2049,1152,8-2-2021,9-56-24,126,,,,,,,4066,505,995,1000,1000,500,,4,3,depth_discrimination_stimuli/001516_2014-06-20_16-25-09_260595134347_rgbf000076-resize_2/001516_2014-06-20_16-25-09_260595134347_rgbf000076-resize-original.jpg,2117,725498,930641,34
343974,DepthScenes,v2_duration_discrimination,discrim_jsons/shuffled_g0_dr.json,http://54.211.221.249/DepthDuration/v2_depth_discrimination_MTurk/v2_DepthDiscrim_HTML.html#1,1,2024,923,2049,1152,8-2-2021,9-56-24,127,,,,,,,4066,505,995,1000,1000,500,,4,3,depth_discrimination_stimuli/001158_2014-06-17_15-32-16_260595134347_rgbf000138-resize_2/001158_2014-06-17_15-32-16_260595134347_rgbf000138-resize-original.jpg,2290,725498,930641,34
343974,DepthScenes,v2_duration_discrimination,discrim_jsons/shuffled_g0_dr.json,http://54.211.221.249/DepthDuration/v2_depth_discrimination_MTurk/v2_DepthDiscrim_HTML.html#1,1,2024,923,2049,1152,8-2-2021,9-56-24,128,,,,,,,4066,505,995,1000,1000,500,,4,2,depth_discrimination_stimuli/001066_2014-06-08_22-03-20_260595134347_rgbf000066-resize_4/001066_2014-06-08_22-03-20_260595134347_rgbf000066-resize-original.jpg,3024,725498,930641,34
343974,DepthScenes,v2_duration_discrimination,discrim_jsons/shuffled_g0_dr.json,http://54.211.221.249/DepthDuration/v2_depth_discrimination_MTurk/v2_DepthDiscrim_HTML.html#1,1,2024,923,2049,1152,8-2-2021,9-56-24,129,,,,,,,4066,505,995,1000,1000,500,,4,2,depth_discrimination_stimuli/002103_2014-06-25_20-00-40_260595134347_rgbf000049-resize_0/002103_2014-06-25_20-00-40_260595134347_rgbf000049-resize-original.jpg,2413,725498,930641,34
343974,DepthScenes,v2_duration_discrimination,discrim_jsons/shuffled_g0_dr.json,http://54.211.221.249/DepthDuration/v2_depth_discrimination_MTurk/v2_DepthDiscrim_HTML.html#1,1,2024,923,2049,1152,8-2-2021,9-56-24,130,,,,,,,4066,505,995,1000,1000,500,,4,2,depth_discrimination_stimuli/001244_2014-06-17_16-47-45_260595134347_rgbf000030-resize_4/001244_2014-06-17_16-47-45_260595134347_rgbf000030-resize-original.jpg,1959,725498,930641,34
343974,DepthScenes,v2_duration_discrimination,discrim_jsons/shuffled_g0_dr.json,http://54.211.221.249/DepthDuration/v2_depth_discrimination_MTurk/v2_DepthDiscrim_HTML.html#1,1,2024,923,2049,1152,8-2-2021,9-56-24,131,,,,,,,4066,505,995,1000,1000,500,,4,2,depth_discrimination_stimuli/001808_2014-06-26_20-50-58_260595134347_rgbf000029-resize_1/001808_2014-06-26_20-50-58_260595134347_rgbf000029-resize-original.jpg,1840,725498,930641,34
343974,DepthScenes,v2_duration_discrimination,discrim_jsons/shuffled_g0_dr.json,http://54.211.221.249/DepthDuration/v2_depth_discrimination_MTurk/v2_DepthDiscrim_HTML.html#1,1,2024,923,2049,1152,8-2-2021,9-56-24,132,,,,,,,4066,505,995,1000,1000,500,,5,3,depth_discrimination_stimuli/000470_2014-06-09_19-42-40_260595134347_rgbf000094-resize_1/000470_2014-06-09_19-42-40_260595134347_rgbf000094-resize-original.jpg,2335,725498,930641,34
343974,DepthScenes,v2_duration_discrimination,discrim_jsons/shuffled_g0_dr.json,http://54.211.221.249/DepthDuration/v2_depth_discrimination_MTurk/v2_DepthDiscrim_HTML.html#1,1,2024,923,2049,1152,8-2-2021,9-56-24,133,,,,,,,4066,505,995,1000,1000,500,,5,3,depth_discrimination_stimuli/002988_2014-06-15_12-24-20_094959634447_rgbf000150-resize_1/002988_2014-06-15_12-24-20_094959634447_rgbf000150-resize-original.jpg,2357,725498,930641,34
343974,DepthScenes,v2_duration_discrimination,discrim_jsons/shuffled_g0_dr.json,http://54.211.221.249/DepthDuration/v2_depth_discrimination_MTurk/v2_DepthDiscrim_HTML.html#1,1,2024,923,2049,1152,8-2-2021,9-56-24,134,,,,,,,4066,505,995,1000,1000,500,,3,3,scene_property_catch_stimuli/sun_aatxlublfjchvvzu.jpg,2638,725498,930641,34
343974,DepthScenes,v2_duration_discrimination,discrim_jsons/shuffled_g0_dr.json,http://54.211.221.249/DepthDuration/v2_depth_discrimination_MTurk/v2_DepthDiscrim_HTML.html#1,1,2024,923,2049,1152,8-2-2021,9-56-24,135,,,,,,,4066,505,995,1000,1000,500,,3,5,depth_discrimination_stimuli/000773_2014-06-08_22-24-54_260595134347_rgbf000093-resize_1/000773_2014-06-08_22-24-54_260595134347_rgbf000093-resize-original.jpg,1912,725498,930641,34
343974,DepthScenes,v2_duration_discrimination,discrim_jsons/shuffled_g0_dr.json,http://54.211.221.249/DepthDuration/v2_depth_discrimination_MTurk/v2_DepthDiscrim_HTML.html#1,1,2024,923,2049,1152,8-2-2021,9-56-24,136,,,,,,,4066,505,995,1000,1000,500,,3,5,depth_discrimination_stimuli/000642_2014-06-08_16-59-25_260595134347_rgbf000098-resize_2/000642_2014-06-08_16-59-25_260595134347_rgbf000098-resize-original.jpg,1835,725498,930641,34
343974,DepthScenes,v2_duration_discrimination,discrim_jsons/shuffled_g0_dr.json,http://54.211.221.249/DepthDuration/v2_depth_discrimination_MTurk/v2_DepthDiscrim_HTML.html#1,1,2024,923,2049,1152,8-2-2021,9-56-24,137,,,,,,,4066,505,995,1000,1000,500,,2,5,depth_discrimination_stimuli/001449_2014-06-19_17-01-27_260595134347_rgbf000116-resize_2/001449_2014-06-19_17-01-27_260595134347_rgbf000116-resize-original.jpg,2240,725498,930641,34
343974,DepthScenes,v2_duration_discrimination,discrim_jsons/shuffled_g0_dr.json,http://54.211.221.249/DepthDuration/v2_depth_discrimination_MTurk/v2_DepthDiscrim_HTML.html#1,1,2024,923,2049,1152,8-2-2021,9-56-24,138,,,,,,,4066,505,995,1000,1000,500,,2,5,depth_discrimination_stimuli/001132_2014-06-17_14-48-54_260595134347_rgbf000100-resize_2/001132_2014-06-17_14-48-54_260595134347_rgbf000100-resize-original.jpg,2361,725498,930641,34
343974,DepthScenes,v2_duration_discrimination,discrim_jsons/shuffled_g0_dr.json,http://54.211.221.249/DepthDuration/v2_depth_discrimination_MTurk/v2_DepthDiscrim_HTML.html#1,1,2024,923,2049,1152,8-2-2021,9-56-24,139,,,,,,,4066,505,995,1000,1000,500,,3,5,depth_discrimination_stimuli/002213_2014-06-28_18-37-58_260595134347_rgbf000055-resize_1/002213_2014-06-28_18-37-58_260595134347_rgbf000055-resize-original.jpg,2352,725498,930641,34
343974,DepthScenes,v2_duration_discrimination,discrim_jsons/shuffled_g0_dr.json,http://54.211.221.249/DepthDuration/v2_depth_discrimination_MTurk/v2_DepthDiscrim_HTML.html#1,1,2024,923,2049,1152,8-2-2021,9-56-24,140,,,,,,,4066,505,995,1000,1000,500,,4,5,depth_discrimination_stimuli/000542_2014-06-08_18-27-08_260595134347_rgbf000118-resize_1/000542_2014-06-08_18-27-08_260595134347_rgbf000118-resize-original.jpg,1929,725498,930641,34
343974,DepthScenes,v2_duration_discrimination,discrim_jsons/shuffled_g0_dr.json,http://54.211.221.249/DepthDuration/v2_depth_discrimination_MTurk/v2_DepthDiscrim_HTML.html#1,1,2024,923,2049,1152,8-2-2021,9-56-24,141,,,,,,,4066,505,995,1000,1000,500,,4,5,depth_discrimination_stimuli/002444_2014-06-28_20-32-08_260595134347_rgbf000027-resize_0/002444_2014-06-28_20-32-08_260595134347_rgbf000027-resize-original.jpg,2218,725498,930641,34
343974,DepthScenes,v2_duration_discrimination,discrim_jsons/shuffled_g0_dr.json,http://54.211.221.249/DepthDuration/v2_depth_discrimination_MTurk/v2_DepthDiscrim_HTML.html#1,1,2024,923,2049,1152,8-2-2021,9-56-24,142,,,,,,,4066,505,995,1000,1000,500,,3,5,depth_discrimination_stimuli/002445_2014-06-28_20-32-16_260595134347_rgbf000029-resize_4/002445_2014-06-28_20-32-16_260595134347_rgbf000029-resize-original.jpg,1997,725498,930641,34
343974,DepthScenes,v2_duration_discrimination,discrim_jsons/shuffled_g0_dr.json,http://54.211.221.249/DepthDuration/v2_depth_discrimination_MTurk/v2_DepthDiscrim_HTML.html#1,1,2024,923,2049,1152,8-2-2021,9-56-24,143,,,,,,,4066,505,995,1000,1000,500,,4,5,depth_discrimination_stimuli/002043_2014-06-24_20-29-38_260595134347_rgbf000039-resize_4/002043_2014-06-24_20-29-38_260595134347_rgbf000039-resize-original.jpg,2204,725498,930641,34
343974,DepthScenes,v2_duration_discrimination,discrim_jsons/shuffled_g0_dr.json,http://54.211.221.249/DepthDuration/v2_depth_discrimination_MTurk/v2_DepthDiscrim_HTML.html#1,1,2024,923,2049,1152,8-2-2021,9-56-24,144,,,,,,,4066,505,995,1000,1000,500,,4,5,depth_discrimination_stimuli/002464_2014-06-28_20-36-57_260595134347_rgbf000029-resize_0/002464_2014-06-28_20-36-57_260595134347_rgbf000029-resize-original.jpg,1966,725498,930641,34
343974,DepthScenes,v2_duration_discrimination,discrim_jsons/shuffled_g0_dr.json,http://54.211.221.249/DepthDuration/v2_depth_discrimination_MTurk/v2_DepthDiscrim_HTML.html#1,1,2024,923,2049,1152,8-2-2021,9-56-24,145,,,,,,,4066,505,995,1000,1000,500,,3,5,depth_discrimination_stimuli/000709_2014-06-08_13-51-55_260595134347_rgbf000068-resize_3/000709_2014-06-08_13-51-55_260595134347_rgbf000068-resize-original.jpg,1912,725498,930641,34
343974,DepthScenes,v2_duration_discrimination,discrim_jsons/shuffled_g0_dr.json,http://54.211.221.249/DepthDuration/v2_depth_discrimination_MTurk/v2_DepthDiscrim_HTML.html#1,1,2024,923,2049,1152,8-2-2021,9-56-24,146,,,,,,,4066,505,995,1000,1000,500,,4,5,depth_discrimination_stimuli/002057_2014-06-24_21-00-13_260595134347_rgbf000120-resize_1/002057_2014-06-24_21-00-13_260595134347_rgbf000120-resize-original.jpg,2140,725498,930641,34
343974,DepthScenes,v2_duration_discrimination,discrim_jsons/shuffled_g0_dr.json,http://54.211.221.249/DepthDuration/v2_depth_discrimination_MTurk/v2_DepthDiscrim_HTML.html#1,1,2024,923,2049,1152,8-2-2021,9-56-24,147,,,,,,,4066,505,995,1000,1000,500,,3,5,depth_discrimination_stimuli/002805_2014-06-22_19-54-03_094959634447_rgbf000079-resize_1/002805_2014-06-22_19-54-03_094959634447_rgbf000079-resize-original.jpg,1675,725498,930641,34
343974,DepthScenes,v2_duration_discrimination,discrim_jsons/shuffled_g0_dr.json,http://54.211.221.249/DepthDuration/v2_depth_discrimination_MTurk/v2_DepthDiscrim_HTML.html#1,1,2024,923,2049,1152,8-2-2021,9-56-24,148,,,,,,,4066,505,995,1000,1000,500,,3,5,depth_discrimination_stimuli/002725_2014-06-22_11-47-51_094959634447_rgbf000070-resize_1/002725_2014-06-22_11-47-51_094959634447_rgbf000070-resize-original.jpg,1623,725498,930641,34
343974,DepthScenes,v2_duration_discrimination,discrim_jsons/shuffled_g0_dr.json,http://54.211.221.249/DepthDuration/v2_depth_discrimination_MTurk/v2_DepthDiscrim_HTML.html#1,1,2024,923,2049,1152,8-2-2021,9-56-24,149,,,,,,,4066,505,995,1000,1000,500,,3,5,depth_discrimination_stimuli/001052_2014-06-08_18-24-54_260595134347_rgbf000130-resize_1/001052_2014-06-08_18-24-54_260595134347_rgbf000130-resize-original.jpg,1636,725498,930641,34
343974,DepthScenes,v2_duration_discrimination,discrim_jsons/shuffled_g0_dr.json,http://54.211.221.249/DepthDuration/v2_depth_discrimination_MTurk/v2_DepthDiscrim_HTML.html#1,1,2024,923,2049,1152,8-2-2021,9-56-24,150,,,,,,,4066,505,995,1000,1000,500,,3,5,depth_discrimination_stimuli/000191_2014-05-12_17-07-38_260595134347_rgbf000199-resize_0/000191_2014-05-12_17-07-38_260595134347_rgbf000199-resize-original.jpg,1622,725498,930641,34
343974,DepthScenes,v2_duration_discrimination,discrim_jsons/shuffled_g0_dr.json,http://54.211.221.249/DepthDuration/v2_depth_discrimination_MTurk/v2_DepthDiscrim_HTML.html#1,1,2024,923,2049,1152,8-2-2021,9-56-24,151,,,,,,,4066,505,995,1000,1000,500,,4,5,depth_discrimination_stimuli/001136_2014-06-17_15-19-41_260595134347_rgbf000076-resize_3/001136_2014-06-17_15-19-41_260595134347_rgbf000076-resize-original.jpg,1647,725498,930641,34
343974,DepthScenes,v2_duration_discrimination,discrim_jsons/shuffled_g0_dr.json,http://54.211.221.249/DepthDuration/v2_depth_discrimination_MTurk/v2_DepthDiscrim_HTML.html#1,1,2024,923,2049,1152,8-2-2021,9-56-24,152,,,,,,,4066,505,995,1000,1000,500,,2,5,depth_discrimination_stimuli/002365_2014-06-28_20-11-21_260595134347_rgbf000102-resize_1/002365_2014-06-28_20-11-21_260595134347_rgbf000102-resize-original.jpg,1615,725498,930641,34
343974,DepthScenes,v2_duration_discrimination,discrim_jsons/shuffled_g0_dr.json,http://54.211.221.249/DepthDuration/v2_depth_discrimination_MTurk/v2_DepthDiscrim_HTML.html#1,1,2024,923,2049,1152,8-2-2021,9-56-24,153,,,,,,,4066,505,995,1000,1000,500,,3,4,depth_discrimination_stimuli/000929_2014-06-09_16-33-19_260595134347_rgbf000139-resize_0/000929_2014-06-09_16-33-19_260595134347_rgbf000139-resize-original.jpg,1873,725498,930641,34
343974,DepthScenes,v2_duration_discrimination,discrim_jsons/shuffled_g0_dr.json,http://54.211.221.249/DepthDuration/v2_depth_discrimination_MTurk/v2_DepthDiscrim_HTML.html#1,1,2024,923,2049,1152,8-2-2021,9-56-24,154,,,,,,,4066,505,995,1000,1000,500,,3,5,depth_discrimination_stimuli/000556_2014-06-09_22-42-56_260595134347_rgbf000214-resize_1/000556_2014-06-09_22-42-56_260595134347_rgbf000214-resize-original.jpg,3912,725498,930641,34
343974,DepthScenes,v2_duration_discrimination,discrim_jsons/shuffled_g0_dr.json,http://54.211.221.249/DepthDuration/v2_depth_discrimination_MTurk/v2_DepthDiscrim_HTML.html#1,1,2024,923,2049,1152,8-2-2021,9-56-24,155,,,,,,,4066,505,995,1000,1000,500,,4,5,depth_discrimination_stimuli/000758_2014-06-08_22-05-08_260595134347_rgbf000085-resize_0/000758_2014-06-08_22-05-08_260595134347_rgbf000085-resize-original.jpg,4794,725498,930641,34
343974,DepthScenes,v2_duration_discrimination,discrim_jsons/shuffled_g0_dr.json,http://54.211.221.249/DepthDuration/v2_depth_discrimination_MTurk/v2_DepthDiscrim_HTML.html#1,1,2024,923,2049,1152,8-2-2021,9-56-24,156,,,,,,,4066,505,995,1000,1000,500,,4,5,depth_discrimination_stimuli/001110_2014-06-15_17-25-28_260595134347_rgbf000150-resize_1/001110_2014-06-15_17-25-28_260595134347_rgbf000150-resize-original.jpg,1930,725498,930641,34
343974,DepthScenes,v2_duration_discrimination,discrim_jsons/shuffled_g0_dr.json,http://54.211.221.249/DepthDuration/v2_depth_discrimination_MTurk/v2_DepthDiscrim_HTML.html#1,1,2024,923,2049,1152,8-2-2021,9-56-24,157,,,,,,,4066,505,995,1000,1000,500,,2,5,depth_discrimination_stimuli/001555_2014-06-20_17-12-10_260595134347_rgbf000065-resize_4/001555_2014-06-20_17-12-10_260595134347_rgbf000065-resize-original.jpg,1559,725498,930641,34
343974,DepthScenes,v2_duration_discrimination,discrim_jsons/shuffled_g0_dr.json,http://54.211.221.249/DepthDuration/v2_depth_discrimination_MTurk/v2_DepthDiscrim_HTML.html#1,1,2024,923,2049,1152,8-2-2021,9-56-24,158,,,,,,,4066,505,995,1000,1000,500,,3,5,depth_discrimination_stimuli/002344_2014-06-28_20-06-29_260595134347_rgbf000030-resize_1/002344_2014-06-28_20-06-29_260595134347_rgbf000030-resize-original.jpg,1736,725498,930641,34
343974,DepthScenes,v2_duration_discrimination,discrim_jsons/shuffled_g0_dr.json,http://54.211.221.249/DepthDuration/v2_depth_discrimination_MTurk/v2_DepthDiscrim_HTML.html#1,1,2024,923,2049,1152,8-2-2021,9-56-24,159,,,,,,,4066,505,995,1000,1000,500,,3,5,depth_discrimination_stimuli/001815_2014-06-26_20-52-55_260595134347_rgbf000020-resize_0/001815_2014-06-26_20-52-55_260595134347_rgbf000020-resize-original.jpg,1895,725498,930641,34
343974,DepthScenes,v2_duration_discrimination,discrim_jsons/shuffled_g0_dr.json,http://54.211.221.249/DepthDuration/v2_depth_discrimination_MTurk/v2_DepthDiscrim_HTML.html#1,1,2024,923,2049,1152,8-2-2021,9-56-24,160,,,,,,,4066,505,995,1000,1000,500,,3,5,depth_discrimination_stimuli/002118_2014-06-25_20-32-08_260595134347_rgbf000078-resize_1/002118_2014-06-25_20-32-08_260595134347_rgbf000078-resize-original.jpg,1783,725498,930641,34
343974,DepthScenes,v2_duration_discrimination,discrim_jsons/shuffled_g0_dr.json,http://54.211.221.249/DepthDuration/v2_depth_discrimination_MTurk/v2_DepthDiscrim_HTML.html#1,1,2024,923,2049,1152,8-2-2021,9-56-24,161,,,,,,,4066,505,995,1000,1000,500,,3,5,depth_discrimination_stimuli/002039_2014-06-24_20-22-38_260595134347_rgbf000084-resize_1/002039_2014-06-24_20-22-38_260595134347_rgbf000084-resize-original.jpg,1894,725498,930641,34
343974,DepthScenes,v2_duration_discrimination,discrim_jsons/shuffled_g0_dr.json,http://54.211.221.249/DepthDuration/v2_depth_discrimination_MTurk/v2_DepthDiscrim_HTML.html#1,1,2024,923,2049,1152,8-2-2021,9-56-24,162,,,,,,,4066,505,995,1000,1000,500,,3,5,depth_discrimination_stimuli/002468_2014-06-28_20-38-39_260595134347_rgbf000045-resize_1/002468_2014-06-28_20-38-39_260595134347_rgbf000045-resize-original.jpg,1668,725498,930641,34
343974,DepthScenes,v2_duration_discrimination,discrim_jsons/shuffled_g0_dr.json,http://54.211.221.249/DepthDuration/v2_depth_discrimination_MTurk/v2_DepthDiscrim_HTML.html#1,1,2024,923,2049,1152,8-2-2021,9-56-24,163,,,,,,,4066,505,995,1000,1000,500,,4,5,depth_discrimination_stimuli/001011_2014-06-08_23-18-54_260595134347_rgbf000044-resize_4/001011_2014-06-08_23-18-54_260595134347_rgbf000044-resize-original.jpg,2109,725498,930641,34
343974,DepthScenes,v2_duration_discrimination,discrim_jsons/shuffled_g0_dr.json,http://54.211.221.249/DepthDuration/v2_depth_discrimination_MTurk/v2_DepthDiscrim_HTML.html#1,1,2024,923,2049,1152,8-2-2021,9-56-24,164,,,,,,,4066,505,995,1000,1000,500,,4,5,depth_discrimination_stimuli/001133_2014-06-17_14-49-16_260595134347_rgbf000100-resize_0/001133_2014-06-17_14-49-16_260595134347_rgbf000100-resize-original.jpg,1714,725498,930641,34
343974,DepthScenes,v2_duration_discrimination,discrim_jsons/shuffled_g0_dr.json,http://54.211.221.249/DepthDuration/v2_depth_discrimination_MTurk/v2_DepthDiscrim_HTML.html#1,1,2024,923,2049,1152,8-2-2021,9-56-24,165,,,,,,,4066,505,995,1000,1000,500,,3,5,depth_discrimination_stimuli/000447_2014-06-08_16-15-46_260595134347_rgbf000130-resize_1/000447_2014-06-08_16-15-46_260595134347_rgbf000130-resize-original.jpg,2400,725498,930641,34
343974,DepthScenes,v2_duration_discrimination,discrim_jsons/shuffled_g0_dr.json,http://54.211.221.249/DepthDuration/v2_depth_discrimination_MTurk/v2_DepthDiscrim_HTML.html#1,1,2024,923,2049,1152,8-2-2021,9-56-24,166,,,,,,,4066,505,995,1000,1000,500,,4,5,depth_discrimination_stimuli/002570_2014-06-24_13-59-54_094959634447_rgbf000059-resize_0/002570_2014-06-24_13-59-54_094959634447_rgbf000059-resize-original.jpg,1423,725498,930641,34
343974,DepthScenes,v2_duration_discrimination,discrim_jsons/shuffled_g0_dr.json,http://54.211.221.249/DepthDuration/v2_depth_discrimination_MTurk/v2_DepthDiscrim_HTML.html#1,1,2024,923,2049,1152,8-2-2021,9-56-24,167,,,,,,,4066,505,995,1000,1000,500,,3,5,depth_discrimination_stimuli/000502_2014-06-08_23-02-32_260595134347_rgbf000063-resize_4/000502_2014-06-08_23-02-32_260595134347_rgbf000063-resize-original.jpg,1798,725498,930641,34
343974,DepthScenes,v2_duration_discrimination,discrim_jsons/shuffled_g0_dr.json,http://54.211.221.249/DepthDuration/v2_depth_discrimination_MTurk/v2_DepthDiscrim_HTML.html#1,1,2024,923,2049,1152,8-2-2021,9-56-24,168,,,,,,,4066,505,995,1000,1000,500,,3,5,depth_discrimination_stimuli/002549_2014-06-24_13-41-39_094959634447_rgbf000022-resize_3/002549_2014-06-24_13-41-39_094959634447_rgbf000022-resize-original.jpg,3362,725498,930641,34
343974,DepthScenes,v2_duration_discrimination,discrim_jsons/shuffled_g0_dr.json,http://54.211.221.249/DepthDuration/v2_depth_discrimination_MTurk/v2_DepthDiscrim_HTML.html#1,1,2024,923,2049,1152,8-2-2021,9-56-24,169,,,,,,,4066,505,995,1000,1000,500,,3,5,depth_discrimination_stimuli/000691_2014-06-08_13-08-50_260595134347_rgbf000132-resize_3/000691_2014-06-08_13-08-50_260595134347_rgbf000132-resize-original.jpg,1920,725498,930641,34
343974,DepthScenes,v2_duration_discrimination,discrim_jsons/shuffled_g0_dr.json,http://54.211.221.249/DepthDuration/v2_depth_discrimination_MTurk/v2_DepthDiscrim_HTML.html#1,1,2024,923,2049,1152,8-2-2021,9-56-24,170,,,,,,,4066,505,995,1000,1000,500,,3,5,depth_discrimination_stimuli/001100_2014-06-15_17-46-26_260595134347_rgbf000225-resize_2/001100_2014-06-15_17-46-26_260595134347_rgbf000225-resize-original.jpg,1686,725498,930641,34
343974,DepthScenes,v2_duration_discrimination,discrim_jsons/shuffled_g0_dr.json,http://54.211.221.249/DepthDuration/v2_depth_discrimination_MTurk/v2_DepthDiscrim_HTML.html#1,1,2024,923,2049,1152,8-2-2021,9-56-24,171,,,,,,,4066,505,995,1000,1000,500,,3,5,depth_discrimination_stimuli/002139_2014-06-25_21-19-37_260595134347_rgbf000124-resize_2/002139_2014-06-25_21-19-37_260595134347_rgbf000124-resize-original.jpg,1987,725498,930641,34
343974,DepthScenes,v2_duration_discrimination,discrim_jsons/shuffled_g0_dr.json,http://54.211.221.249/DepthDuration/v2_depth_discrimination_MTurk/v2_DepthDiscrim_HTML.html#1,1,2024,923,2049,1152,8-2-2021,9-56-24,172,,,,,,,4066,505,995,1000,1000,500,,4,5,depth_discrimination_stimuli/002964_2014-06-08_17-46-11_094959634447_rgbf000091-resize_4/002964_2014-06-08_17-46-11_094959634447_rgbf000091-resize-original.jpg,1845,725498,930641,34
343974,DepthScenes,v2_duration_discrimination,discrim_jsons/shuffled_g0_dr.json,http://54.211.221.249/DepthDuration/v2_depth_discrimination_MTurk/v2_DepthDiscrim_HTML.html#1,1,2024,923,2049,1152,8-2-2021,9-56-24,173,,,,,,,4066,505,995,1000,1000,500,,5,2,depth_discrimination_stimuli/000009_2014-05-26_14-32-05_260595134347_rgbf000034-resize_3/000009_2014-05-26_14-32-05_260595134347_rgbf000034-resize-original.jpg,1953,725498,930641,34
343974,DepthScenes,v2_duration_discrimination,discrim_jsons/shuffled_g0_dr.json,http://54.211.221.249/DepthDuration/v2_depth_discrimination_MTurk/v2_DepthDiscrim_HTML.html#1,1,2024,923,2049,1152,8-2-2021,9-56-24,174,,,,,,,4066,505,995,1000,1000,500,,5,4,depth_discrimination_stimuli/002600_2014-06-24_14-27-04_094959634447_rgbf000074-resize_2/002600_2014-06-24_14-27-04_094959634447_rgbf000074-resize-original.jpg,2631,725498,930641,34
343974,DepthScenes,v2_duration_discrimination,discrim_jsons/shuffled_g0_dr.json,http://54.211.221.249/DepthDuration/v2_depth_discrimination_MTurk/v2_DepthDiscrim_HTML.html#1,1,2024,923,2049,1152,8-2-2021,9-56-24,175,,,,,,,4066,505,995,1000,1000,500,,5,3,depth_discrimination_stimuli/001392_2014-06-19_16-07-59_260595134347_rgbf000046-resize_1/001392_2014-06-19_16-07-59_260595134347_rgbf000046-resize-original.jpg,1909,725498,930641,34
343974,DepthScenes,v2_duration_discrimination,discrim_jsons/shuffled_g0_dr.json,http://54.211.221.249/DepthDuration/v2_depth_discrimination_MTurk/v2_DepthDiscrim_HTML.html#1,1,2024,923,2049,1152,8-2-2021,9-56-24,176,,,,,,,4066,505,995,1000,1000,500,,5,2,depth_discrimination_stimuli/001264_2014-06-16_16-10-23_260595134347_rgbf000109-resize_1/001264_2014-06-16_16-10-23_260595134347_rgbf000109-resize-original.jpg,1577,725498,930641,34
343974,DepthScenes,v2_duration_discrimination,discrim_jsons/shuffled_g0_dr.json,http://54.211.221.249/DepthDuration/v2_depth_discrimination_MTurk/v2_DepthDiscrim_HTML.html#1,1,2024,923,2049,1152,8-2-2021,9-56-24,177,,,,,,,4066,505,995,1000,1000,500,,5,3,depth_discrimination_stimuli/000869_2014-06-09_20-50-18_260595134347_rgbf000060-resize_3/000869_2014-06-09_20-50-18_260595134347_rgbf000060-resize-original.jpg,1616,725498,930641,34
343974,DepthScenes,v2_duration_discrimination,discrim_jsons/shuffled_g0_dr.json,http://54.211.221.249/DepthDuration/v2_depth_discrimination_MTurk/v2_DepthDiscrim_HTML.html#1,1,2024,923,2049,1152,8-2-2021,9-56-24,178,,,,,,,4066,505,995,1000,1000,500,,5,3,depth_discrimination_stimuli/002663_2014-06-13_15-50-26_094959634447_rgbf000075-resize_1/002663_2014-06-13_15-50-26_094959634447_rgbf000075-resize-original.jpg,2255,725498,930641,34
343974,DepthScenes,v2_duration_discrimination,discrim_jsons/shuffled_g0_dr.json,http://54.211.221.249/DepthDuration/v2_depth_discrimination_MTurk/v2_DepthDiscrim_HTML.html#1,1,2024,923,2049,1152,8-2-2021,9-56-24,179,,,,,,,4066,505,995,1000,1000,500,,5,3,depth_discrimination_stimuli/002750_2014-06-22_19-08-03_094959634447_rgbf000094-resize_4/002750_2014-06-22_19-08-03_094959634447_rgbf000094-resize-original.jpg,2503,725498,930641,34
343974,DepthScenes,v2_duration_discrimination,discrim_jsons/shuffled_g0_dr.json,http://54.211.221.249/DepthDuration/v2_depth_discrimination_MTurk/v2_DepthDiscrim_HTML.html#1,1,2024,923,2049,1152,8-2-2021,9-56-24,180,,,,,,,4066,505,995,1000,1000,500,,5,3,scene_property_catch_stimuli/sun_aoquhiddlfqapdlz.jpg,1697,725498,930641,34
343974,DepthScenes,v2_duration_discrimination,discrim_jsons/shuffled_g0_dr.json,http://54.211.221.249/DepthDuration/v2_depth_discrimination_MTurk/v2_DepthDiscrim_HTML.html#1,1,2024,923,2049,1152,8-2-2021,9-56-24,181,,,,,,,4066,505,995,1000,1000,500,,2,3,depth_discrimination_stimuli/002630_2014-06-24_14-47-50_094959634447_rgbf000055-resize_1/002630_2014-06-24_14-47-50_094959634447_rgbf000055-resize-original.jpg,2101,725498,930641,34
343974,DepthScenes,v2_duration_discrimination,discrim_jsons/shuffled_g0_dr.json,http://54.211.221.249/DepthDuration/v2_depth_discrimination_MTurk/v2_DepthDiscrim_HTML.html#1,1,2024,923,2049,1152,8-2-2021,9-56-24,182,,,,,,,4066,505,995,1000,1000,500,,4,5,depth_discrimination_stimuli/001167_2014-06-17_15-38-07_260595134347_rgbf000108-resize_0/001167_2014-06-17_15-38-07_260595134347_rgbf000108-resize-original.jpg,1816,725498,930641,34
343974,DepthScenes,v2_duration_discrimination,discrim_jsons/shuffled_g0_dr.json,http://54.211.221.249/DepthDuration/v2_depth_discrimination_MTurk/v2_DepthDiscrim_HTML.html#1,1,2024,923,2049,1152,8-2-2021,9-56-24,183,,,,,,,4066,505,995,1000,1000,500,,5,2,depth_discrimination_stimuli/000549_2014-06-08_22-10-24_260595134347_rgbf000247-resize_3/000549_2014-06-08_22-10-24_260595134347_rgbf000247-resize-original.jpg,1967,725498,930641,34
343974,DepthScenes,v2_duration_discrimination,discrim_jsons/shuffled_g0_dr.json,http://54.211.221.249/DepthDuration/v2_depth_discrimination_MTurk/v2_DepthDiscrim_HTML.html#1,1,2024,923,2049,1152,8-2-2021,9-56-24,184,,,,,,,4066,505,995,1000,1000,500,,5,3,depth_discrimination_stimuli/003228_2014-05-14_13-42-35_094959634447_rgbf000101-resize_1/003228_2014-05-14_13-42-35_094959634447_rgbf000101-resize-original.jpg,1660,725498,930641,34
343974,DepthScenes,v2_duration_discrimination,discrim_jsons/shuffled_g0_dr.json,http://54.211.221.249/DepthDuration/v2_depth_discrimination_MTurk/v2_DepthDiscrim_HTML.html#1,1,2024,923,2049,1152,8-2-2021,9-56-24,185,,,,,,,4066,505,995,1000,1000,500,,4,2,depth_discrimination_stimuli/002790_2014-06-22_19-36-35_094959634447_rgbf000074-resize_4/002790_2014-06-22_19-36-35_094959634447_rgbf000074-resize-original.jpg,2023,725498,930641,34
343974,DepthScenes,v2_duration_discrimination,discrim_jsons/shuffled_g0_dr.json,http://54.211.221.249/DepthDuration/v2_depth_discrimination_MTurk/v2_DepthDiscrim_HTML.html#1,1,2024,923,2049,1152,8-2-2021,9-56-24,186,,,,,,,4066,505,995,1000,1000,500,,3,5,depth_discrimination_stimuli/002460_2014-06-28_20-35-43_260595134347_rgbf000028-resize_4/002460_2014-06-28_20-35-43_260595134347_rgbf000028-resize-original.jpg,1864,725498,930641,34
343974,DepthScenes,v2_duration_discrimination,discrim_jsons/shuffled_g0_dr.json,http://54.211.221.249/DepthDuration/v2_depth_discrimination_MTurk/v2_DepthDiscrim_HTML.html#1,1,2024,923,2049,1152,8-2-2021,9-56-24,187,,,,,,,4066,505,995,1000,1000,500,,2,5,depth_discrimination_stimuli/002279_2014-06-28_18-55-32_260595134347_rgbf000040-resize_5/002279_2014-06-28_18-55-32_260595134347_rgbf000040-resize-original.jpg,1762,725498,930641,34
343974,DepthScenes,v2_duration_discrimination,discrim_jsons/shuffled_g0_dr.json,http://54.211.221.249/DepthDuration/v2_depth_discrimination_MTurk/v2_DepthDiscrim_HTML.html#1,1,2024,923,2049,1152,8-2-2021,9-56-24,188,,,,,,,4066,505,995,1000,1000,500,,3,4,depth_discrimination_stimuli/003292_2014-05-14_21-53-49_094959634447_rgbf000100-resize_2/003292_2014-05-14_21-53-49_094959634447_rgbf000100-resize-original.jpg,2683,725498,930641,34
343974,DepthScenes,v2_duration_discrimination,discrim_jsons/shuffled_g0_dr.json,http://54.211.221.249/DepthDuration/v2_depth_discrimination_MTurk/v2_DepthDiscrim_HTML.html#1,1,2024,923,2049,1152,8-2-2021,9-56-24,189,,,,,,,4066,505,995,1000,1000,500,,3,5,depth_discrimination_stimuli/001450_2014-06-19_17-02-03_260595134347_rgbf000203-resize_4/001450_2014-06-19_17-02-03_260595134347_rgbf000203-resize-original.jpg,3194,725498,930641,34
343974,DepthScenes,v2_duration_discrimination,discrim_jsons/shuffled_g0_dr.json,http://54.211.221.249/DepthDuration/v2_depth_discrimination_MTurk/v2_DepthDiscrim_HTML.html#1,1,2024,923,2049,1152,8-2-2021,9-56-24,190,,,,,,,4066,505,995,1000,1000,500,,5,4,depth_discrimination_stimuli/000368_2014-06-09_15-53-01_260595134347_rgbf000155-resize_2/000368_2014-06-09_15-53-01_260595134347_rgbf000155-resize-original.jpg,2801,725498,930641,34
343974,DepthScenes,v2_duration_discrimination,discrim_jsons/shuffled_g0_dr.json,http://54.211.221.249/DepthDuration/v2_depth_discrimination_MTurk/v2_DepthDiscrim_HTML.html#1,1,2024,923,2049,1152,8-2-2021,9-56-24,191,,,,,,,4066,505,995,1000,1000,500,,4,2,depth_discrimination_stimuli/003423_2014-05-21_10-23-26_094959634447_rgbf002665-resize_2/003423_2014-05-21_10-23-26_094959634447_rgbf002665-resize-original.jpg,2431,725498,930641,34
343974,DepthScenes,v2_duration_discrimination,discrim_jsons/shuffled_g0_dr.json,http://54.211.221.249/DepthDuration/v2_depth_discrimination_MTurk/v2_DepthDiscrim_HTML.html#1,1,2024,923,2049,1152,8-2-2021,9-56-24,192,,,,,,,4066,505,995,1000,1000,500,,2,5,depth_discrimination_stimuli/002153_2014-06-25_21-27-18_260595134347_rgbf000038-resize_5/002153_2014-06-25_21-27-18_260595134347_rgbf000038-resize-original.jpg,2935,725498,930641,34
343974,DepthScenes,v2_duration_discrimination,discrim_jsons/shuffled_g0_dr.json,http://54.211.221.249/DepthDuration/v2_depth_discrimination_MTurk/v2_DepthDiscrim_HTML.html#1,1,2024,923,2049,1152,8-2-2021,9-56-24,193,,,,,,,4066,505,995,1000,1000,500,,4,5,depth_discrimination_stimuli/000436_2014-06-09_22-25-11_260595134347_rgbf000137-resize_1/000436_2014-06-09_22-25-11_260595134347_rgbf000137-resize-original.jpg,2999,725498,930641,34
343974,DepthScenes,v2_duration_discrimination,discrim_jsons/shuffled_g0_dr.json,http://54.211.221.249/DepthDuration/v2_depth_discrimination_MTurk/v2_DepthDiscrim_HTML.html#1,1,2024,923,2049,1152,8-2-2021,9-56-24,194,,,,,,,4066,505,995,1000,1000,500,,5,2,depth_discrimination_stimuli/002545_2014-06-24_13-38-53_094959634447_rgbf000080-resize_4/002545_2014-06-24_13-38-53_094959634447_rgbf000080-resize-original.jpg,2657,725498,930641,34
343974,DepthScenes,v2_duration_discrimination,discrim_jsons/shuffled_g0_dr.json,http://54.211.221.249/DepthDuration/v2_depth_discrimination_MTurk/v2_DepthDiscrim_HTML.html#1,1,2024,923,2049,1152,8-2-2021,9-56-24,195,,,,,,,4066,505,995,1000,1000,500,,5,4,depth_discrimination_stimuli/001806_2014-06-26_20-50-20_260595134347_rgbf000091-resize_1/001806_2014-06-26_20-50-20_260595134347_rgbf000091-resize-original.jpg,2738,725498,930641,34
343974,DepthScenes,v2_duration_discrimination,discrim_jsons/shuffled_g0_dr.json,http://54.211.221.249/DepthDuration/v2_depth_discrimination_MTurk/v2_DepthDiscrim_HTML.html#1,1,2024,923,2049,1152,8-2-2021,9-56-24,196,,,,,,,4066,505,995,1000,1000,500,,4,2,depth_discrimination_stimuli/003288_2014-05-14_21-50-30_094959634447_rgbf000028-resize_3/003288_2014-05-14_21-50-30_094959634447_rgbf000028-resize-original.jpg,2054,725498,930641,34
343974,DepthScenes,v2_duration_discrimination,discrim_jsons/shuffled_g0_dr.json,http://54.211.221.249/DepthDuration/v2_depth_discrimination_MTurk/v2_DepthDiscrim_HTML.html#1,1,2024,923,2049,1152,8-2-2021,9-56-24,197,,,,,,,4066,505,995,1000,1000,500,,3,5,depth_discrimination_stimuli/000665_2014-06-09_20-42-35_260595134347_rgbf000110-resize_1/000665_2014-06-09_20-42-35_260595134347_rgbf000110-resize-original.jpg,2222,725498,930641,34
343974,DepthScenes,v2_duration_discrimination,discrim_jsons/shuffled_g0_dr.json,http://54.211.221.249/DepthDuration/v2_depth_discrimination_MTurk/v2_DepthDiscrim_HTML.html#1,1,2024,923,2049,1152,8-2-2021,9-56-24,198,,,,,,,4066,505,995,1000,1000,500,,4,5,depth_discrimination_stimuli/001828_2014-06-26_21-40-03_260595134347_rgbf000024-resize_0/001828_2014-06-26_21-40-03_260595134347_rgbf000024-resize-original.jpg,2216,725498,930641,34
343974,DepthScenes,v2_duration_discrimination,discrim_jsons/shuffled_g0_dr.json,http://54.211.221.249/DepthDuration/v2_depth_discrimination_MTurk/v2_DepthDiscrim_HTML.html#1,1,2024,923,2049,1152,8-2-2021,9-56-24,199,,,,,,,4066,505,995,1000,1000,500,,4,5,depth_discrimination_stimuli/001059_2014-06-08_21-53-27_260595134347_rgbf000061-resize_4/001059_2014-06-08_21-53-27_260595134347_rgbf000061-resize-original.jpg,2264,725498,930641,34
343974,DepthScenes,v2_duration_discrimination,discrim_jsons/shuffled_g0_dr.json,http://54.211.221.249/DepthDuration/v2_depth_discrimination_MTurk/v2_DepthDiscrim_HTML.html#1,1,2024,923,2049,1152,8-2-2021,9-56-24,200,,,,,,,4066,505,995,1000,1000,500,,5,4,depth_discrimination_stimuli/000103_2014-05-14_22-01-17_260595134347_rgbf000152-resize_5/000103_2014-05-14_22-01-17_260595134347_rgbf000152-resize-original.jpg,971,725498,930641,34
343974,DepthScenes,v2_duration_discrimination,discrim_jsons/shuffled_g0_dr.json,http://54.211.221.249/DepthDuration/v2_depth_discrimination_MTurk/v2_DepthDiscrim_HTML.html#1,1,2024,923,2049,1152,8-2-2021,9-56-24,201,,,,,,,4066,505,995,1000,1000,500,,5,3,depth_discrimination_stimuli/000682_2014-06-08_23-14-58_260595134347_rgbf000041-resize_5/000682_2014-06-08_23-14-58_260595134347_rgbf000041-resize-original.jpg,1741,725498,930641,34
343974,DepthScenes,v2_duration_discrimination,discrim_jsons/shuffled_g0_dr.json,http://54.211.221.249/DepthDuration/v2_depth_discrimination_MTurk/v2_DepthDiscrim_HTML.html#1,1,2024,923,2049,1152,8-2-2021,9-56-24,202,,,,,,,4066,505,995,1000,1000,500,,4,3,depth_discrimination_stimuli/000409_2014-06-04_19-23-33_260595134347_rgbf000067-resize_0/000409_2014-06-04_19-23-33_260595134347_rgbf000067-resize-original.jpg,2201,725498,930641,34
343974,DepthScenes,v2_duration_discrimination,discrim_jsons/shuffled_g0_dr.json,http://54.211.221.249/DepthDuration/v2_depth_discrimination_MTurk/v2_DepthDiscrim_HTML.html#1,1,2024,923,2049,1152,8-2-2021,9-56-24,203,,,,,,,4066,505,995,1000,1000,500,,5,3,depth_discrimination_stimuli/001197_2014-06-17_16-01-50_260595134347_rgbf000103-resize_4/001197_2014-06-17_16-01-50_260595134347_rgbf000103-resize-original.jpg,2208,725498,930641,34
343974,DepthScenes,v2_duration_discrimination,discrim_jsons/shuffled_g0_dr.json,http://54.211.221.249/DepthDuration/v2_depth_discrimination_MTurk/v2_DepthDiscrim_HTML.html#1,1,2024,923,2049,1152,8-2-2021,9-56-24,204,,,,,,,4066,505,995,1000,1000,500,,5,3,depth_discrimination_stimuli/001570_2014-06-20_17-21-09_260595134347_rgbf000135-resize_4/001570_2014-06-20_17-21-09_260595134347_rgbf000135-resize-original.jpg,1902,725498,930641,34
343974,DepthScenes,v2_duration_discrimination,discrim_jsons/shuffled_g0_dr.json,http://54.211.221.249/DepthDuration/v2_depth_discrimination_MTurk/v2_DepthDiscrim_HTML.html#1,1,2024,923,2049,1152,8-2-2021,9-56-24,205,,,,,,,4066,505,995,1000,1000,500,,5,3,depth_discrimination_stimuli/003083_2014-06-15_15-21-03_094959634447_rgbf000063-resize_1/003083_2014-06-15_15-21-03_094959634447_rgbf000063-resize-original.jpg,2236,725498,930641,34
343974,DepthScenes,v2_duration_discrimination,discrim_jsons/shuffled_g0_dr.json,http://54.211.221.249/DepthDuration/v2_depth_discrimination_MTurk/v2_DepthDiscrim_HTML.html#1,1,2024,923,2049,1152,8-2-2021,9-56-24,206,,,,,,,4066,505,995,1000,1000,500,,4,2,depth_discrimination_stimuli/001447_2014-06-19_17-00-32_260595134347_rgbf000082-resize_5/001447_2014-06-19_17-00-32_260595134347_rgbf000082-resize-original.jpg,1864,725498,930641,34
343974,DepthScenes,v2_duration_discrimination,discrim_jsons/shuffled_g0_dr.json,http://54.211.221.249/DepthDuration/v2_depth_discrimination_MTurk/v2_DepthDiscrim_HTML.html#1,1,2024,923,2049,1152,8-2-2021,9-56-24,207,,,,,,,4066,505,995,1000,1000,500,,3,5,depth_discrimination_stimuli/003338_2014-05-20_11-01-23_094959634447_rgbf000051-resize_6/003338_2014-05-20_11-01-23_094959634447_rgbf000051-resize-original.jpg,1777,725498,930641,34
343974,DepthScenes,v2_duration_discrimination,discrim_jsons/shuffled_g0_dr.json,http://54.211.221.249/DepthDuration/v2_depth_discrimination_MTurk/v2_DepthDiscrim_HTML.html#1,1,2024,923,2049,1152,8-2-2021,9-56-24,208,,,,,,,4066,505,995,1000,1000,500,,3,5,depth_discrimination_stimuli/002637_2014-06-24_14-51-13_094959634447_rgbf000066-resize_4/002637_2014-06-24_14-51-13_094959634447_rgbf000066-resize-original.jpg,1446,725498,930641,34
343974,DepthScenes,v2_duration_discrimination,discrim_jsons/shuffled_g0_dr.json,http://54.211.221.249/DepthDuration/v2_depth_discrimination_MTurk/v2_DepthDiscrim_HTML.html#1,1,2024,923,2049,1152,8-2-2021,9-56-24,209,,,,,,,4066,505,995,1000,1000,500,,3,5,depth_discrimination_stimuli/001029_2014-06-08_13-17-57_260595134347_rgbf000065-resize_1/001029_2014-06-08_13-17-57_260595134347_rgbf000065-resize-original.jpg,1800,725498,930641,34
343974,DepthScenes,v2_duration_discrimination,discrim_jsons/shuffled_g0_dr.json,http://54.211.221.249/DepthDuration/v2_depth_discrimination_MTurk/v2_DepthDiscrim_HTML.html#1,1,2024,923,2049,1152,8-2-2021,9-56-24,210,,,,,,,4066,505,995,1000,1000,500,,3,5,depth_discrimination_stimuli/001235_2014-06-17_16-37-36_260595134347_rgbf000084-resize_4/001235_2014-06-17_16-37-36_260595134347_rgbf000084-resize-original.jpg,1425,725498,930641,34
343974,DepthScenes,v2_duration_discrimination,discrim_jsons/shuffled_g0_dr.json,http://54.211.221.249/DepthDuration/v2_depth_discrimination_MTurk/v2_DepthDiscrim_HTML.html#1,1,2024,923,2049,1152,8-2-2021,9-56-24,211,,,,,,,4066,505,995,1000,1000,500,,3,5,depth_discrimination_stimuli/003069_2014-06-15_14-57-50_094959634447_rgbf000150-resize_4/003069_2014-06-15_14-57-50_094959634447_rgbf000150-resize-original.jpg,1557,725498,930641,34
343974,DepthScenes,v2_duration_discrimination,discrim_jsons/shuffled_g0_dr.json,http://54.211.221.249/DepthDuration/v2_depth_discrimination_MTurk/v2_DepthDiscrim_HTML.html#1,1,2024,923,2049,1152,8-2-2021,9-56-24,212,,,,,,,4066,505,995,1000,1000,500,,3,5,depth_discrimination_stimuli/001055_2014-06-08_18-45-35_260595134347_rgbf000111-resize_4/001055_2014-06-08_18-45-35_260595134347_rgbf000111-resize-original.jpg,1455,725498,930641,34
343974,DepthScenes,v2_duration_discrimination,discrim_jsons/shuffled_g0_dr.json,http://54.211.221.249/DepthDuration/v2_depth_discrimination_MTurk/v2_DepthDiscrim_HTML.html#1,1,2024,923,2049,1152,8-2-2021,9-56-24,213,,,,,,,4066,505,995,1000,1000,500,,3,5,depth_discrimination_stimuli/002305_2014-06-28_19-56-50_260595134347_rgbf000102-resize_7/002305_2014-06-28_19-56-50_260595134347_rgbf000102-resize-original.jpg,1605,725498,930641,34
343974,DepthScenes,v2_duration_discrimination,discrim_jsons/shuffled_g0_dr.json,http://54.211.221.249/DepthDuration/v2_depth_discrimination_MTurk/v2_DepthDiscrim_HTML.html#1,1,2024,923,2049,1152,8-2-2021,9-56-24,214,,,,,,,4066,505,995,1000,1000,500,,4,5,depth_discrimination_stimuli/001617_2014-06-20_11-35-32_260595134347_rgbf000066-resize_1/001617_2014-06-20_11-35-32_260595134347_rgbf000066-resize-original.jpg,4242,725498,930641,34